time,ax,ay,az,gx,gy,gz,mx,my,mz,pressure
2.00,-0.35,-6.83,-7.24,0.43,-0.66,1.20,-11.85,-23.86,-13.21,-1.00
13.00,-0.35,-6.83,-7.24,0.43,-0.66,1.20,-11.85,-23.86,-13.21,-1.00
25.00,-0.32,-6.81,-7.29,0.40,-0.65,1.20,-11.85,-23.86,-13.21,-1.00
86.00,-0.38,-6.76,-7.36,0.39,-0.65,1.19,-10.93,-24.24,-12.85,-1.00
98.00,-0.38,-6.76,-7.36,0.39,-0.65,1.19,-10.93,-24.24,-12.85,-1.00
110.00,-0.38,-6.73,-7.36,0.40,-0.65,1.20,-10.93,-24.24,-12.85,-1.00
122.00,-0.41,-6.77,-7.30,0.41,-0.65,1.20,-10.93,-24.24,-12.85,-1.00
137.00,-0.41,-6.77,-7.30,0.41,-0.65,1.20,-10.93,-24.24,-12.85,-1.00
148.00,-0.40,-6.78,-7.32,0.41,-0.65,1.19,-10.93,-24.24,-12.85,-1.00
160.00,-0.37,-6.80,-7.26,0.42,-0.65,1.20,-10.93,-24.24,-12.85,-1.00
172.00,-0.37,-6.80,-7.26,0.42,-0.65,1.20,-10.93,-24.24,-12.85,-1.00
186.00,-0.35,-6.83,-7.24,0.42,-0.65,1.19,-10.93,-24.24,-12.85,-1.00
198.00,-0.35,-6.83,-7.24,0.42,-0.65,1.19,-10.93,-24.24,-12.85,-1.00
210.00,-0.31,-6.82,-7.30,0.41,-0.65,1.19,-11.70,-22.90,-12.66,-1.00
222.00,-0.34,-6.82,-7.25,0.42,-0.65,1.20,-11.70,-22.90,-12.66,-1.00
236.00,-0.34,-6.82,-7.25,0.42,-0.65,1.20,-11.70,-22.90,-12.66,-1.00
248.00,-0.34,-6.85,-7.23,0.41,-0.65,1.20,-11.70,-22.90,-12.66,-1.00
260.00,-0.37,-6.79,-7.31,0.39,-0.65,1.20,-11.70,-22.90,-12.66,-1.00
275.00,-0.37,-6.79,-7.31,0.39,-0.65,1.20,-11.70,-22.90,-12.66,-1.00
286.00,-0.40,-6.79,-7.27,0.40,-0.65,1.20,-11.70,-22.90,-12.66,-1.00
298.00,-0.40,-6.79,-7.27,0.40,-0.65,1.20,-11.70,-22.90,-12.66,-1.00
310.00,-0.41,-6.80,-7.30,0.39,-0.65,1.19,-11.70,-22.90,-12.66,-1.00
325.00,-0.41,-6.78,-7.33,0.39,-0.65,1.19,-11.24,-24.24,-12.85,-1.00
337.00,-0.41,-6.78,-7.33,0.39,-0.65,1.19,-11.24,-24.24,-12.85,-1.00
349.00,-0.41,-6.82,-7.31,0.41,-0.65,1.19,-11.24,-24.24,-12.85,-1.00
361.00,-0.38,-6.81,-7.29,0.40,-0.65,1.19,-11.24,-24.24,-12.85,-1.00
375.00,-0.38,-6.81,-7.29,0.40,-0.65,1.19,-11.24,-24.24,-12.85,-1.00
387.00,-0.35,-6.79,-7.25,0.41,-0.65,1.19,-11.24,-24.24,-12.85,-1.00
399.00,-0.35,-6.79,-7.25,0.41,-0.65,1.19,-11.24,-24.24,-12.85,-1.00
413.00,-0.36,-6.83,-7.23,0.41,-0.65,1.19,-11.24,-24.24,-12.85,-1.00
425.00,-0.34,-6.83,-7.27,0.40,-0.65,1.19,-11.24,-24.24,-12.85,-1.00
437.00,-0.34,-6.83,-7.27,0.40,-0.65,1.19,-11.24,-24.24,-12.85,-1.00
449.00,-0.35,-6.83,-7.27,0.40,-0.65,1.20,-11.85,-22.71,-14.67,-1.00
463.00,-0.38,-6.85,-7.22,0.41,-0.65,1.20,-11.85,-22.71,-14.67,-1.00
475.00,-0.38,-6.85,-7.22,0.41,-0.65,1.20,-11.85,-22.71,-14.67,-1.00
487.00,-0.40,-6.84,-7.24,0.40,-0.65,1.20,-11.85,-22.71,-14.67,-1.00
499.00,-0.40,-6.84,-7.24,0.40,-0.65,1.20,-11.85,-22.71,-14.67,-1.00
513.00,-0.41,-6.84,-7.25,0.39,-0.65,1.19,-11.85,-22.71,-14.67,-1.00
525.00,-0.42,-6.83,-7.26,0.40,-0.65,1.19,-11.85,-22.71,-14.67,-1.00
537.00,-0.42,-6.83,-7.26,0.40,-0.65,1.19,-11.85,-22.71,-14.67,-1.00
549.00,-0.41,-6.80,-7.28,0.39,-0.65,1.19,-11.85,-22.71,-14.67,-1.00
563.00,-0.38,-6.80,-7.27,0.40,-0.65,1.19,-11.85,-22.71,-14.67,-1.00
575.00,-0.38,-6.80,-7.27,0.40,-0.65,1.19,-11.85,-22.71,-14.67,-1.00
587.00,-0.37,-6.80,-7.27,0.40,-0.65,1.19,-10.78,-24.81,-13.03,-1.00
601.00,-0.36,-6.81,-7.26,0.40,-0.65,1.19,-10.78,-24.81,-13.03,-1.00
613.00,-0.36,-6.81,-7.26,0.40,-0.65,1.19,-10.78,-24.81,-13.03,-1.00
625.00,-0.36,-6.85,-7.24,0.41,-0.65,1.19,-10.78,-24.81,-13.03,-1.00
637.00,-0.36,-6.85,-7.24,0.41,-0.65,1.19,-10.78,-24.81,-13.03,-1.00
651.00,-0.36,-6.87,-7.23,0.41,-0.65,1.19,-10.78,-24.81,-13.03,-1.00
663.00,-0.39,-6.86,-7.19,0.40,-0.65,1.19,-10.78,-24.81,-13.03,-1.00
675.00,-0.39,-6.86,-7.19,0.40,-0.65,1.19,-10.78,-24.81,-13.03,-1.00
687.00,-0.40,-6.88,-7.21,0.40,-0.65,1.20,-10.78,-24.81,-13.03,-1.00
702.00,-0.40,-6.86,-7.25,0.39,-0.65,1.19,-10.47,-24.05,-13.39,-1.00
713.00,-0.40,-6.86,-7.25,0.39,-0.65,1.19,-10.47,-24.05,-13.39,-1.00
725.00,-0.39,-6.83,-7.26,0.39,-0.65,1.19,-10.47,-24.05,-13.39,-1.00
739.00,-0.39,-6.83,-7.26,0.39,-0.65,1.19,-10.47,-24.05,-13.39,-1.00
751.00,-0.38,-6.82,-7.26,0.39,-0.65,1.19,-10.47,-24.05,-13.39,-1.00
763.00,-0.39,-6.81,-7.28,0.39,-0.65,1.19,-10.47,-24.05,-13.39,-1.00
775.00,-0.39,-6.81,-7.28,0.39,-0.65,1.19,-10.47,-24.05,-13.39,-1.00
789.00,-0.38,-6.81,-7.27,0.39,-0.65,1.19,-10.47,-24.05,-13.39,-1.00
801.00,-0.38,-6.84,-7.25,0.40,-0.65,1.19,-10.47,-24.05,-13.39,-1.00
813.00,-0.38,-6.84,-7.25,0.40,-0.65,1.19,-10.47,-24.05,-13.39,-1.00
825.00,-0.39,-6.85,-7.26,0.40,-0.65,1.19,-10.78,-24.43,-11.94,-1.00
839.00,-0.39,-6.85,-7.26,0.40,-0.65,1.19,-10.78,-24.43,-11.94,-1.00
851.00,-0.40,-6.86,-7.21,0.41,-0.65,1.19,-10.78,-24.43,-11.94,-1.00
863.00,-0.41,-6.88,-7.18,0.41,-0.65,1.19,-10.78,-24.43,-11.94,-1.00
875.00,-0.41,-6.88,-7.18,0.41,-0.65,1.19,-10.78,-24.43,-11.94,-1.00
889.00,-0.39,-6.88,-7.23,0.40,-0.65,1.19,-10.78,-24.43,-11.94,-1.00
901.00,-0.37,-6.86,-7.20,0.39,-0.65,1.19,-10.78,-24.43,-11.94,-1.00
913.00,-0.37,-6.86,-7.20,0.39,-0.65,1.19,-10.78,-24.43,-11.94,-1.00
927.00,-0.38,-6.86,-7.21,0.39,-0.65,1.19,-10.78,-24.43,-11.94,-1.00
939.00,-0.38,-6.86,-7.21,0.39,-0.65,1.19,-10.78,-24.43,-11.94,-1.00
951.00,-0.38,-6.83,-7.26,0.38,-0.65,1.19,-11.85,-25.39,-12.48,-1.00
963.00,-0.38,-6.82,-7.25,0.39,-0.65,1.19,-11.85,-25.39,-12.48,-1.00
977.00,-0.38,-6.82,-7.25,0.39,-0.65,1.19,-11.85,-25.39,-12.48,-1.00
989.00,-0.40,-6.83,-7.25,0.39,-0.65,1.19,-11.85,-25.39,-12.48,-1.00
1001.00,-0.41,-6.84,-7.23,0.39,-0.65,1.19,-11.85,-25.39,-12.48,-1.00
1013.00,-0.41,-6.84,-7.23,0.39,-0.65,1.19,-11.85,-25.39,-12.48,-1.00
1028.00,-0.41,-6.84,-7.23,0.40,-0.65,1.19,-11.85,-25.39,-12.48,-1.00
1039.00,-0.41,-6.84,-7.23,0.40,-0.65,1.19,-11.85,-25.39,-12.48,-1.00
1051.00,-0.40,-6.87,-7.21,0.40,-0.65,1.19,-11.85,-25.39,-12.48,-1.00
1065.00,-0.39,-6.88,-7.19,0.40,-0.65,1.19,-11.85,-25.39,-12.48,-1.00
1077.00,-0.39,-6.88,-7.19,0.40,-0.65,1.19,-11.85,-25.39,-12.48,-1.00
1089.00,-0.39,-6.88,-7.21,0.40,-0.65,1.19,-11.39,-25.20,-11.94,-1.00
1101.00,-0.37,-6.88,-7.21,0.40,-0.65,1.19,-11.39,-25.20,-11.94,-1.00
1115.00,-0.37,-6.88,-7.21,0.40,-0.65,1.19,-11.39,-25.20,-11.94,-1.00
1127.00,-0.37,-6.85,-7.22,0.39,-0.65,1.19,-11.39,-25.20,-11.94,-1.00
1139.00,-0.37,-6.85,-7.22,0.39,-0.65,1.19,-11.39,-25.20,-11.94,-1.00
1151.00,-0.39,-6.85,-7.21,0.39,-0.65,1.19,-11.39,-25.20,-11.94,-1.00
1165.00,-0.40,-6.85,-7.22,0.39,-0.65,1.19,-11.39,-25.20,-11.94,-1.00
1177.00,-0.40,-6.85,-7.22,0.39,-0.65,1.19,-11.39,-25.20,-11.94,-1.00
1189.00,-0.42,-6.84,-7.25,0.39,-0.65,1.19,-11.39,-25.20,-11.94,-1.00
1203.00,-0.43,-6.85,-7.26,0.39,-0.65,1.19,-11.39,-25.58,-13.03,-1.00
1215.00,-0.43,-6.85,-7.26,0.39,-0.65,1.19,-11.39,-25.58,-13.03,-1.00
1227.00,-0.45,-6.85,-7.25,0.40,-0.65,1.19,-11.39,-25.58,-13.03,-1.00
1239.00,-0.45,-6.85,-7.25,0.40,-0.65,1.19,-11.39,-25.58,-13.03,-1.00
1253.00,-0.41,-6.86,-7.22,0.40,-0.65,1.19,-11.39,-25.58,-13.03,-1.00
1265.00,-0.40,-6.88,-7.19,0.40,-0.65,1.19,-11.39,-25.58,-13.03,-1.00
1277.00,-0.40,-6.88,-7.19,0.40,-0.65,1.19,-11.39,-25.58,-13.03,-1.00
1289.00,-0.39,-6.85,-7.22,0.40,-0.65,1.19,-11.39,-25.58,-13.03,-1.00
1304.00,-0.38,-6.90,-7.18,0.40,-0.65,1.19,-11.39,-25.58,-13.03,-1.00
1315.00,-0.38,-6.90,-7.18,0.40,-0.65,1.19,-11.39,-25.58,-13.03,-1.00
1327.00,-0.37,-6.86,-7.21,0.39,-0.65,1.19,-11.55,-25.39,-13.21,-1.00
1342.00,-0.40,-6.87,-7.20,0.40,-0.65,1.19,-11.55,-25.39,-13.21,-1.00
1353.00,-0.40,-6.87,-7.20,0.40,-0.65,1.19,-11.55,-25.39,-13.21,-1.00
1365.00,-0.41,-6.87,-7.19,0.39,-0.65,1.19,-11.55,-25.39,-13.21,-1.00
1377.00,-0.41,-6.87,-7.19,0.39,-0.65,1.19,-11.55,-25.39,-13.21,-1.00
1391.00,-0.42,-6.86,-7.25,0.38,-0.65,1.19,-11.55,-25.39,-13.21,-1.00
1403.00,-0.43,-6.86,-7.24,0.39,-0.65,1.19,-11.55,-25.39,-13.21,-1.00
1415.00,-0.43,-6.86,-7.24,0.39,-0.65,1.19,-11.55,-25.39,-13.21,-1.00
1427.00,-0.42,-6.86,-7.19,0.40,-0.65,1.19,-11.55,-25.39,-13.21,-1.00
1441.00,-0.41,-6.86,-7.25,0.39,-0.65,1.19,-11.55,-25.39,-13.21,-1.00
1453.00,-0.41,-6.86,-7.25,0.39,-0.65,1.19,-11.55,-25.39,-13.21,-1.00
1465.00,-0.39,-6.85,-7.22,0.40,-0.65,1.19,-11.85,-24.24,-11.03,-1.00
1479.00,-0.39,-6.85,-7.22,0.40,-0.65,1.19,-11.85,-24.24,-11.03,-1.00
1491.00,-0.38,-6.88,-7.20,0.40,-0.65,1.19,-11.85,-24.24,-11.03,-1.00
1503.00,-0.39,-6.87,-7.19,0.39,-0.65,1.19,-11.85,-24.24,-11.03,-1.00
1515.00,-0.39,-6.87,-7.19,0.39,-0.65,1.19,-11.85,-24.24,-11.03,-1.00
1529.00,-0.39,-6.90,-7.17,0.40,-0.65,1.19,-11.85,-24.24,-11.03,-1.00
1541.00,-0.41,-6.89,-7.16,0.40,-0.65,1.19,-11.85,-24.24,-11.03,-1.00
1553.00,-0.41,-6.89,-7.16,0.40,-0.65,1.19,-11.85,-24.24,-11.03,-1.00
1567.00,-0.42,-6.87,-7.19,0.39,-0.65,1.19,-11.85,-24.24,-11.03,-1.00
1579.00,-0.42,-6.87,-7.19,0.39,-0.65,1.19,-11.85,-24.24,-11.03,-1.00
1591.00,-0.43,-6.88,-7.17,0.39,-0.65,1.19,-10.78,-24.05,-12.30,-1.00
1603.00,-0.42,-6.87,-7.21,0.39,-0.65,1.19,-10.78,-24.05,-12.30,-1.00
1618.00,-0.42,-6.87,-7.21,0.39,-0.65,1.19,-10.78,-24.05,-12.30,-1.00
1629.00,-0.40,-6.86,-7.21,0.39,-0.65,1.19,-10.78,-24.05,-12.30,-1.00
1641.00,-0.40,-6.86,-7.22,0.39,-0.65,1.19,-10.78,-24.05,-12.30,-1.00
1653.00,-0.40,-6.86,-7.22,0.39,-0.65,1.19,-10.78,-24.05,-12.30,-1.00
1667.00,-0.40,-6.86,-7.21,0.39,-0.65,1.19,-10.78,-24.05,-12.30,-1.00
1679.00,-0.40,-6.86,-7.21,0.39,-0.65,1.19,-10.78,-24.05,-12.30,-1.00
1691.00,-0.38,-6.85,-7.22,0.39,-0.65,1.19,-10.78,-24.05,-12.30,-1.00
1705.00,-0.41,-6.89,-7.20,0.40,-0.65,1.19,-12.16,-25.01,-11.39,-1.00
1717.00,-0.41,-6.89,-7.20,0.40,-0.65,1.19,-12.16,-25.01,-11.39,-1.00
1729.00,-0.41,-6.90,-7.18,0.39,-0.65,1.19,-12.16,-25.01,-11.39,-1.00
1741.00,-0.42,-6.89,-7.19,0.40,-0.65,1.19,-12.16,-25.01,-11.39,-1.00
1755.00,-0.42,-6.89,-7.19,0.40,-0.65,1.19,-12.16,-25.01,-11.39,-1.00
1767.00,-0.42,-6.90,-7.18,0.40,-0.65,1.19,-12.16,-25.01,-11.39,-1.00
1779.00,-0.42,-6.90,-7.18,0.40,-0.65,1.19,-12.16,-25.01,-11.39,-1.00
1791.00,-0.40,-6.90,-7.20,0.38,-0.65,1.19,-12.16,-25.01,-11.39,-1.00
1805.00,-0.39,-6.87,-7.20,0.39,-0.65,1.19,-12.16,-25.01,-11.39,-1.00
1817.00,-0.39,-6.87,-7.20,0.39,-0.65,1.19,-12.16,-25.01,-11.39,-1.00
1829.00,-0.40,-6.88,-7.19,0.39,-0.65,1.19,-11.09,-24.81,-13.39,-1.00
1843.00,-0.40,-6.85,-7.25,0.38,-0.65,1.19,-11.09,-24.81,-13.39,-1.00
1931.00,-0.42,-6.89,-7.16,0.40,-0.65,1.19,-11.09,-24.81,-13.39,-1.00
2020.00,-0.38,-6.88,-7.18,0.39,-0.65,1.19,-11.09,-25.58,-11.57,-1.00
2108.00,-0.43,-6.88,-7.18,0.40,-0.65,1.19,-11.24,-26.92,-13.57,-1.00
2123.00,-0.41,-6.91,-7.20,0.39,-0.65,1.19,-11.24,-26.92,-13.57,-1.00
2134.00,-0.41,-6.91,-7.20,0.39,-0.65,1.19,-11.24,-26.92,-13.57,-1.00
2146.00,-0.40,-6.89,-7.19,0.39,-0.65,1.19,-11.24,-26.92,-13.57,-1.00
2158.00,-0.40,-6.89,-7.19,0.39,-0.65,1.19,-11.24,-26.92,-13.57,-1.00
2172.00,-0.41,-6.91,-7.18,0.40,-0.65,1.19,-11.24,-26.92,-13.57,-1.00
2184.00,-0.38,-6.89,-7.18,0.39,-0.65,1.19,-11.24,-26.92,-13.57,-1.00
2196.00,-0.38,-6.89,-7.18,0.39,-0.65,1.19,-11.24,-26.92,-13.57,-1.00
2210.00,-0.38,-6.90,-7.19,0.39,-0.65,1.19,-11.85,-25.39,-12.48,-1.00
2222.00,-0.41,-6.88,-7.19,0.39,-0.65,1.19,-11.85,-25.39,-12.48,-1.00
2234.00,-0.41,-6.88,-7.19,0.39,-0.65,1.19,-11.85,-25.39,-12.48,-1.00
2246.00,-0.41,-6.89,-7.18,0.39,-0.65,1.19,-11.85,-25.39,-12.48,-1.00
2260.00,-0.41,-6.89,-7.18,0.39,-0.65,1.19,-11.85,-25.39,-12.48,-1.00
2272.00,-0.41,-6.88,-7.18,0.39,-0.65,1.19,-11.85,-25.39,-12.48,-1.00
2284.00,-0.44,-6.89,-7.19,0.39,-0.65,1.19,-11.85,-25.39,-12.48,-1.00
2296.00,-0.44,-6.89,-7.19,0.39,-0.65,1.19,-11.85,-25.39,-12.48,-1.00
2310.00,-0.42,-6.89,-7.18,0.39,-0.65,1.19,-11.85,-25.39,-12.48,-1.00
2322.00,-0.42,-6.88,-7.20,0.39,-0.65,1.19,-11.24,-25.01,-12.85,-1.00
2334.00,-0.42,-6.88,-7.20,0.39,-0.65,1.19,-11.24,-25.01,-12.85,-1.00
2348.00,-0.40,-6.90,-7.19,0.40,-0.65,1.19,-11.24,-25.01,-12.85,-1.00
2360.00,-0.40,-6.90,-7.19,0.40,-0.65,1.19,-11.24,-25.01,-12.85,-1.00
2372.00,-0.39,-6.89,-7.20,0.39,-0.65,1.19,-11.24,-25.01,-12.85,-1.00
2384.00,-0.39,-6.88,-7.17,0.39,-0.65,1.19,-11.24,-25.01,-12.85,-1.00
2399.00,-0.39,-6.88,-7.17,0.39,-0.65,1.19,-11.24,-25.01,-12.85,-1.00
2410.00,-0.40,-6.91,-7.14,0.40,-0.65,1.19,-11.24,-25.01,-12.85,-1.00
2422.00,-0.42,-6.89,-7.18,0.39,-0.65,1.19,-11.24,-25.01,-12.85,-1.00
2434.00,-0.42,-6.89,-7.18,0.39,-0.65,1.19,-11.24,-25.01,-12.85,-1.00
2448.00,-0.43,-6.90,-7.17,0.39,-0.65,1.19,-11.24,-25.01,-12.85,-1.00
2460.00,-0.43,-6.90,-7.17,0.39,-0.65,1.19,-11.24,-25.01,-12.85,-1.00
2472.00,-0.42,-6.91,-7.18,0.39,-0.65,1.19,-11.09,-25.58,-13.39,-1.00
2486.00,-0.40,-6.88,-7.19,0.38,-0.65,1.19,-11.09,-25.58,-13.39,-1.00
2498.00,-0.40,-6.88,-7.19,0.38,-0.65,1.19,-11.09,-25.58,-13.39,-1.00
2510.00,-0.42,-6.87,-7.19,0.39,-0.65,1.19,-11.09,-25.58,-13.39,-1.00
2522.00,-0.40,-6.89,-7.18,0.39,-0.65,1.19,-11.09,-25.58,-13.39,-1.00
2536.00,-0.40,-6.89,-7.18,0.39,-0.65,1.19,-11.09,-25.58,-13.39,-1.00
2548.00,-0.41,-6.89,-7.20,0.39,-0.65,1.19,-11.09,-25.58,-13.39,-1.00
2560.00,-0.41,-6.89,-7.20,0.39,-0.65,1.19,-11.09,-25.58,-13.39,-1.00
2572.00,-0.40,-6.90,-7.14,0.40,-0.65,1.19,-11.09,-25.58,-13.39,-1.00
2586.00,-0.40,-6.90,-7.21,0.39,-0.65,1.19,-11.85,-25.39,-11.75,-1.00
2598.00,-0.40,-6.90,-7.21,0.39,-0.65,1.19,-11.85,-25.39,-11.75,-1.00
2610.00,-0.40,-6.90,-7.19,0.39,-0.65,1.19,-11.85,-25.39,-11.75,-1.00
2624.00,-0.41,-6.92,-7.17,0.38,-0.66,1.20,-11.85,-25.39,-11.75,-1.00
2636.00,-0.41,-6.92,-7.17,0.38,-0.66,1.20,-11.85,-25.39,-11.75,-1.00
2648.00,-0.47,-6.83,-7.19,0.38,-0.66,1.21,-11.85,-25.39,-11.75,-1.00
2660.00,-0.47,-6.83,-7.19,0.38,-0.66,1.21,-11.85,-25.39,-11.75,-1.00
2675.00,-0.42,-6.90,-7.15,0.40,-0.64,1.18,-11.85,-25.39,-11.75,-1.00
2686.00,-0.40,-6.88,-7.23,0.39,-0.64,1.18,-11.85,-25.39,-11.75,-1.00
2698.00,-0.40,-6.88,-7.23,0.39,-0.64,1.18,-11.85,-25.39,-11.75,-1.00
2710.00,-0.39,-6.91,-7.20,0.39,-0.66,1.20,-11.55,-24.62,-13.21,-1.00
2724.00,-0.43,-6.81,-7.17,0.37,-0.67,1.21,-11.55,-24.62,-13.21,-1.00
2736.00,-0.43,-6.81,-7.17,0.37,-0.67,1.21,-11.55,-24.62,-13.21,-1.00
2748.00,-0.40,-6.87,-7.41,0.43,-0.66,1.20,-11.55,-24.62,-13.21,-1.00
2762.00,-0.35,-6.83,-7.80,0.61,-0.66,1.20,-11.55,-24.62,-13.21,-1.00
2774.00,-0.35,-6.83,-7.80,0.61,-0.66,1.20,-11.55,-24.62,-13.21,-1.00
2786.00,-0.33,-6.45,-8.04,0.83,-0.51,1.40,-11.55,-24.62,-13.21,-1.00
2798.00,-0.33,-6.45,-8.04,0.83,-0.51,1.40,-11.55,-24.62,-13.21,-1.00
2812.00,0.36,-7.49,-7.65,1.18,-0.00,1.93,-11.55,-24.62,-13.21,-1.00
2824.00,-1.14,-7.14,-5.33,1.19,-0.33,1.75,-11.70,-25.96,-12.66,-1.00
2836.00,-1.14,-7.14,-5.33,1.19,-0.33,1.75,-11.70,-25.96,-12.66,-1.00
2848.00,-0.53,-7.21,-7.33,0.52,-0.62,1.24,-11.70,-25.96,-12.66,-1.00
2862.00,-0.62,-7.16,-7.85,0.69,-0.60,1.27,-11.70,-25.96,-12.66,-1.00
2874.00,-0.62,-7.16,-7.85,0.69,-0.60,1.27,-11.70,-25.96,-12.66,-1.00
2886.00,-0.30,-7.48,-8.64,1.67,-0.54,1.38,-11.70,-25.96,-12.66,-1.00
2900.00,-0.30,-7.48,-8.64,1.67,-0.54,1.38,-11.70,-25.96,-12.66,-1.00
2912.00,-0.21,-7.38,-6.12,3.12,-0.55,1.53,-11.70,-25.96,-12.66,-1.00
2924.00,-0.06,-8.20,-6.10,3.51,-0.49,1.46,-11.70,-25.96,-12.66,-1.00
2936.00,-0.06,-8.20,-6.10,3.51,-0.49,1.46,-11.70,-25.96,-12.66,-1.00
2951.00,-0.71,-8.28,-5.50,4.73,-0.46,1.29,-11.70,-25.96,-12.66,-1.00
2962.00,-0.71,-8.28,-5.50,4.73,-0.46,1.29,-11.70,-25.96,-12.66,-1.00
2974.00,-1.68,-7.70,-4.83,6.19,-0.43,1.01,-10.32,-31.91,-2.65,-1.00
2986.00,-4.00,-7.70,-2.81,7.33,-0.42,0.77,-10.32,-31.91,-2.65,-1.00
3000.00,-4.00,-7.70,-2.81,7.33,-0.42,0.77,-10.32,-31.91,-2.65,-1.00
3012.00,-4.26,-7.57,4.70,8.79,-0.30,0.11,-10.32,-31.91,-2.65,-1.00
3024.00,4.96,-10.76,1.36,8.47,0.18,-0.93,-10.32,-31.91,-2.65,-1.00
3038.00,4.96,-10.76,1.36,8.47,0.18,-0.93,-10.32,-31.91,-2.65,-1.00
3050.00,5.83,-14.69,2.11,7.50,0.09,-0.37,-10.32,-31.91,-2.65,-1.00
3062.00,5.83,-14.69,2.11,7.50,0.09,-0.37,-10.32,-31.91,-2.65,-1.00
3074.00,2.93,-15.00,5.36,6.80,-0.56,1.19,-10.32,-31.91,-2.65,-1.00
3088.00,0.90,-10.94,5.64,8.12,-0.21,3.04,-6.95,-32.29,33.38,-1.00
3100.00,0.90,-10.94,5.64,8.12,-0.21,3.04,-6.95,-32.29,33.38,-1.00
3112.00,-0.47,-9.56,6.65,9.69,1.55,4.33,-6.95,-32.29,33.38,-1.00
3124.00,-3.24,-5.99,8.98,9.48,2.99,4.81,-6.95,-32.29,33.38,-1.00
3139.00,-3.24,-5.99,8.98,9.48,2.99,4.81,-6.95,-32.29,33.38,-1.00
3150.00,-4.01,-3.16,12.36,7.88,4.23,4.27,-6.95,-32.29,33.38,-1.00
3162.00,-4.01,-3.16,12.36,7.88,4.23,4.27,-6.95,-32.29,33.38,-1.00
3174.00,-0.73,-5.13,6.04,5.94,5.15,3.45,-6.95,-32.29,33.38,-1.00
3188.00,-0.79,-5.07,2.04,5.64,4.66,3.73,-6.95,-32.29,33.38,-1.00
3200.00,-0.79,-5.07,2.04,5.64,4.66,3.73,-6.95,-32.29,33.38,-1.00
3212.00,-2.93,-1.83,4.47,4.09,3.33,4.33,-27.32,4.32,33.56,-1.00
3224.00,-3.13,0.38,0.68,1.76,2.05,4.29,-27.32,4.32,33.56,-1.00
3238.00,-3.13,0.38,0.68,1.76,2.05,4.29,-27.32,4.32,33.56,-1.00
3250.00,-4.60,-0.08,4.76,3.75,1.37,4.20,-27.32,4.32,33.56,-1.00
3262.00,-4.60,-0.08,4.76,3.75,1.37,4.20,-27.32,4.32,33.56,-1.00
3274.00,-6.37,1.12,2.74,2.12,0.98,4.02,-27.32,4.32,33.56,-1.00
3289.00,-7.65,0.70,4.52,3.08,0.76,4.22,-27.32,4.32,33.56,-1.00
3300.00,-7.65,0.70,4.52,3.08,0.76,4.22,-27.32,4.32,33.56,-1.00
3312.00,-5.51,0.59,4.93,2.78,0.97,4.42,-27.32,4.32,33.56,-1.00
3324.00,-5.98,2.56,4.95,1.61,0.37,4.31,-30.70,27.33,20.09,-1.00
3338.00,-5.98,2.56,4.95,1.61,0.37,4.31,-30.70,27.33,20.09,-1.00
3350.00,-7.44,5.55,4.79,1.65,-0.76,4.28,-30.70,27.33,20.09,-1.00
3362.00,-7.44,5.55,4.79,1.65,-0.76,4.28,-30.70,27.33,20.09,-1.00
3374.00,-9.02,7.90,7.31,2.36,-1.10,3.91,-30.70,27.33,20.09,-1.00
3388.00,-7.53,9.38,6.28,1.92,-1.21,2.92,-30.70,27.33,20.09,-1.00
3400.00,-7.53,9.38,6.28,1.92,-1.21,2.92,-30.70,27.33,20.09,-1.00
3412.00,-7.49,4.34,7.24,1.00,-1.39,1.34,-30.70,27.33,20.09,-1.00
3427.00,-7.03,3.17,7.37,-0.41,-1.43,0.81,-30.70,27.33,20.09,-1.00
3438.00,-7.03,3.17,7.37,-0.41,-1.43,0.81,-30.70,27.33,20.09,-1.00
3450.00,-6.74,6.02,6.48,-1.78,-1.39,0.65,-30.70,27.33,20.09,-1.00
3462.00,-6.74,6.02,6.48,-1.78,-1.39,0.65,-30.70,27.33,20.09,-1.00
3476.00,-5.32,4.69,3.74,-3.67,-1.35,-0.24,-27.94,33.46,23.37,-1.00
3488.00,-3.13,3.36,4.81,-3.36,-2.07,-0.85,-27.94,33.46,23.37,-1.00
3500.00,-3.13,3.36,4.81,-3.36,-2.07,-0.85,-27.94,33.46,23.37,-1.00
3512.00,-3.00,0.75,10.00,-1.51,-2.56,-1.06,-27.94,33.46,23.37,-1.00
3526.00,-4.93,-1.69,10.35,0.61,-1.77,-0.64,-27.94,33.46,23.37,-1.00
3538.00,-4.93,-1.69,10.35,0.61,-1.77,-0.64,-27.94,33.46,23.37,-1.00
3550.00,-6.19,-2.33,10.51,3.21,-0.30,0.62,-27.94,33.46,23.37,-1.00
3562.00,-6.19,-2.33,10.51,3.21,-0.30,0.62,-27.94,33.46,23.37,-1.00
3576.00,-5.54,0.46,6.69,4.74,0.44,1.72,-27.94,33.46,23.37,-1.00
3588.00,-4.76,0.59,8.86,6.47,0.68,2.54,-28.70,27.90,23.55,-1.00
3600.00,-4.76,0.59,8.86,6.47,0.68,2.54,-28.70,27.90,23.55,-1.00
3612.00,-4.05,1.80,9.89,4.71,1.14,2.95,-28.70,27.90,23.55,-1.00
3626.00,-5.99,6.21,-0.26,-0.75,0.83,2.30,-28.70,27.90,23.55,-1.00
3638.00,-5.99,6.21,-0.26,-0.75,0.83,2.30,-28.70,27.90,23.55,-1.00
3650.00,-5.65,4.57,2.32,1.25,-0.04,1.93,-28.70,27.90,23.55,-1.00
3664.00,-5.10,4.61,3.63,3.65,-0.81,2.03,-28.70,27.90,23.55,-1.00
3676.00,-5.10,4.61,3.63,3.65,-0.81,2.03,-28.70,27.90,23.55,-1.00
3688.00,-4.50,4.56,4.24,4.92,-1.04,2.36,-28.70,27.90,23.55,-1.00
3700.00,-4.50,4.56,4.24,4.92,-1.04,2.36,-28.70,27.90,23.55,-1.00
3715.00,-8.26,8.49,5.21,5.65,-0.98,2.85,-26.41,40.36,13.54,-1.00
3726.00,-5.95,8.20,5.87,6.40,-0.45,2.66,-26.41,40.36,13.54,-1.00
3738.00,-5.95,8.20,5.87,6.40,-0.45,2.66,-26.41,40.36,13.54,-1.00
3750.00,-5.27,8.38,3.90,6.48,0.49,2.39,-26.41,40.36,13.54,-1.00
3764.00,-4.67,9.15,-0.57,4.98,0.78,2.17,-26.41,40.36,13.54,-1.00
3776.00,-4.67,9.15,-0.57,4.98,0.78,2.17,-26.41,40.36,13.54,-1.00
3788.00,-6.08,8.27,0.78,4.52,0.22,2.09,-26.41,40.36,13.54,-1.00
3800.00,-6.08,8.27,0.78,4.52,0.22,2.09,-26.41,40.36,13.54,-1.00
3814.00,-6.44,8.77,-0.21,3.44,-0.12,2.21,-26.41,40.36,13.54,-1.00
3826.00,-6.16,9.97,1.19,2.20,-0.26,2.15,-26.41,40.36,13.54,-1.00
3838.00,-6.16,9.97,1.19,2.20,-0.26,2.15,-26.41,40.36,13.54,-1.00
3850.00,-6.20,10.22,0.21,0.88,0.04,1.34,-24.11,43.62,-4.84,-1.00
3865.00,-5.80,7.59,-0.73,0.53,0.24,0.87,-24.11,43.62,-4.84,-1.00
3876.00,-5.80,7.59,-0.73,0.53,0.24,0.87,-24.11,43.62,-4.84,-1.00
3888.00,-6.19,6.66,-0.35,0.13,0.26,1.03,-24.11,43.62,-4.84,-1.00
3900.00,-6.19,6.66,-0.35,0.13,0.26,1.03,-24.11,43.62,-4.84,-1.00
3914.00,-6.89,7.52,0.18,-0.76,0.49,1.10,-24.11,43.62,-4.84,-1.00
3926.00,-6.35,7.79,-1.01,-0.53,0.80,0.96,-24.11,43.62,-4.84,-1.00
3938.00,-6.35,7.79,-1.01,-0.53,0.80,0.96,-24.11,43.62,-4.84,-1.00
3950.00,-5.67,9.35,0.69,0.20,0.83,0.84,-24.11,43.62,-4.84,-1.00
3964.00,-4.36,8.95,0.51,0.13,1.01,0.45,-22.42,43.05,-9.75,-1.00
3976.00,-4.36,8.95,0.51,0.13,1.01,0.45,-22.42,43.05,-9.75,-1.00
3988.00,-4.53,10.15,-0.65,-1.35,0.62,0.32,-22.42,43.05,-9.75,-1.00
4000.00,-4.53,10.15,-0.65,-1.35,0.62,0.32,-22.42,43.05,-9.75,-1.00
4015.00,-5.79,9.59,0.82,-1.48,0.09,0.49,-22.42,43.05,-9.75,-1.00
4026.00,-4.77,8.82,1.12,-1.86,-0.22,0.69,-22.42,43.05,-9.75,-1.00
4038.00,-4.77,8.82,1.12,-1.86,-0.22,0.69,-22.42,43.05,-9.75,-1.00
4053.00,-6.12,9.17,1.26,-4.17,-0.66,0.46,-22.42,43.05,-9.75,-1.00
4064.00,-6.74,7.65,2.42,-5.42,-0.84,0.16,-22.42,43.05,-9.75,-1.00
4076.00,-6.74,7.65,2.42,-5.42,-0.84,0.16,-22.42,43.05,-9.75,-1.00
4088.00,-6.81,7.85,3.38,-6.28,-1.10,0.33,-24.57,44.58,1.89,-1.00
4102.00,-6.81,7.85,3.38,-6.28,-1.10,0.33,-24.57,44.58,1.89,-1.00
4114.00,-5.37,7.15,3.98,-5.37,-1.09,0.49,-24.57,44.58,1.89,-1.00
4126.00,-2.85,5.60,4.46,-2.87,-0.82,0.76,-24.57,44.58,1.89,-1.00
4138.00,-2.85,5.60,4.46,-2.87,-0.82,0.76,-24.57,44.58,1.89,-1.00
4152.00,-4.56,6.12,5.56,-0.58,-0.52,1.10,-24.57,44.58,1.89,-1.00
4164.00,-5.72,6.91,5.42,0.70,-0.17,1.19,-24.57,44.58,1.89,-1.00
4176.00,-5.72,6.91,5.42,0.70,-0.17,1.19,-24.57,44.58,1.89,-1.00
4188.00,-5.72,6.53,4.48,1.70,0.03,1.17,-24.57,44.58,1.89,-1.00
4203.00,-5.72,6.53,4.48,1.70,0.03,1.17,-24.57,44.58,1.89,-1.00
4214.00,-5.59,6.60,2.88,2.42,0.13,1.27,-24.57,46.11,5.90,-1.00
4226.00,-5.23,6.64,1.79,2.99,0.01,1.36,-24.57,46.11,5.90,-1.00
4238.00,-5.23,6.64,1.79,2.99,0.01,1.36,-24.57,46.11,5.90,-1.00
4252.00,-5.72,7.39,2.94,3.28,-0.22,1.37,-24.57,46.11,5.90,-1.00
4340.00,-6.21,7.38,1.97,-1.18,0.02,0.49,-24.57,46.11,5.90,-1.00
4429.00,-9.39,5.59,3.38,-3.61,-0.91,-0.15,-25.03,43.62,-0.47,-1.00
4516.00,-7.52,4.32,3.48,-0.20,-1.07,1.38,-27.17,39.40,6.81,-1.00
4531.00,-6.99,4.85,4.48,-0.27,-1.24,1.49,-27.17,39.40,6.81,-1.00
4542.00,-6.99,4.85,4.48,-0.27,-1.24,1.49,-27.17,39.40,6.81,-1.00
4554.00,-6.31,3.79,7.25,-0.47,-1.08,1.41,-27.17,39.40,6.81,-1.00
4566.00,-6.63,4.67,6.20,-1.12,-0.88,1.34,-27.17,39.40,6.81,-1.00
4580.00,-6.63,4.67,6.20,-1.12,-0.88,1.34,-27.17,39.40,6.81,-1.00
4592.00,-6.96,4.73,3.96,-0.86,-0.63,1.29,-27.78,40.17,13.36,-1.00
4604.00,-6.12,5.21,4.77,-0.38,-0.74,1.27,-27.78,40.17,13.36,-1.00
4616.00,-6.12,5.21,4.77,-0.38,-0.74,1.27,-27.78,40.17,13.36,-1.00
4630.00,-9.26,4.96,5.79,-0.05,-0.75,1.19,-27.78,40.17,13.36,-1.00
4642.00,-9.26,4.96,5.79,-0.05,-0.75,1.19,-27.78,40.17,13.36,-1.00
4654.00,-6.48,4.57,5.71,-0.08,-0.55,1.06,-27.78,40.17,13.36,-1.00
4666.00,-6.73,4.96,5.31,0.08,-0.29,1.03,-27.78,40.17,13.36,-1.00
4680.00,-6.73,4.96,5.31,0.08,-0.29,1.03,-27.78,40.17,13.36,-1.00
4692.00,-6.85,5.07,4.75,-0.26,-0.21,0.85,-27.78,40.17,13.36,-1.00
4704.00,-7.18,4.70,5.39,-0.38,-0.28,0.70,-26.87,37.49,13.00,-1.00
4718.00,-7.18,4.70,5.39,-0.38,-0.28,0.70,-26.87,37.49,13.00,-1.00
4730.00,-7.92,4.07,5.80,-0.22,-0.22,0.66,-26.87,37.49,13.00,-1.00
4742.00,-7.92,4.07,5.80,-0.22,-0.22,0.66,-26.87,37.49,13.00,-1.00
4754.00,-8.31,3.76,4.79,-0.26,-0.16,0.67,-26.87,37.49,13.00,-1.00
4768.00,-7.93,3.85,3.60,-0.23,-0.27,0.74,-26.87,37.49,13.00,-1.00
4780.00,-7.93,3.85,3.60,-0.23,-0.27,0.74,-26.87,37.49,13.00,-1.00
4792.00,-8.19,3.57,3.23,-0.15,-0.48,0.81,-26.87,37.49,13.00,-1.00
4804.00,-7.63,3.39,3.63,0.18,-0.67,0.92,-26.87,37.49,13.00,-1.00
4818.00,-7.63,3.39,3.63,0.18,-0.67,0.92,-26.87,37.49,13.00,-1.00
4831.00,-7.89,3.31,4.47,0.74,-0.78,1.08,-26.87,37.49,13.00,-1.00
4842.00,-7.89,3.31,4.47,0.74,-0.78,1.08,-26.87,37.49,13.00,-1.00
4854.00,-8.07,3.41,4.61,1.10,-0.80,1.25,-28.24,36.91,13.91,-1.00
4868.00,-7.84,3.69,4.81,0.91,-0.88,1.34,-28.24,36.91,13.91,-1.00
4880.00,-7.84,3.69,4.81,0.91,-0.88,1.34,-28.24,36.91,13.91,-1.00
4892.00,-8.40,3.46,6.44,0.24,-1.03,1.29,-28.24,36.91,13.91,-1.00
4904.00,-7.81,3.39,5.16,-1.04,-1.32,1.12,-28.24,36.91,13.91,-1.00
4918.00,-7.81,3.39,5.16,-1.04,-1.32,1.12,-28.24,36.91,13.91,-1.00
4930.00,-7.34,3.25,4.77,-1.27,-1.48,1.08,-28.24,36.91,13.91,-1.00
4942.00,-7.34,3.25,4.77,-1.27,-1.48,1.08,-28.24,36.91,13.91,-1.00
4954.00,-7.66,3.04,5.78,-1.27,-1.53,1.10,-28.24,36.91,13.91,-1.00
4968.00,-6.76,3.17,5.67,-1.59,-1.51,1.09,-28.55,34.23,20.46,-1.00
4980.00,-6.76,3.17,5.67,-1.59,-1.51,1.09,-28.55,34.23,20.46,-1.00
4992.00,-6.63,2.39,5.77,-1.04,-1.25,1.17,-28.55,34.23,20.46,-1.00
5006.00,-6.94,2.43,5.42,-0.27,-0.95,1.36,-28.55,34.23,20.46,-1.00
5018.00,-6.94,2.43,5.42,-0.27,-0.95,1.36,-28.55,34.23,20.46,-1.00
5030.00,-6.74,2.56,5.97,0.03,-0.96,1.47,-28.55,34.23,20.46,-1.00
5042.00,-6.74,2.56,5.97,0.03,-0.96,1.47,-28.55,34.23,20.46,-1.00
5057.00,-6.52,2.75,7.12,0.32,-0.98,1.54,-28.55,34.23,20.46,-1.00
5068.00,-6.12,2.84,7.49,0.53,-0.79,1.56,-28.55,34.23,20.46,-1.00
5080.00,-6.12,2.84,7.49,0.53,-0.79,1.56,-28.55,34.23,20.46,-1.00
5092.00,-5.89,3.08,6.93,0.70,-0.59,1.61,-27.48,36.34,22.09,-1.00
5106.00,-5.93,3.52,6.86,0.94,-0.59,1.70,-27.48,36.34,22.09,-1.00
5118.00,-5.93,3.52,6.86,0.94,-0.59,1.70,-27.48,36.34,22.09,-1.00
5130.00,-5.50,3.99,7.52,1.24,-0.66,1.75,-27.48,36.34,22.09,-1.00
5142.00,-5.50,3.99,7.52,1.24,-0.66,1.75,-27.48,36.34,22.09,-1.00
5156.00,-5.60,4.65,7.51,1.47,-0.57,1.66,-27.48,36.34,22.09,-1.00
5168.00,-5.88,4.47,6.84,1.75,-0.27,1.39,-27.48,36.34,22.09,-1.00
5180.00,-5.88,4.47,6.84,1.75,-0.27,1.39,-27.48,36.34,22.09,-1.00
5192.00,-5.99,4.28,6.41,1.90,-0.10,1.18,-27.48,36.34,22.09,-1.00
5207.00,-6.64,4.48,6.66,1.79,-0.08,1.08,-27.02,39.59,16.45,-1.00
5218.00,-6.64,4.48,6.66,1.79,-0.08,1.08,-27.02,39.59,16.45,-1.00
5232.00,-7.35,4.38,6.42,1.67,-0.03,1.02,-27.02,39.59,16.45,-1.00
5243.00,-7.35,4.38,6.42,1.67,-0.03,1.02,-27.02,39.59,16.45,-1.00
5257.00,-7.13,4.18,4.83,1.34,0.16,1.05,-27.02,39.59,16.45,-1.00
5269.00,-7.20,4.48,4.29,0.96,0.23,1.23,-27.02,39.59,16.45,-1.00
5281.00,-7.20,4.48,4.29,0.96,0.23,1.23,-27.02,39.59,16.45,-1.00
5293.00,-7.34,4.54,3.96,0.36,0.09,1.32,-27.02,39.59,16.45,-1.00
5307.00,-7.44,4.68,4.32,0.14,-0.16,1.44,-27.02,39.59,16.45,-1.00
5319.00,-7.44,4.68,4.32,0.14,-0.16,1.44,-27.02,39.59,16.45,-1.00
5331.00,-7.17,5.22,4.58,-0.12,-0.43,1.43,-27.02,39.59,16.45,-1.00
5343.00,-7.17,5.22,4.58,-0.12,-0.43,1.43,-27.02,39.59,16.45,-1.00
5358.00,-6.80,6.06,5.03,-1.82,-0.54,1.02,-27.17,40.17,11.90,-1.00
5369.00,-7.31,4.43,5.16,-3.64,-0.80,0.28,-27.17,40.17,11.90,-1.00
5381.00,-7.31,4.43,5.16,-3.64,-0.80,0.28,-27.17,40.17,11.90,-1.00
5396.00,-7.54,2.73,5.74,-3.24,-0.89,-0.04,-27.17,40.17,11.90,-1.00
5407.00,-7.51,2.32,5.09,-2.10,-0.74,0.00,-27.17,40.17,11.90,-1.00
5419.00,-7.51,2.32,5.09,-2.10,-0.74,0.00,-27.17,40.17,11.90,-1.00
5431.00,-8.44,1.72,5.17,-0.58,-0.39,0.20,-27.17,40.17,11.90,-1.00
5445.00,-8.98,1.36,5.09,-0.52,-0.13,0.32,-27.17,40.17,11.90,-1.00
5457.00,-8.98,1.36,5.09,-0.52,-0.13,0.32,-27.17,40.17,11.90,-1.00
5469.00,-7.79,0.74,4.63,-0.62,-0.09,0.38,-29.78,30.39,19.00,-1.00
5481.00,-7.79,0.74,4.63,-0.62,-0.09,0.38,-29.78,30.39,19.00,-1.00
5495.00,-8.90,0.31,5.64,-0.33,-0.13,0.49,-29.78,30.39,19.00,-1.00
5507.00,-7.85,0.34,4.65,-0.14,-0.11,0.52,-29.78,30.39,19.00,-1.00
5519.00,-7.85,0.34,4.65,-0.14,-0.11,0.52,-29.78,30.39,19.00,-1.00
5531.00,-8.48,-0.18,4.21,0.87,-0.20,0.67,-29.78,30.39,19.00,-1.00
5546.00,-8.65,0.09,4.36,1.23,-0.48,0.91,-29.78,30.39,19.00,-1.00
5557.00,-8.65,0.09,4.36,1.23,-0.48,0.91,-29.78,30.39,19.00,-1.00
5569.00,-7.87,1.23,5.64,1.05,-0.76,1.22,-29.78,30.39,19.00,-1.00
5581.00,-7.87,1.23,5.64,1.05,-0.76,1.22,-29.78,30.39,19.00,-1.00
5595.00,-7.49,1.93,6.05,0.87,-0.68,1.47,-30.24,29.43,15.54,-1.00
5607.00,-7.14,2.46,6.02,1.03,-0.53,1.66,-30.24,29.43,15.54,-1.00
5619.00,-7.14,2.46,6.02,1.03,-0.53,1.66,-30.24,29.43,15.54,-1.00
5631.00,-7.36,2.69,5.96,1.11,-0.47,1.64,-30.24,29.43,15.54,-1.00
5645.00,-8.24,2.06,6.32,1.14,-0.42,1.44,-30.24,29.43,15.54,-1.00
5657.00,-8.24,2.06,6.32,1.14,-0.42,1.44,-30.24,29.43,15.54,-1.00
5669.00,-7.79,1.30,5.84,1.27,-0.26,1.35,-30.24,29.43,15.54,-1.00
5683.00,-7.79,1.30,5.84,1.27,-0.26,1.35,-30.24,29.43,15.54,-1.00
5695.00,-7.71,1.80,5.16,1.21,-0.18,1.51,-30.24,29.43,15.54,-1.00
5707.00,-8.15,2.54,4.70,1.06,-0.21,1.62,-30.39,30.78,13.91,-1.00
5719.00,-8.15,2.54,4.70,1.06,-0.21,1.62,-30.39,30.78,13.91,-1.00
5733.00,-8.21,2.78,4.26,0.83,-0.28,1.55,-30.39,30.78,13.91,-1.00
5745.00,-8.46,2.65,4.21,0.58,-0.36,1.42,-30.39,30.78,13.91,-1.00
5757.00,-8.46,2.65,4.21,0.58,-0.36,1.42,-30.39,30.78,13.91,-1.00
5769.00,-8.44,2.58,4.06,0.41,-0.46,1.25,-30.39,30.78,13.91,-1.00
5783.00,-8.44,2.58,4.06,0.41,-0.46,1.25,-30.39,30.78,13.91,-1.00
5795.00,-8.53,2.57,4.15,0.21,-0.60,1.06,-30.39,30.78,13.91,-1.00
5807.00,-8.63,2.06,5.11,0.14,-0.70,0.90,-30.39,30.78,13.91,-1.00
5819.00,-8.63,2.06,5.11,0.14,-0.70,0.90,-30.39,30.78,13.91,-1.00
5833.00,-8.02,1.91,5.52,0.14,-0.67,0.89,-30.39,30.78,13.91,-1.00
5845.00,-7.86,2.01,5.35,0.27,-0.58,1.00,-29.47,31.16,13.91,-1.00
5857.00,-7.86,2.01,5.35,0.27,-0.58,1.00,-29.47,31.16,12.09,-1.00
5869.00,-8.08,2.42,4.87,0.39,-0.52,1.09,-29.47,31.16,12.09,-1.00
5883.00,-8.08,2.42,4.87,0.39,-0.52,1.09,-29.47,31.16,12.09,-1.00
5895.00,-8.09,2.41,4.87,0.44,-0.54,1.13,-29.47,31.16,12.09,-1.00
5907.00,-8.02,2.31,5.06,0.37,-0.57,1.18,-29.47,31.16,12.09,-1.00
5919.00,-8.02,2.31,5.06,0.37,-0.57,1.18,-29.47,31.16,12.09,-1.00
5933.00,-8.24,1.99,5.00,0.37,-0.55,1.20,-29.47,31.16,12.09,-1.00
5945.00,-8.24,1.99,5.00,0.37,-0.55,1.20,-29.47,31.16,12.09,-1.00
5957.00,-8.40,2.01,4.98,0.44,-0.55,1.26,-29.47,31.16,12.09,-1.00
5969.00,-8.44,2.29,4.61,0.49,-0.51,1.30,-29.47,31.54,12.09,-1.00
5983.00,-8.44,2.29,4.61,0.49,-0.51,1.30,-29.47,31.54,12.09,-1.00
6071.00,-8.22,2.27,4.92,0.46,-0.53,1.24,-29.47,31.54,12.09,-1.00
6159.00,-8.32,2.85,4.15,0.33,-0.42,1.23,-28.40,30.58,11.90,-1.00
6246.00,-8.72,2.21,4.52,0.06,-0.68,0.86,-30.24,30.97,12.63,-1.00
6260.00,-8.72,2.21,4.52,0.06,-0.68,0.86,-30.24,30.97,12.63,-1.00
6272.00,-8.78,2.22,3.74,-0.13,-0.64,0.79,-30.24,30.97,12.63,-1.00
6284.00,-8.78,2.22,3.74,-0.13,-0.64,0.79,-30.24,30.97,12.63,-1.00
6298.00,-8.60,1.90,4.02,-0.14,-0.65,0.79,-30.24,30.97,12.63,-1.00
6310.00,-8.32,1.71,4.01,-0.11,-0.67,0.82,-30.24,30.97,12.63,-1.00
6322.00,-8.32,1.71,4.01,-0.11,-0.67,0.82,-30.24,30.97,12.63,-1.00
6334.00,-8.63,1.81,4.63,-0.06,-0.73,0.93,-30.24,30.97,12.63,-1.00
6348.00,-8.18,1.19,4.70,-0.12,-0.70,1.03,-30.54,30.20,11.54,-1.00
6360.00,-8.18,1.19,4.70,-0.12,-0.70,1.03,-30.54,30.20,11.54,-1.00
6372.00,-8.34,1.58,4.76,-0.02,-0.69,1.21,-30.54,30.20,11.54,-1.00
6384.00,-8.34,1.58,4.76,-0.02,-0.69,1.21,-30.54,30.20,11.54,-1.00
6398.00,-8.38,1.43,4.54,0.08,-0.63,1.30,-30.54,30.20,11.54,-1.00
6410.00,-8.32,1.79,4.57,0.11,-0.61,1.38,-30.54,30.20,11.54,-1.00
6422.00,-8.32,1.79,4.57,0.11,-0.61,1.38,-30.54,30.20,11.54,-1.00
6434.00,-8.34,1.54,5.04,0.13,-0.63,1.40,-30.54,30.20,11.54,-1.00
6448.00,-8.27,1.64,4.98,0.15,-0.58,1.47,-30.54,30.20,11.54,-1.00
6460.00,-8.27,1.64,4.98,0.15,-0.58,1.47,-30.54,30.20,11.54,-1.00
6472.00,-8.30,1.69,4.86,0.20,-0.56,1.53,-30.24,30.58,11.54,-1.00
6484.00,-8.30,1.69,4.86,0.20,-0.56,1.53,-30.24,30.58,11.54,-1.00
6498.00,-8.31,1.93,4.70,0.41,-0.53,1.60,-30.24,30.58,11.54,-1.00
6510.00,-8.16,1.98,4.47,0.54,-0.55,1.61,-30.24,30.58,11.54,-1.00
6522.00,-8.16,1.98,4.47,0.54,-0.55,1.61,-30.24,30.58,11.54,-1.00
6534.00,-8.14,2.43,4.54,0.63,-0.63,1.56,-30.24,30.58,11.54,-1.00
6548.00,-8.54,2.34,4.63,0.80,-0.69,1.42,-30.24,30.58,11.54,-1.00
6560.00,-8.54,2.34,4.63,0.80,-0.69,1.42,-30.24,30.58,11.54,-1.00
6572.00,-8.86,2.72,3.96,0.70,-0.64,1.26,-30.24,30.58,11.54,-1.00
6584.00,-8.86,2.72,3.96,0.70,-0.64,1.26,-30.24,30.58,11.54,-1.00
6598.00,-8.78,2.53,4.21,0.47,-0.65,1.06,-30.08,32.31,12.81,-1.00
6610.00,-8.81,2.38,4.45,0.31,-0.70,0.93,-30.08,32.31,12.81,-1.00
6622.00,-8.81,2.38,4.45,0.31,-0.70,0.93,-30.08,32.31,12.81,-1.00
6636.00,-8.77,2.07,4.73,0.23,-0.68,0.83,-30.08,32.31,12.81,-1.00
6648.00,-8.58,1.95,4.65,0.16,-0.64,0.77,-30.08,32.31,12.81,-1.00
6660.00,-8.58,1.95,4.65,0.16,-0.64,0.77,-30.08,32.31,12.81,-1.00
6672.00,-8.48,1.70,4.46,0.08,-0.62,0.67,-30.08,32.31,12.81,-1.00
6686.00,-8.61,2.15,3.96,0.11,-0.66,0.61,-30.08,32.31,12.81,-1.00
6698.00,-8.61,2.15,3.96,0.11,-0.66,0.61,-30.08,32.31,12.81,-1.00
6710.00,-8.80,1.77,4.92,0.25,-0.71,0.48,-30.08,32.31,12.81,-1.00
6722.00,-8.80,1.77,4.92,0.25,-0.71,0.48,-30.08,32.31,12.81,-1.00
6738.00,-8.46,1.36,4.41,0.28,-0.71,0.35,-30.24,29.82,11.90,-1.00
6749.00,-8.27,0.66,4.53,0.23,-0.73,0.32,-30.24,29.82,11.90,-1.00
6761.00,-8.27,0.66,4.53,0.23,-0.73,0.32,-30.24,29.82,11.90,-1.00
6773.00,-8.22,0.98,4.77,0.38,-0.79,0.45,-30.24,29.82,11.90,-1.00
6787.00,-8.54,0.45,4.72,0.43,-0.83,0.56,-30.24,29.82,11.90,-1.00
6799.00,-8.54,0.45,4.72,0.43,-0.83,0.56,-30.24,29.82,11.90,-1.00
6811.00,-8.26,0.68,4.93,0.44,-0.81,0.75,-30.24,29.82,11.90,-1.00
6823.00,-8.26,0.68,4.93,0.44,-0.81,0.75,-30.24,29.82,11.90,-1.00
6837.00,-8.47,0.24,5.16,0.45,-0.82,0.93,-30.24,29.82,11.90,-1.00
6849.00,-8.33,0.34,4.79,0.47,-0.74,1.13,-30.54,24.07,10.81,-1.00
6861.00,-8.33,0.34,4.79,0.47,-0.74,1.13,-30.54,24.07,10.81,-1.00
6873.00,-8.31,0.43,5.00,0.45,-0.73,1.32,-30.54,24.07,10.81,-1.00
6888.00,-8.42,0.57,5.00,0.27,-0.70,1.48,-30.54,24.07,10.81,-1.00
6974.00,-8.77,1.12,4.53,0.21,-0.47,1.53,-30.39,26.56,13.91,-1.00
7062.00,-8.70,1.57,3.49,0.07,-0.61,0.82,-30.39,26.56,13.91,-1.00
7149.00,-8.40,0.04,5.02,0.34,-0.66,1.25,-30.70,25.41,13.18,-1.00
7162.00,-8.40,0.04,5.02,0.34,-0.66,1.25,-30.70,25.41,13.18,-1.00
7174.00,-8.31,-0.07,4.05,0.53,-0.61,1.43,-30.70,25.41,13.18,-1.00
7186.00,-8.31,-0.07,4.05,0.53,-0.61,1.43,-30.70,25.41,13.18,-1.00
7198.00,-8.68,0.16,3.14,0.60,-0.70,1.60,-30.70,25.41,13.18,-1.00
7212.00,-9.49,1.17,3.15,0.49,-1.00,1.76,-30.70,25.41,13.18,-1.00
7224.00,-9.49,1.17,3.15,0.49,-1.00,1.76,-30.70,25.41,13.18,-1.00
7236.00,-8.56,1.61,4.70,0.23,-1.45,1.77,-30.39,28.48,15.00,-1.00
7250.00,-7.86,1.44,5.98,0.13,-1.59,1.63,-30.39,28.48,15.00,-1.00
7262.00,-7.86,1.44,5.98,0.13,-1.59,1.63,-30.39,28.48,15.00,-1.00
7274.00,-7.56,1.16,6.63,0.07,-1.37,1.52,-30.39,28.48,15.00,-1.00
7286.00,-7.56,1.16,6.63,0.07,-1.37,1.52,-30.39,28.48,15.00,-1.00
7300.00,-6.94,1.17,7.49,0.12,-1.06,1.50,-30.39,28.48,15.00,-1.00
7312.00,-6.80,1.38,7.64,0.17,-0.62,1.49,-30.39,28.48,15.00,-1.00
7324.00,-6.80,1.38,7.64,0.17,-0.62,1.49,-30.39,28.48,15.00,-1.00
7336.00,-8.24,1.63,7.03,0.33,-0.14,1.38,-30.39,28.48,15.00,-1.00
7350.00,-9.22,1.24,4.84,0.47,0.27,1.18,-30.39,28.48,15.73,-1.00
7362.00,-9.22,1.24,4.84,0.47,0.27,1.18,-30.39,28.48,15.73,-1.00
7374.00,-8.50,0.37,2.46,0.25,0.09,1.12,-30.39,28.48,15.73,-1.00
7386.00,-8.50,0.37,2.46,0.25,0.09,1.12,-30.39,28.48,15.73,-1.00
7400.00,-8.34,-0.29,3.69,0.14,-0.41,1.34,-30.39,28.48,15.73,-1.00
7412.00,-8.26,0.20,4.29,0.39,-0.63,1.69,-30.39,28.48,15.73,-1.00
7424.00,-8.26,0.20,4.29,0.39,-0.63,1.69,-30.39,28.48,15.73,-1.00
7436.00,-9.72,1.11,4.06,0.76,-0.79,1.94,-30.39,28.48,15.73,-1.00
7450.00,-9.47,2.33,3.68,0.74,-1.11,1.93,-30.39,28.48,15.73,-1.00
7462.00,-9.47,2.33,3.68,0.74,-1.11,1.93,-30.39,28.48,15.73,-1.00
7474.00,-8.87,2.63,4.87,0.46,-1.39,1.66,-29.16,30.78,14.63,-1.00
7487.00,-8.47,2.64,5.77,0.16,-1.24,1.26,-29.16,30.78,14.63,-1.00
7501.00,-8.47,2.64,5.77,0.16,-1.24,1.26,-29.16,30.78,14.63,-1.00
7513.00,-7.50,2.72,5.27,-0.11,-0.82,0.81,-29.16,30.78,14.63,-1.00
7525.00,-7.50,2.72,5.27,-0.11,-0.82,0.81,-29.16,30.78,14.63,-1.00
7537.00,-7.35,1.92,5.49,-0.05,-0.56,0.45,-29.16,30.78,14.63,-1.00
7551.00,-7.47,0.96,5.47,0.17,-0.52,0.29,-29.16,30.78,14.63,-1.00
7563.00,-7.47,0.96,5.47,0.17,-0.52,0.29,-29.16,30.78,14.63,-1.00
7575.00,-7.19,0.11,6.66,0.50,-0.70,0.37,-29.16,30.78,14.63,-1.00
7587.00,-7.32,-0.04,7.55,0.75,-0.78,0.65,-30.24,26.75,17.00,-1.00
7601.00,-7.32,-0.04,7.55,0.75,-0.78,0.65,-30.24,26.75,17.00,-1.00
7613.00,-7.90,0.21,6.28,0.77,-0.60,0.95,-30.24,26.75,17.00,-1.00
7625.00,-7.90,0.21,6.28,0.77,-0.60,0.95,-30.24,26.75,17.00,-1.00
7640.00,-8.42,0.56,4.95,0.72,-0.39,1.20,-30.24,26.75,17.00,-1.00
7651.00,-8.53,0.95,4.24,0.66,-0.41,1.34,-30.24,26.75,17.00,-1.00
7663.00,-8.53,0.95,4.24,0.66,-0.41,1.34,-30.24,26.75,17.00,-1.00
7675.00,-8.58,1.29,4.37,0.60,-0.54,1.37,-30.24,26.75,17.00,-1.00
7689.00,-8.44,1.34,5.07,0.49,-0.63,1.30,-30.24,26.75,17.00,-1.00
7701.00,-8.44,1.34,5.07,0.49,-0.63,1.30,-30.24,26.75,17.00,-1.00
7713.00,-8.13,1.28,5.63,0.45,-0.60,1.20,-30.24,26.75,17.00,-1.00
7725.00,-8.13,1.28,5.63,0.45,-0.60,1.20,-30.24,26.75,17.00,-1.00
7739.00,-8.04,1.67,6.08,0.46,-0.46,1.11,-30.39,26.94,15.73,-1.00
7751.00,-9.51,1.48,5.24,0.43,-0.25,0.92,-30.39,26.94,15.73,-1.00
7763.00,-9.51,1.48,5.24,0.43,-0.25,0.92,-30.39,26.94,15.73,-1.00
7775.00,-8.61,1.15,3.97,0.22,-0.23,0.76,-30.39,26.94,15.73,-1.00
7789.00,-8.52,-0.06,3.76,0.25,-0.39,0.78,-30.39,26.94,15.73,-1.00
7801.00,-8.52,-0.06,3.76,0.25,-0.39,0.78,-30.39,26.94,15.73,-1.00
7813.00,-8.51,0.46,4.54,0.22,-0.57,1.02,-30.39,26.94,15.73,-1.00
7825.00,-8.51,0.46,4.54,0.22,-0.57,1.02,-30.39,26.94,15.73,-1.00
7839.00,-8.13,-0.01,5.10,0.15,-0.63,1.23,-30.39,26.94,15.73,-1.00
7851.00,-8.24,0.47,5.12,0.25,-0.63,1.44,-29.93,26.75,14.45,-1.00
7863.00,-8.24,0.47,5.12,0.25,-0.63,1.44,-29.93,26.75,14.45,-1.00
7875.00,-8.16,0.84,4.88,0.41,-0.61,1.56,-29.93,26.75,14.45,-1.00
7889.00,-8.42,1.28,4.92,0.54,-0.64,1.60,-29.93,26.75,14.45,-1.00
7901.00,-8.42,1.28,4.92,0.54,-0.64,1.60,-29.93,26.75,14.45,-1.00
7913.00,-8.54,1.69,4.59,0.58,-0.67,1.48,-29.93,26.75,14.45,-1.00
7925.00,-8.54,1.69,4.59,0.58,-0.67,1.48,-29.93,26.75,14.45,-1.00
7939.00,-8.55,1.31,4.82,0.60,-0.71,1.27,-29.93,26.75,14.45,-1.00
7951.00,-8.55,1.35,4.88,0.58,-0.70,1.13,-29.93,26.75,14.45,-1.00
7963.00,-8.55,1.35,4.88,0.58,-0.70,1.13,-29.93,26.75,14.45,-1.00
7975.00,-8.75,1.52,5.15,0.54,-0.70,1.03,-29.93,29.05,12.27,-1.00
7989.00,-8.82,1.49,4.93,0.44,-0.67,0.86,-29.93,29.05,12.27,-1.00
8001.00,-8.82,1.49,4.93,0.44,-0.67,0.86,-29.93,29.05,12.27,-1.00
8013.00,-8.58,1.62,4.36,0.33,-0.64,0.72,-29.93,29.05,12.27,-1.00
8027.00,-8.58,1.62,4.36,0.33,-0.64,0.72,-29.93,29.05,12.27,-1.00
8039.00,-8.51,0.68,4.72,0.18,-0.71,0.62,-29.93,29.05,12.27,-1.00
8051.00,-8.48,0.05,5.06,0.14,-0.73,0.71,-29.93,29.05,12.27,-1.00
8063.00,-8.48,0.05,5.06,0.14,-0.73,0.71,-29.93,29.05,12.27,-1.00
8078.00,-8.25,-0.35,4.88,0.14,-0.65,0.95,-29.93,29.05,12.27,-1.00
8089.00,-8.19,-0.04,5.00,0.17,-0.63,1.27,-30.39,26.18,14.63,-1.00
8101.00,-8.19,-0.04,5.00,0.17,-0.63,1.27,-30.39,26.18,14.63,-1.00
8113.00,-8.06,0.69,5.15,0.29,-0.62,1.54,-30.39,26.18,14.63,-1.00
8127.00,-8.06,0.69,5.15,0.29,-0.62,1.54,-30.39,26.18,14.63,-1.00
8139.00,-8.11,0.67,5.28,0.41,-0.62,1.64,-30.39,26.18,14.63,-1.00
8151.00,-8.39,1.07,5.29,0.46,-0.63,1.65,-30.39,26.18,14.63,-1.00
8163.00,-8.39,1.07,5.29,0.46,-0.63,1.65,-30.39,26.18,14.63,-1.00
8177.00,-8.78,1.85,4.89,0.49,-0.62,1.50,-30.39,26.18,14.63,-1.00
8189.00,-8.76,1.69,4.66,0.47,-0.58,1.21,-30.39,26.18,14.63,-1.00
8201.00,-8.76,1.69,4.66,0.47,-0.58,1.21,-30.39,26.18,14.63,-1.00
8213.00,-8.79,1.47,4.77,0.34,-0.59,0.94,-30.39,26.18,14.63,-1.00
8228.00,-8.79,1.47,4.77,0.34,-0.59,0.94,-30.39,26.18,14.63,-1.00
8239.00,-8.55,0.67,4.13,0.19,-0.60,0.74,-30.24,27.52,14.45,-1.00
8251.00,-8.40,0.39,4.04,0.15,-0.66,0.77,-30.24,27.52,14.45,-1.00
8263.00,-8.40,0.39,4.04,0.15,-0.66,0.77,-30.24,27.52,14.45,-1.00
8277.00,-8.43,0.07,4.89,0.15,-0.75,0.91,-30.24,27.52,14.45,-1.00
8289.00,-8.37,-0.10,5.13,0.18,-0.75,1.10,-30.24,27.52,14.45,-1.00
8301.00,-8.37,-0.10,5.13,0.18,-0.75,1.10,-30.24,27.52,14.45,-1.00
8313.00,-8.25,0.43,5.06,0.25,-0.68,1.32,-30.24,27.52,14.45,-1.00
8327.00,-8.25,0.43,5.06,0.25,-0.68,1.32,-30.24,27.52,14.45,-1.00
8339.00,-8.10,0.87,5.30,0.28,-0.68,1.41,-30.24,27.52,14.45,-1.00
8351.00,-8.12,0.04,5.80,0.35,-0.69,1.42,-29.32,27.13,14.82,-1.00
8365.00,-8.12,0.04,5.80,0.35,-0.69,1.42,-29.32,27.13,14.82,-1.00
8377.00,-8.09,0.31,5.58,0.43,-0.59,1.58,-29.32,27.13,14.82,-1.00
8389.00,-8.07,0.67,5.28,0.42,-0.56,1.68,-29.32,27.13,14.82,-1.00
8401.00,-8.07,0.67,5.28,0.42,-0.56,1.68,-29.32,27.13,14.82,-1.00
8416.00,-8.79,1.83,4.35,0.45,-0.56,1.65,-29.32,27.13,14.82,-1.00
8427.00,-8.79,1.83,4.35,0.45,-0.56,1.65,-29.32,27.13,14.82,-1.00
8439.00,-8.18,2.11,3.13,0.52,-0.57,1.36,-29.32,27.13,14.82,-1.00
8451.00,-8.96,1.56,3.51,0.54,-0.86,1.00,-29.32,27.13,14.82,-1.00
8465.00,-8.96,1.56,3.51,0.54,-0.86,1.00,-29.32,27.13,14.82,-1.00
8477.00,-9.33,0.57,6.25,0.28,-1.05,0.74,-29.78,28.86,16.82,-1.00
8489.00,-8.64,0.12,4.87,0.03,-0.85,0.66,-29.78,28.86,16.82,-1.00
8501.00,-8.64,0.12,4.87,0.03,-0.85,0.66,-29.78,28.86,16.82,-1.00
8515.00,-8.22,0.06,4.56,0.01,-0.83,0.87,-29.78,28.86,16.82,-1.00
8527.00,-8.22,0.06,4.56,0.01,-0.83,0.87,-29.78,28.86,16.82,-1.00
8539.00,-8.11,0.45,4.99,0.08,-0.91,1.14,-29.78,28.86,16.82,-1.00
8551.00,-7.77,0.75,4.86,0.18,-0.84,1.32,-29.78,28.86,16.82,-1.00
8566.00,-7.77,0.75,4.86,0.18,-0.84,1.32,-29.78,28.86,16.82,-1.00
8577.00,-7.62,0.91,6.00,0.35,-0.88,1.39,-29.78,28.86,16.82,-1.00
8589.00,-7.71,0.47,6.72,0.45,-0.78,1.36,-29.01,27.90,17.00,-1.00
8601.00,-7.71,0.47,6.72,0.45,-0.78,1.36,-29.01,27.90,17.00,-1.00
8615.00,-7.78,0.20,6.56,0.56,-0.55,1.37,-29.01,27.90,17.00,-1.00
8704.00,-8.64,1.07,4.19,0.37,-0.40,1.17,-29.01,27.90,17.00,-1.00
8792.00,-8.46,0.25,4.77,0.20,-0.71,0.85,-30.70,25.03,15.00,-1.00
8880.00,-8.09,0.53,5.10,0.47,-0.59,1.63,-29.93,26.75,15.91,-1.00
8895.00,-8.42,0.81,4.98,0.44,-0.61,1.70,-29.93,26.75,15.91,-1.00
8906.00,-8.42,0.81,4.98,0.44,-0.61,1.70,-29.93,26.75,15.91,-1.00
8918.00,-8.92,1.93,4.96,0.43,-0.61,1.64,-29.93,26.75,15.91,-1.00
8930.00,-8.71,1.31,4.47,0.39,-0.56,1.31,-29.93,26.75,15.91,-1.00
8944.00,-8.71,1.31,4.47,0.39,-0.56,1.31,-29.93,26.75,15.91,-1.00
8956.00,-8.76,1.36,4.64,0.49,-0.56,1.10,-29.93,26.75,15.91,-1.00
8968.00,-8.76,1.36,4.64,0.49,-0.56,1.10,-29.93,26.75,15.91,-1.00
8982.00,-8.74,1.57,4.41,0.33,-0.59,0.88,-30.70,29.63,16.09,-1.00
8994.00,-8.42,0.41,4.18,0.17,-0.62,0.64,-30.70,29.63,16.09,-1.00
9006.00,-8.42,0.41,4.18,0.17,-0.62,0.64,-30.70,29.63,16.09,-1.00
9018.00,-8.44,0.38,4.38,0.25,-0.72,0.71,-30.70,29.63,16.09,-1.00
9032.00,-8.46,-0.03,4.92,0.18,-0.78,0.87,-30.70,29.63,16.09,-1.00
9044.00,-8.46,-0.03,4.92,0.18,-0.78,0.87,-30.70,29.63,16.09,-1.00
9056.00,-8.25,-0.20,5.08,0.18,-0.71,1.06,-30.70,29.63,16.09,-1.00
9068.00,-8.25,-0.20,5.08,0.18,-0.71,1.06,-30.70,29.63,16.09,-1.00
9082.00,-8.18,0.16,5.39,0.22,-0.71,1.29,-30.70,29.63,16.09,-1.00
9094.00,-8.08,-0.09,5.64,0.30,-0.69,1.42,-30.70,29.63,16.09,-1.00
9106.00,-8.08,-0.09,5.64,0.30,-0.69,1.42,-30.70,29.63,16.09,-1.00
9118.00,-7.99,0.05,5.57,0.48,-0.59,1.60,-29.47,27.71,15.36,-1.00
9132.00,-8.41,0.47,5.19,0.50,-0.54,1.73,-29.47,27.71,15.36,-1.00
9144.00,-8.41,0.47,5.19,0.50,-0.54,1.73,-29.47,27.71,15.36,-1.00
9156.00,-8.97,1.97,4.58,0.49,-0.51,1.70,-29.47,27.71,15.36,-1.00
9168.00,-8.97,1.97,4.58,0.49,-0.51,1.70,-29.47,27.71,15.36,-1.00
9182.00,-8.83,1.69,3.85,0.49,-0.50,1.36,-29.47,27.71,15.36,-1.00
9194.00,-9.14,2.39,4.25,0.50,-0.57,1.06,-29.47,27.71,15.36,-1.00
9206.00,-9.14,2.39,4.25,0.50,-0.57,1.06,-29.47,27.71,15.36,-1.00
9218.00,-8.61,1.21,3.95,0.19,-0.68,0.61,-29.47,27.71,15.36,-1.00
9232.00,-8.24,-0.50,4.43,0.15,-0.78,0.47,-31.00,26.94,16.09,-1.00
9244.00,-8.24,-0.50,4.43,0.15,-0.78,0.47,-31.00,26.94,16.09,-1.00
9256.00,-8.11,-1.17,5.34,0.30,-0.84,0.72,-31.00,26.94,16.09,-1.00
9268.00,-8.11,-1.17,5.34,0.30,-0.84,0.72,-31.00,26.94,16.09,-1.00
9282.00,-8.22,-1.35,5.79,0.59,-0.78,1.08,-31.00,26.94,16.09,-1.00
9294.00,-9.22,-0.18,4.37,0.84,-0.59,1.52,-31.00,26.94,16.09,-1.00
9306.00,-9.22,-0.18,4.37,0.84,-0.59,1.52,-31.00,26.94,16.09,-1.00
9320.00,-8.95,1.09,4.02,0.81,-0.68,1.72,-31.00,26.94,16.09,-1.00
9332.00,-8.81,1.27,4.81,0.65,-0.91,1.70,-31.00,26.94,16.09,-1.00
9344.00,-8.81,1.27,4.81,0.65,-0.91,1.70,-31.00,26.94,16.09,-1.00
9356.00,-8.53,1.50,4.39,0.47,-0.89,1.63,-29.62,29.05,16.27,-1.00
9370.00,-8.27,1.88,3.92,0.25,-0.69,1.54,-29.62,29.05,16.27,-1.00
9382.00,-8.27,1.88,3.92,0.25,-0.69,1.54,-29.62,29.05,16.27,-1.00
9394.00,-8.30,1.60,4.60,0.21,-0.68,1.41,-29.62,29.05,16.27,-1.00
9406.00,-8.30,1.60,4.60,0.21,-0.68,1.41,-29.62,29.05,16.27,-1.00
9420.00,-8.02,0.84,5.67,0.30,-0.81,1.28,-29.62,29.05,16.27,-1.00
9432.00,-7.34,0.64,6.48,0.43,-0.93,1.25,-29.62,29.05,16.27,-1.00
9444.00,-7.34,0.64,6.48,0.43,-0.93,1.25,-29.62,29.05,16.27,-1.00
9456.00,-7.68,0.96,6.96,0.45,-0.92,1.22,-29.62,29.05,16.27,-1.00
9470.00,-8.03,1.09,6.46,0.42,-0.71,1.15,-29.16,30.01,16.45,-1.00
9482.00,-8.03,1.09,6.46,0.42,-0.71,1.15,-29.16,30.01,16.45,-1.00
9494.00,-8.30,1.09,5.24,0.46,-0.43,1.09,-29.16,30.01,16.45,-1.00
9506.00,-8.30,1.09,5.24,0.46,-0.43,1.09,-29.16,30.01,16.45,-1.00
9520.00,-8.26,0.98,5.18,0.47,-0.31,1.08,-29.16,30.01,16.45,-1.00
9532.00,-8.30,0.74,5.16,0.49,-0.24,1.12,-29.16,30.01,16.45,-1.00
9544.00,-8.30,0.74,5.16,0.49,-0.24,1.12,-29.16,30.01,16.45,-1.00
9556.00,-8.56,0.78,4.19,0.44,-0.26,1.18,-29.16,30.01,16.45,-1.00
9571.00,-8.72,0.75,4.13,0.33,-0.43,1.24,-29.16,30.01,16.45,-1.00
9658.00,-8.63,1.22,4.58,0.25,-0.46,1.31,-29.78,29.24,15.36,-1.00
9746.00,-8.49,-0.02,5.05,0.14,-0.91,0.58,-29.93,27.90,15.54,-1.00
9835.00,-8.12,0.11,5.28,0.50,-0.60,1.61,-29.93,27.90,15.54,-1.00
9848.00,-8.12,0.11,5.28,0.50,-0.60,1.61,-29.93,27.90,15.54,-1.00
9860.00,-8.43,0.56,5.53,0.49,-0.59,1.75,-30.39,27.71,15.36,-1.00
9872.00,-9.09,1.81,4.98,0.29,-0.57,1.70,-30.39,27.71,15.36,-1.00
9884.00,-9.09,1.81,4.98,0.29,-0.57,1.70,-30.39,27.71,15.36,-1.00
9899.00,-8.90,1.92,3.84,0.21,-0.49,1.36,-30.39,27.71,15.36,-1.00
9910.00,-9.07,2.08,3.95,0.11,-0.55,1.04,-30.39,27.71,15.36,-1.00
9922.00,-9.07,2.08,3.95,0.11,-0.55,1.04,-30.39,27.71,15.36,-1.00
9936.00,-8.67,0.83,3.90,-0.11,-0.68,0.71,-30.39,27.71,15.36,-1.00
9948.00,-8.67,0.83,3.90,-0.11,-0.68,0.71,-30.39,27.71,15.36,-1.00
9960.00,-8.44,-0.56,4.93,-0.14,-0.77,0.68,-30.39,27.71,15.36,-1.00
9972.00,-8.15,-0.72,5.23,-0.03,-0.75,0.96,-29.62,28.28,17.36,-1.00
9986.00,-8.15,-0.72,5.23,-0.03,-0.75,0.96,-29.62,28.28,17.36,-1.00
9998.00,-8.19,0.04,5.35,0.18,-0.67,1.31,-29.62,28.28,17.36,-1.00
10010.00,-8.04,0.37,4.99,0.35,-0.63,1.47,-29.62,28.28,17.36,-1.00
10022.00,-8.04,0.37,4.99,0.35,-0.63,1.47,-29.62,28.28,17.36,-1.00
10036.00,-8.15,0.26,5.18,0.55,-0.64,1.51,-29.62,28.28,17.36,-1.00
10048.00,-8.15,0.26,5.18,0.55,-0.64,1.51,-29.62,28.28,17.36,-1.00
10060.00,-8.71,0.77,5.17,0.61,-0.65,1.49,-29.62,28.28,17.36,-1.00
10072.00,-8.75,1.18,4.78,0.56,-0.60,1.37,-29.62,28.28,17.36,-1.00
10087.00,-8.75,1.18,4.78,0.56,-0.60,1.37,-29.62,28.28,17.36,-1.00
10098.00,-8.69,1.19,4.27,0.51,-0.57,1.21,-29.62,28.28,17.36,-1.00
10110.00,-8.57,0.64,4.76,0.49,-0.63,1.08,-30.08,28.86,15.73,-1.00
10122.00,-8.57,0.64,4.76,0.49,-0.63,1.08,-30.08,28.86,15.73,-1.00
10136.00,-8.61,0.37,5.30,0.48,-0.64,1.09,-30.08,28.86,15.73,-1.00
10148.00,-8.61,0.37,5.30,0.48,-0.64,1.09,-30.08,28.86,15.73,-1.00
10160.00,-8.56,0.23,5.26,0.48,-0.54,1.16,-30.08,28.86,15.73,-1.00
10172.00,-8.52,0.46,5.05,0.52,-0.44,1.26,-30.08,28.86,15.73,-1.00
10186.00,-8.52,0.46,5.05,0.52,-0.44,1.26,-30.08,28.86,15.73,-1.00
10198.00,-8.52,0.86,4.23,0.60,-0.39,1.31,-30.08,28.86,15.73,-1.00
10210.00,-8.49,1.08,3.69,0.59,-0.46,1.28,-30.08,28.86,15.73,-1.00
10224.00,-8.49,1.08,3.69,0.59,-0.46,1.28,-30.08,28.86,15.73,-1.00
10236.00,-8.59,1.00,4.13,0.65,-0.61,1.23,-30.85,27.90,15.18,-1.00
10248.00,-8.59,1.00,4.13,0.65,-0.61,1.23,-30.85,27.90,15.18,-1.00
10260.00,-8.78,1.52,4.74,0.53,-0.74,1.15,-30.85,27.90,15.18,-1.00
10274.00,-8.88,1.30,4.60,0.27,-0.77,0.90,-30.85,27.90,15.18,-1.00
10286.00,-8.88,1.30,4.60,0.27,-0.77,0.90,-30.85,27.90,15.18,-1.00
10298.00,-8.76,0.55,4.21,0.22,-0.73,0.74,-30.85,27.90,15.18,-1.00
10310.00,-8.59,0.35,4.18,0.24,-0.75,0.80,-30.85,27.90,15.18,-1.00
10324.00,-8.59,0.35,4.18,0.24,-0.75,0.80,-30.85,27.90,15.18,-1.00
10336.00,-8.41,-0.07,4.55,0.27,-0.78,0.92,-30.85,27.90,15.18,-1.00
10348.00,-8.41,-0.07,4.55,0.27,-0.78,0.92,-30.85,27.90,15.18,-1.00
10360.00,-8.61,-0.23,5.23,0.29,-0.79,1.13,-29.78,28.09,15.73,-1.00
10374.00,-8.21,0.20,4.98,0.28,-0.71,1.36,-29.78,28.09,15.73,-1.00
10386.00,-8.21,0.20,4.98,0.28,-0.71,1.36,-29.78,28.09,15.73,-1.00
10398.00,-8.31,0.16,5.19,0.33,-0.74,1.47,-29.78,28.09,15.73,-1.00
10410.00,-8.35,0.78,4.94,0.45,-0.71,1.54,-29.78,28.09,15.73,-1.00
10424.00,-8.35,0.78,4.94,0.45,-0.71,1.54,-29.78,28.09,15.73,-1.00
10436.00,-8.28,0.18,5.71,0.38,-0.71,1.53,-29.78,28.09,15.73,-1.00
10448.00,-8.28,0.18,5.71,0.38,-0.71,1.53,-29.78,28.09,15.73,-1.00
10462.00,-8.74,0.74,5.51,0.18,-0.62,1.55,-29.78,28.09,15.73,-1.00
10474.00,-8.83,1.06,4.92,0.12,-0.49,1.48,-29.62,29.82,16.64,-1.00
10486.00,-8.83,1.06,4.92,0.12,-0.49,1.48,-29.62,29.82,16.64,-1.00
10498.00,-8.81,1.36,4.07,0.22,-0.43,1.35,-29.62,29.82,16.64,-1.00
10513.00,-8.81,1.59,4.12,0.30,-0.50,1.17,-29.62,29.82,16.64,-1.00
10524.00,-8.81,1.59,4.12,0.30,-0.50,1.17,-29.62,29.82,16.64,-1.00
10536.00,-8.70,1.42,4.21,0.24,-0.59,0.94,-29.62,29.82,16.64,-1.00
10548.00,-8.70,1.42,4.21,0.24,-0.59,0.94,-29.62,29.82,16.64,-1.00
10562.00,-8.43,0.52,4.10,0.20,-0.69,0.76,-29.62,29.82,16.64,-1.00
10574.00,-8.34,0.03,4.92,0.25,-0.81,0.74,-29.62,29.82,16.64,-1.00
10586.00,-8.34,0.03,4.92,0.25,-0.81,0.74,-29.62,29.82,16.64,-1.00
10598.00,-8.36,-0.30,5.60,0.34,-0.81,0.86,-29.62,29.82,16.64,-1.00
10612.00,-8.38,-0.39,5.46,0.38,-0.69,1.07,-29.16,29.24,16.45,-1.00
10624.00,-8.38,-0.39,5.46,0.38,-0.69,1.07,-29.16,29.24,16.45,-1.00
10636.00,-8.48,0.30,4.81,0.40,-0.59,1.27,-29.16,29.24,16.45,-1.00
10648.00,-8.48,0.30,4.81,0.40,-0.59,1.27,-29.16,29.24,16.45,-1.00
10663.00,-8.57,0.74,4.43,0.41,-0.59,1.31,-29.16,29.24,16.45,-1.00
10674.00,-8.62,0.78,4.50,0.44,-0.62,1.26,-29.16,29.24,16.45,-1.00
10687.00,-8.62,0.78,4.50,0.44,-0.62,1.26,-29.16,29.24,16.45,-1.00
10700.00,-8.57,0.52,4.69,0.45,-0.65,1.18,-29.16,29.24,16.45,-1.00
10712.00,-8.56,0.49,4.87,0.42,-0.67,1.16,-29.16,29.24,16.45,-1.00
10724.00,-8.56,0.49,4.87,0.42,-0.67,1.16,-29.16,29.24,16.45,-1.00
10736.00,-8.56,0.44,4.66,0.39,-0.66,1.16,-28.55,28.86,16.45,-1.00
10750.00,-8.53,0.23,4.85,0.36,-0.67,1.17,-28.55,28.86,16.45,-1.00
10762.00,-8.53,0.23,4.85,0.36,-0.67,1.17,-28.55,28.86,16.45,-1.00
10774.00,-8.50,0.07,4.93,0.30,-0.68,1.20,-28.55,28.86,16.45,-1.00
10786.00,-8.50,0.07,4.93,0.30,-0.68,1.20,-28.55,28.86,16.45,-1.00
10800.00,-8.34,0.24,4.97,0.23,-0.68,1.27,-28.55,28.86,16.45,-1.00
10812.00,-8.53,0.15,5.11,0.18,-0.68,1.34,-28.55,28.86,16.45,-1.00
10824.00,-8.53,0.15,5.11,0.18,-0.68,1.34,-28.55,28.86,16.45,-1.00
10836.00,-8.60,-0.11,4.95,0.14,-0.62,1.46,-28.55,28.86,16.45,-1.00
10851.00,-8.84,0.72,4.68,0.23,-0.53,1.64,-29.78,27.71,14.27,-1.00
10862.00,-8.84,0.72,4.68,0.23,-0.53,1.64,-29.78,27.71,14.27,-1.00
10874.00,-8.73,1.45,4.23,0.25,-0.49,1.59,-29.78,27.71,14.27,-1.00
10886.00,-8.73,1.45,4.23,0.25,-0.49,1.59,-29.78,27.71,14.27,-1.00
10900.00,-8.80,1.26,4.57,0.19,-0.55,1.33,-29.78,27.71,14.27,-1.00
10912.00,-8.70,1.38,4.03,0.19,-0.56,1.09,-29.78,27.71,14.27,-1.00
10924.00,-8.70,1.38,4.03,0.19,-0.56,1.09,-29.78,27.71,14.27,-1.00
10938.00,-8.61,1.14,3.92,0.07,-0.68,0.82,-29.78,27.71,14.27,-1.00
10950.00,-8.61,1.14,3.92,0.07,-0.68,0.82,-29.78,27.71,14.27,-1.00
10962.00,-8.60,0.30,4.56,-0.04,-0.83,0.62,-29.78,27.71,14.27,-1.00
10974.00,-8.32,-0.74,4.72,-0.06,-0.86,0.66,-30.54,29.05,17.00,-1.00
10988.00,-8.32,-0.74,4.72,-0.06,-0.86,0.66,-30.54,29.05,17.00,-1.00
11000.00,-8.44,-0.80,5.83,0.06,-0.83,0.92,-30.54,29.05,17.00,-1.00
11012.00,-8.11,-0.83,5.27,0.12,-0.67,1.19,-30.54,29.05,17.00,-1.00
11024.00,-8.11,-0.83,5.27,0.12,-0.67,1.19,-30.54,29.05,17.00,-1.00
11038.00,-8.34,-0.20,4.99,0.33,-0.61,1.48,-30.54,29.05,17.00,-1.00
11050.00,-8.34,-0.20,4.99,0.33,-0.61,1.48,-30.54,29.05,17.00,-1.00
11062.00,-8.26,0.00,5.01,0.56,-0.57,1.62,-30.54,29.05,17.00,-1.00
11074.00,-8.72,0.46,5.34,0.74,-0.55,1.67,-30.54,29.05,17.00,-1.00
11088.00,-8.72,0.46,5.34,0.74,-0.55,1.67,-30.54,29.05,17.00,-1.00
11100.00,-8.80,1.20,4.51,0.63,-0.50,1.53,-30.54,29.05,17.00,-1.00
11112.00,-8.89,1.30,4.20,0.56,-0.51,1.24,-29.47,29.63,17.55,-1.00
11124.00,-8.89,1.30,4.20,0.56,-0.51,1.24,-29.47,29.63,17.55,-1.00
11138.00,-8.68,1.09,3.91,0.33,-0.59,1.01,-29.47,29.63,17.55,-1.00
11150.00,-8.68,1.09,3.91,0.33,-0.59,1.01,-29.47,29.63,17.55,-1.00
11162.00,-8.65,0.26,4.43,0.22,-0.70,0.84,-29.47,29.63,17.55,-1.00
11176.00,-8.53,-0.37,4.80,0.18,-0.76,0.87,-29.47,29.63,17.55,-1.00
11188.00,-8.53,-0.37,4.80,0.18,-0.76,0.87,-29.47,29.63,17.55,-1.00
11200.00,-8.40,-0.33,5.01,0.19,-0.74,1.04,-29.47,29.63,17.55,-1.00
11212.00,-8.50,-0.14,4.98,0.20,-0.71,1.22,-29.47,29.63,17.55,-1.00
11226.00,-8.50,-0.14,4.98,0.20,-0.71,1.22,-29.47,29.63,17.55,-1.00
11238.00,-8.44,0.25,4.85,0.20,-0.68,1.32,-28.55,28.09,17.18,-1.00
11250.00,-8.44,0.25,4.85,0.20,-0.68,1.32,-28.55,28.09,17.18,-1.00
11262.00,-8.36,-0.01,5.25,0.23,-0.71,1.36,-28.55,28.09,17.18,-1.00
11277.00,-7.96,-0.61,5.45,0.30,-0.67,1.46,-28.55,28.09,17.18,-1.00
11365.00,-8.96,1.35,2.89,0.83,-0.67,1.17,-29.16,30.39,16.45,-1.00
11453.00,-7.69,0.97,5.16,0.40,-0.87,1.38,-29.16,30.39,16.45,-1.00
11540.00,-8.29,0.34,5.18,0.52,-0.35,1.33,-29.78,29.63,19.36,-1.00
11554.00,-8.32,0.64,5.18,0.55,-0.26,1.40,-29.78,29.63,19.36,-1.00
11566.00,-8.32,0.64,5.18,0.55,-0.26,1.40,-29.78,29.63,19.36,-1.00
11578.00,-8.97,1.14,4.28,0.50,-0.23,1.37,-29.78,29.63,19.36,-1.00
11592.00,-8.77,0.79,4.35,0.29,-0.39,1.20,-29.78,29.63,19.36,-1.00
11604.00,-8.77,0.79,4.35,0.29,-0.39,1.20,-29.78,29.63,19.36,-1.00
11616.00,-8.56,0.48,4.48,0.22,-0.49,1.10,-28.40,29.82,16.64,-1.00
11628.00,-8.56,0.48,4.48,0.22,-0.49,1.10,-28.40,29.82,16.64,-1.00
11642.00,-8.62,0.18,4.08,0.33,-0.52,1.07,-28.40,29.82,16.64,-1.00
11654.00,-8.76,0.88,4.50,0.44,-0.58,1.05,-28.40,29.82,16.64,-1.00
11666.00,-8.76,0.88,4.50,0.44,-0.58,1.05,-28.40,29.82,16.64,-1.00
11678.00,-8.76,0.62,4.30,0.37,-0.61,0.96,-28.40,29.82,16.64,-1.00
11692.00,-8.35,0.20,4.25,0.27,-0.65,0.92,-28.40,29.82,16.64,-1.00
11704.00,-8.35,0.20,4.25,0.27,-0.65,0.92,-28.40,29.82,16.64,-1.00
11716.00,-8.42,0.12,4.85,0.22,-0.73,1.00,-28.40,29.82,16.64,-1.00
11728.00,-8.42,0.12,4.85,0.22,-0.73,1.00,-28.40,29.82,16.64,-1.00
11742.00,-8.42,-0.14,5.19,0.19,-0.76,1.14,-28.70,29.05,16.64,-1.00
11754.00,-8.31,-0.32,5.55,0.23,-0.72,1.31,-28.70,29.05,16.64,-1.00
11766.00,-8.31,-0.32,5.55,0.23,-0.72,1.31,-28.70,29.05,16.64,-1.00
11778.00,-8.30,0.22,5.47,0.32,-0.62,1.47,-28.70,29.05,16.64,-1.00
11792.00,-8.38,-0.11,5.32,0.43,-0.58,1.51,-28.70,29.05,16.64,-1.00
11804.00,-8.38,-0.11,5.32,0.43,-0.58,1.51,-28.70,29.05,16.64,-1.00
11816.00,-8.48,0.01,4.88,0.52,-0.52,1.61,-28.70,29.05,16.64,-1.00
11828.00,-8.48,0.01,4.88,0.52,-0.52,1.61,-28.70,29.05,16.64,-1.00
11843.00,-8.90,1.34,4.52,0.51,-0.50,1.62,-28.70,29.05,16.64,-1.00
11854.00,-8.89,1.61,3.82,0.52,-0.51,1.38,-30.08,31.93,17.18,-1.00
11866.00,-8.89,1.61,3.82,0.52,-0.51,1.38,-30.08,31.93,17.18,-1.00
11880.00,-8.99,1.81,3.91,0.50,-0.56,1.11,-30.08,31.93,17.18,-1.00
11892.00,-8.69,1.07,4.03,0.25,-0.67,0.77,-30.08,31.93,17.18,-1.00
11904.00,-8.69,1.07,4.03,0.25,-0.67,0.77,-30.08,31.93,17.18,-1.00
11916.00,-8.55,-0.17,4.50,0.11,-0.77,0.59,-30.08,31.93,17.18,-1.00
11930.00,-8.55,-0.17,4.50,0.11,-0.77,0.59,-30.08,31.93,17.18,-1.00
11942.00,-8.45,-0.78,5.25,0.11,-0.83,0.75,-30.08,31.93,17.18,-1.00
11954.00,-8.36,-1.01,5.30,0.20,-0.78,1.06,-30.08,31.93,17.18,-1.00
11966.00,-8.36,-1.01,5.30,0.20,-0.78,1.06,-30.08,31.93,17.18,-1.00
11980.00,-8.34,-0.43,4.88,0.34,-0.68,1.41,-30.08,31.93,17.18,-1.00
11992.00,-8.65,0.37,4.65,0.50,-0.71,1.65,-29.16,28.48,17.18,-1.00
12004.00,-8.65,0.37,4.65,0.50,-0.71,1.65,-29.16,28.48,17.18,-1.00
12017.00,-8.56,0.35,4.74,0.58,-0.93,1.73,-29.16,28.48,17.18,-1.00
12030.00,-8.56,0.35,4.74,0.58,-0.93,1.73,-29.16,28.48,17.18,-1.00
12042.00,-7.28,-0.09,6.51,0.74,-1.14,1.77,-29.16,28.48,17.18,-1.00
12054.00,-7.01,1.22,6.51,0.61,-0.86,1.85,-29.16,28.48,17.18,-1.00
12068.00,-7.01,1.22,6.51,0.61,-0.86,1.85,-29.16,28.48,17.18,-1.00
12080.00,-8.41,2.50,6.00,0.29,-0.35,1.71,-29.16,28.48,17.18,-1.00
12092.00,-11.16,2.32,3.72,0.21,-0.06,1.30,-29.16,28.48,17.18,-1.00
12104.00,-11.16,2.32,3.72,0.21,-0.06,1.30,-29.16,28.48,17.18,-1.00
12118.00,-8.96,1.12,1.60,0.13,-0.18,0.84,-28.86,31.93,16.82,-1.00
12130.00,-8.96,1.12,1.60,0.13,-0.18,0.84,-28.86,31.93,16.82,-1.00
12142.00,-9.26,-0.76,3.53,0.31,-0.68,0.73,-28.86,31.93,16.82,-1.00
12154.00,-8.90,-0.39,4.24,0.24,-0.97,1.03,-28.86,31.93,16.82,-1.00
12169.00,-8.90,-0.39,4.24,0.24,-0.97,1.03,-28.86,31.93,16.82,-1.00
12181.00,-8.29,0.52,4.80,0.27,-1.11,1.32,-28.86,31.93,16.82,-1.00
12193.00,-7.91,1.00,5.37,0.30,-1.15,1.47,-28.86,31.93,16.82,-1.00
12205.00,-7.91,1.00,5.37,0.30,-1.15,1.47,-28.86,31.93,16.82,-1.00
12219.00,-7.29,1.02,6.43,0.31,-1.05,1.49,-28.86,31.93,16.82,-1.00
12231.00,-7.29,1.02,6.43,0.31,-1.05,1.49,-28.86,31.93,16.82,-1.00
12243.00,-7.40,0.92,6.85,0.38,-0.75,1.43,-26.56,30.97,19.55,-1.00
12255.00,-7.99,0.28,6.94,0.46,-0.40,1.34,-26.56,30.97,19.55,-1.00
12269.00,-7.99,0.28,6.94,0.46,-0.40,1.34,-26.56,30.97,19.55,-1.00
12281.00,-10.19,0.83,5.20,0.50,-0.03,1.37,-26.56,30.97,19.55,-1.00
12293.00,-8.98,0.92,3.26,0.37,-0.03,1.28,-26.56,30.97,19.55,-1.00
12307.00,-8.98,0.92,3.26,0.37,-0.03,1.28,-26.56,30.97,19.55,-1.00
12319.00,-8.80,0.96,3.58,0.42,-0.31,1.21,-26.56,30.97,19.55,-1.00
12331.00,-8.80,0.96,3.58,0.42,-0.31,1.21,-26.56,30.97,19.55,-1.00
12343.00,-8.67,0.80,4.20,0.50,-0.53,1.15,-26.56,30.97,19.55,-1.00
12357.00,-8.93,1.53,4.69,0.57,-0.65,1.13,-29.01,31.74,15.91,-1.00
12369.00,-8.93,1.53,4.69,0.57,-0.65,1.13,-29.01,31.74,15.91,-1.00
12381.00,-9.01,1.58,4.85,0.49,-0.65,0.91,-29.01,31.74,15.91,-1.00
12393.00,-8.54,1.01,4.27,0.35,-0.59,0.58,-29.01,31.74,15.91,-1.00
12407.00,-8.54,1.01,4.27,0.35,-0.59,0.58,-29.01,31.74,15.91,-1.00
12419.00,-8.43,0.53,4.34,0.30,-0.65,0.41,-29.01,31.74,15.91,-1.00
12431.00,-8.43,0.53,4.34,0.30,-0.65,0.41,-29.01,31.74,15.91,-1.00
12443.00,-8.32,0.06,4.85,0.39,-0.70,0.42,-29.01,31.74,15.91,-1.00
12457.00,-8.27,-0.59,4.54,0.32,-0.74,0.57,-29.01,31.74,15.91,-1.00
12469.00,-8.27,-0.59,4.54,0.32,-0.74,0.57,-29.01,31.74,15.91,-1.00
12481.00,-8.39,-0.64,4.77,0.33,-0.78,0.90,-29.01,31.74,15.91,-1.00
12493.00,-8.44,-0.77,4.37,0.42,-0.76,1.19,-30.24,29.82,17.73,-1.00
12507.00,-8.44,-0.77,4.37,0.42,-0.76,1.19,-30.24,29.82,17.73,-1.00
12519.00,-8.47,-0.35,4.64,0.51,-0.78,1.49,-30.24,29.82,17.73,-1.00
12531.00,-8.47,-0.35,4.64,0.51,-0.78,1.49,-30.24,29.82,17.73,-1.00
12545.00,-8.28,0.70,5.47,0.49,-0.90,1.72,-30.24,29.82,17.73,-1.00
12557.00,-8.49,0.50,5.78,0.41,-0.94,1.67,-30.24,29.82,17.73,-1.00
12569.00,-8.49,0.50,5.78,0.41,-0.94,1.67,-30.24,29.82,17.73,-1.00
12581.00,-7.65,0.57,6.33,0.42,-0.93,1.55,-30.24,29.82,17.73,-1.00
12596.00,-8.44,1.42,6.35,0.49,-0.70,1.39,-30.24,29.82,17.73,-1.00
12607.00,-8.44,1.42,6.35,0.49,-0.70,1.39,-30.24,29.82,17.73,-1.00
12619.00,-9.82,1.70,4.56,0.38,-0.23,1.18,-29.32,30.20,15.91,-1.00
12631.00,-9.82,1.70,4.56,0.38,-0.23,1.18,-29.32,30.20,15.91,-1.00
12645.00,-8.98,1.53,2.45,0.18,-0.17,0.97,-29.32,30.20,15.91,-1.00
12657.00,-8.59,-0.16,3.15,0.09,-0.49,0.89,-29.32,30.20,15.91,-1.00
12669.00,-8.59,-0.16,3.15,0.09,-0.49,0.89,-29.32,30.20,15.91,-1.00
12681.00,-8.53,-0.59,5.04,0.05,-0.74,1.09,-29.32,30.20,15.91,-1.00
12695.00,-8.50,-0.04,4.39,0.18,-0.72,1.33,-29.32,30.20,15.91,-1.00
12707.00,-8.50,-0.04,4.39,0.18,-0.72,1.33,-29.32,30.20,15.91,-1.00
12719.00,-9.00,1.22,3.80,0.36,-0.86,1.41,-29.32,30.20,15.91,-1.00
12731.00,-9.00,1.22,3.80,0.36,-0.86,1.41,-29.32,30.20,15.91,-1.00
12745.00,-9.11,0.90,4.56,0.46,-1.16,1.24,-28.70,30.58,17.36,-1.00
12757.00,-8.68,0.17,5.66,0.43,-1.16,1.17,-28.70,30.58,17.36,-1.00
12769.00,-8.68,0.17,5.66,0.43,-1.16,1.17,-28.70,30.58,17.36,-1.00
12781.00,-8.61,0.65,4.47,0.48,-0.67,1.28,-28.70,30.58,17.36,-1.00
12795.00,-7.97,1.05,4.26,0.52,-0.41,1.34,-28.70,30.58,17.36,-1.00
12807.00,-7.97,1.05,4.26,0.52,-0.41,1.34,-28.70,30.58,17.36,-1.00
12819.00,-8.06,0.89,5.23,0.57,-0.55,1.25,-28.70,30.58,17.36,-1.00
12833.00,-7.44,-0.13,6.36,0.63,-0.81,1.12,-28.70,30.58,17.36,-1.00
12845.00,-7.44,-0.13,6.36,0.63,-0.81,1.12,-28.70,30.58,17.36,-1.00
12857.00,-7.41,0.12,6.69,0.71,-0.87,1.15,-27.94,32.31,19.00,-1.00
12869.00,-7.41,0.12,6.69,0.71,-0.87,1.15,-27.94,32.31,19.00,-1.00
12883.00,-8.01,0.56,7.13,0.62,-0.71,1.21,-27.94,32.31,19.00,-1.00
12895.00,-8.83,0.79,4.75,0.57,-0.43,1.20,-27.94,32.31,19.00,-1.00
12907.00,-8.83,0.79,4.75,0.57,-0.43,1.20,-27.94,32.31,19.00,-1.00
12919.00,-8.83,0.64,3.65,0.54,-0.34,1.16,-27.94,32.31,19.00,-1.00
12934.00,-8.60,0.45,4.15,0.47,-0.51,1.19,-27.94,32.31,19.00,-1.00
12945.00,-8.60,0.45,4.15,0.47,-0.51,1.19,-27.94,32.31,19.00,-1.00
12957.00,-8.32,0.69,5.19,0.34,-0.64,1.27,-27.94,32.31,19.00,-1.00
12969.00,-8.32,0.69,5.19,0.34,-0.64,1.27,-27.94,32.31,19.00,-1.00
12983.00,-8.15,0.68,5.82,0.30,-0.60,1.31,-27.94,32.31,19.00,-1.00
12995.00,-9.13,0.68,5.33,0.36,-0.40,1.32,-28.55,32.31,18.64,-1.00
13007.00,-9.13,0.68,5.33,0.36,-0.40,1.32,-28.55,32.31,18.64,-1.00
13019.00,-8.44,0.77,4.80,0.43,-0.36,1.27,-28.55,32.31,18.64,-1.00
13033.00,-8.38,0.93,4.18,0.57,-0.41,1.24,-28.55,32.31,18.64,-1.00
13045.00,-8.38,0.93,4.18,0.57,-0.41,1.24,-28.55,32.31,18.64,-1.00
13057.00,-8.76,0.76,4.07,0.68,-0.53,1.18,-28.55,32.31,18.64,-1.00
13071.00,-8.76,0.76,4.07,0.68,-0.53,1.18,-28.55,32.31,18.64,-1.00
13084.00,-8.83,1.13,4.56,0.76,-0.61,1.15,-28.55,32.31,18.64,-1.00
13095.00,-8.92,1.20,4.02,0.57,-0.65,1.06,-28.55,32.31,18.64,-1.00
13107.00,-8.92,1.20,4.02,0.57,-0.65,1.06,-28.55,32.31,18.64,-1.00
13121.00,-8.89,0.91,4.49,0.42,-0.71,0.98,-28.40,30.97,17.00,-1.00
13133.00,-8.87,0.90,4.26,0.20,-0.67,0.95,-28.40,30.97,17.00,-1.00
13145.00,-8.87,0.90,4.26,0.20,-0.67,0.95,-28.40,30.97,17.00,-1.00
13157.00,-8.53,0.44,4.42,0.05,-0.66,0.89,-28.40,30.97,17.00,-1.00
13171.00,-8.53,0.44,4.42,0.05,-0.66,0.89,-28.40,30.97,17.00,-1.00
13183.00,-8.34,0.39,5.36,0.05,-0.72,0.94,-28.40,30.97,17.00,-1.00
13195.00,-8.14,0.38,5.32,0.20,-0.71,0.98,-28.40,30.97,17.00,-1.00
13207.00,-8.14,0.38,5.32,0.20,-0.71,0.98,-28.40,30.97,17.00,-1.00
13221.00,-8.33,0.66,5.18,0.47,-0.70,1.05,-28.40,30.97,17.00,-1.00
13233.00,-8.27,0.39,4.78,0.62,-0.72,1.04,-29.16,30.01,17.55,-1.00
13245.00,-8.27,0.39,4.78,0.62,-0.72,1.04,-29.16,30.01,17.55,-1.00
13257.00,-8.38,-0.11,4.58,0.75,-0.76,1.03,-29.16,30.01,17.55,-1.00
13271.00,-8.38,-0.11,4.58,0.75,-0.76,1.03,-29.16,30.01,17.55,-1.00
13283.00,-8.78,-0.47,3.88,0.92,-0.76,1.14,-29.16,30.01,17.55,-1.00
13295.00,-9.33,-0.27,4.55,0.80,-0.83,1.38,-29.16,30.01,17.55,-1.00
13309.00,-9.33,-0.27,4.55,0.80,-0.83,1.38,-29.16,30.01,17.55,-1.00
13321.00,-9.02,0.79,4.68,0.45,-0.92,1.55,-29.16,30.01,17.55,-1.00
13333.00,-8.32,1.17,5.32,0.22,-0.99,1.56,-29.16,30.01,17.55,-1.00
13345.00,-8.32,1.17,5.32,0.22,-0.99,1.56,-29.16,30.01,17.55,-1.00
13360.00,-8.18,1.30,5.32,0.09,-0.92,1.49,-30.08,31.16,17.18,-1.00
13371.00,-8.18,1.30,5.32,0.09,-0.92,1.49,-30.08,31.16,17.18,-1.00
13383.00,-8.11,1.42,4.93,0.14,-0.71,1.36,-30.08,31.16,17.18,-1.00
13395.00,-8.11,1.05,5.58,0.21,-0.67,1.20,-30.08,31.16,17.18,-1.00
13409.00,-8.11,1.05,5.58,0.21,-0.67,1.20,-30.08,31.16,17.18,-1.00
13421.00,-7.90,0.62,6.13,0.23,-0.62,1.09,-30.08,31.16,17.18,-1.00
13433.00,-8.17,0.69,6.07,0.31,-0.50,1.06,-30.08,31.16,17.18,-1.00
13445.00,-8.17,0.69,6.07,0.31,-0.50,1.06,-30.08,31.16,17.18,-1.00
13459.00,-8.26,0.76,5.27,0.37,-0.33,1.02,-30.08,31.16,17.18,-1.00
13471.00,-8.26,0.76,5.27,0.37,-0.33,1.02,-30.08,31.16,17.18,-1.00
13483.00,-8.95,0.60,4.34,0.39,-0.27,0.99,-30.08,31.16,17.18,-1.00
13495.00,-8.71,0.42,3.85,0.26,-0.40,0.98,-28.70,30.58,17.00,-1.00
13511.00,-8.71,0.42,3.85,0.26,-0.40,0.98,-28.70,30.58,17.00,-1.00
13522.00,-8.57,0.02,4.26,0.21,-0.57,1.05,-28.70,30.58,17.00,-1.00
13534.00,-8.36,0.00,4.81,0.22,-0.63,1.21,-28.70,30.58,17.00,-1.00
13549.00,-8.36,0.00,4.81,0.22,-0.63,1.21,-28.70,30.58,17.00,-1.00
13560.00,-8.36,0.24,4.99,0.25,-0.64,1.37,-28.70,30.58,17.00,-1.00
13572.00,-8.36,0.24,4.99,0.25,-0.64,1.37,-28.70,30.58,17.00,-1.00
13584.00,-8.40,0.24,4.99,0.29,-0.63,1.44,-28.70,30.58,17.00,-1.00
13598.00,-8.10,0.11,4.75,0.34,-0.62,1.51,-28.70,30.58,17.00,-1.00
13610.00,-8.10,0.11,4.75,0.34,-0.62,1.51,-28.70,30.58,17.00,-1.00
13622.00,-8.32,0.88,5.07,0.30,-0.67,1.63,-29.01,30.97,17.00,-1.00
13634.00,-8.89,1.27,5.27,0.29,-0.69,1.56,-29.01,30.97,17.00,-1.00
13648.00,-8.89,1.27,5.27,0.29,-0.69,1.56,-29.01,30.97,17.00,-1.00
13737.00,-8.76,0.47,3.99,0.18,-0.68,0.70,-27.94,30.39,15.73,-1.00
13824.00,-8.09,0.01,5.78,0.22,-0.70,1.46,-27.94,30.39,15.73,-1.00
13911.00,-8.92,1.52,4.12,0.49,-0.44,1.48,-27.94,31.54,17.91,-1.00
13924.00,-8.82,1.43,3.71,0.50,-0.45,1.20,-27.94,31.54,17.91,-1.00
13936.00,-9.05,1.51,4.38,0.41,-0.60,0.97,-27.94,31.54,17.91,-1.00
13948.00,-9.05,1.51,4.38,0.41,-0.60,0.97,-27.94,31.54,17.91,-1.00
13961.00,-8.72,1.07,3.67,0.17,-0.65,0.72,-27.94,31.54,17.91,-1.00
13974.00,-8.46,0.06,4.24,0.11,-0.76,0.64,-27.94,31.54,17.91,-1.00
13986.00,-8.46,0.06,4.24,0.11,-0.76,0.64,-27.94,31.54,17.91,-1.00
13998.00,-8.42,-0.36,4.87,0.08,-0.84,0.79,-29.16,29.24,17.55,-1.00
14010.00,-8.42,-0.36,4.87,0.08,-0.84,0.79,-29.16,29.24,17.55,-1.00
14024.00,-8.41,-0.41,5.23,0.08,-0.79,1.04,-29.16,29.24,17.55,-1.00
14036.00,-8.12,0.35,5.27,0.10,-0.73,1.30,-29.16,29.24,17.55,-1.00
14048.00,-8.12,0.35,5.27,0.10,-0.73,1.30,-29.16,29.24,17.55,-1.00
14062.00,-8.22,-0.15,5.64,0.21,-0.73,1.40,-29.16,29.24,17.55,-1.00
14074.00,-8.02,-0.40,5.44,0.43,-0.62,1.52,-29.16,29.24,17.55,-1.00
14086.00,-8.02,-0.40,5.44,0.43,-0.62,1.52,-29.16,29.24,17.55,-1.00
14098.00,-8.73,0.44,4.95,0.56,-0.53,1.68,-29.16,29.24,17.55,-1.00
14113.00,-8.73,0.44,4.95,0.56,-0.53,1.68,-29.16,29.24,17.55,-1.00
14125.00,-9.02,1.56,4.60,0.42,-0.48,1.62,-28.40,31.74,17.73,-1.00
14137.00,-8.94,1.59,3.77,0.49,-0.46,1.28,-28.40,31.74,17.73,-1.00
14149.00,-8.94,1.59,3.77,0.49,-0.46,1.28,-28.40,31.74,17.73,-1.00
14163.00,-8.86,1.69,3.67,0.40,-0.55,0.98,-28.40,31.74,17.73,-1.00
14175.00,-8.80,0.70,4.11,0.18,-0.73,0.67,-28.40,31.74,17.73,-1.00
14187.00,-8.80,0.70,4.11,0.18,-0.73,0.67,-28.40,31.74,17.73,-1.00
14199.00,-8.41,-1.08,4.72,0.12,-0.83,0.60,-28.40,31.74,17.73,-1.00
14213.00,-8.41,-1.08,4.72,0.12,-0.83,0.60,-28.40,31.74,17.73,-1.00
14225.00,-8.38,-1.57,5.27,0.26,-0.81,0.93,-28.40,31.74,17.73,-1.00
14237.00,-8.26,-0.44,4.93,0.48,-0.65,1.41,-28.09,29.43,17.36,-1.00
14251.00,-8.26,-0.44,4.93,0.48,-0.65,1.41,-28.09,29.43,17.36,-1.00
14263.00,-8.70,0.99,4.13,0.75,-0.69,1.70,-28.09,29.43,17.36,-1.00
14275.00,-9.11,1.01,4.54,0.75,-0.95,1.66,-28.09,29.43,17.36,-1.00
14287.00,-9.11,1.01,4.54,0.75,-0.95,1.66,-28.09,29.43,17.36,-1.00
14301.00,-8.16,0.71,5.64,0.68,-1.14,1.55,-28.09,29.43,17.36,-1.00
14313.00,-8.16,0.71,5.64,0.68,-1.14,1.55,-28.09,29.43,17.36,-1.00
14325.00,-8.11,1.45,4.53,0.57,-0.78,1.49,-28.09,29.43,17.36,-1.00
14337.00,-7.85,2.09,4.38,0.50,-0.59,1.35,-28.09,29.43,17.36,-1.00
14351.00,-7.85,2.09,4.38,0.50,-0.59,1.35,-28.09,29.43,17.36,-1.00
14363.00,-8.38,1.68,4.99,0.42,-0.68,1.08,-27.78,32.89,18.46,-1.00
14375.00,-8.37,0.12,5.37,0.45,-0.78,0.83,-27.78,32.89,18.46,-1.00
14387.00,-8.37,0.12,5.37,0.45,-0.78,0.83,-27.78,32.89,18.46,-1.00
14401.00,-7.56,-0.30,6.01,0.57,-0.89,0.82,-27.78,32.89,18.46,-1.00
14413.00,-7.56,-0.30,6.01,0.57,-0.89,0.82,-27.78,32.89,18.46,-1.00
14425.00,-8.47,-0.21,6.26,0.52,-0.83,0.91,-27.78,32.89,18.46,-1.00
14437.00,-8.17,0.38,6.02,0.38,-0.65,1.04,-27.78,32.89,18.46,-1.00
14451.00,-8.17,0.38,6.02,0.38,-0.65,1.04,-27.78,32.89,18.46,-1.00
14463.00,-8.62,0.77,5.09,0.35,-0.40,1.09,-27.78,32.89,18.46,-1.00
14475.00,-9.36,0.77,4.49,0.32,-0.28,1.04,-27.78,32.89,18.46,-1.00
14487.00,-9.36,0.77,4.49,0.32,-0.28,1.04,-27.78,32.89,18.46,-1.00
14501.00,-8.59,0.33,4.37,0.22,-0.38,0.96,-28.55,31.16,16.82,-1.00
14513.00,-8.59,0.33,4.37,0.22,-0.38,0.96,-28.55,31.16,16.82,-1.00
14525.00,-8.51,-0.07,4.94,0.19,-0.49,0.98,-28.55,31.16,16.82,-1.00
14540.00,-8.48,-0.28,4.63,0.29,-0.48,1.12,-28.55,31.16,16.82,-1.00
14551.00,-8.48,-0.28,4.63,0.29,-0.48,1.12,-28.55,31.16,16.82,-1.00
14563.00,-8.36,0.23,4.69,0.31,-0.50,1.30,-28.55,31.16,16.82,-1.00
14575.00,-8.71,0.52,4.57,0.29,-0.56,1.36,-28.55,31.16,16.82,-1.00
14589.00,-8.71,0.52,4.57,0.29,-0.56,1.36,-28.55,31.16,16.82,-1.00
14601.00,-8.51,0.08,4.64,0.29,-0.57,1.38,-28.55,31.16,16.82,-1.00
14613.00,-8.51,0.08,4.64,0.29,-0.57,1.38,-28.55,31.16,16.82,-1.00
14625.00,-8.47,0.14,4.49,0.30,-0.57,1.47,-29.01,30.97,17.73,-1.00
14639.00,-8.29,0.21,4.48,0.30,-0.62,1.60,-29.01,30.97,17.73,-1.00
14651.00,-8.29,0.21,4.48,0.30,-0.62,1.60,-29.01,30.97,17.73,-1.00
14663.00,-8.17,-0.01,5.60,0.24,-0.68,1.74,-29.01,30.97,17.73,-1.00
14675.00,-8.14,0.05,5.33,0.33,-0.63,1.88,-29.01,30.97,17.73,-1.00
14689.00,-8.14,0.05,5.33,0.33,-0.63,1.88,-29.01,30.97,17.73,-1.00
14701.00,-8.25,1.21,4.83,0.49,-0.56,2.00,-29.01,30.97,17.73,-1.00
14713.00,-8.25,1.21,4.83,0.49,-0.56,2.00,-29.01,30.97,17.73,-1.00
14725.00,-8.58,1.72,4.91,0.58,-0.61,1.85,-29.01,30.97,17.73,-1.00
14739.00,-9.08,2.20,4.03,0.66,-0.57,1.57,-28.09,35.19,17.73,-1.00
14751.00,-9.08,2.20,4.03,0.66,-0.57,1.57,-28.09,35.19,17.73,-1.00
14763.00,-8.82,1.97,4.16,0.52,-0.60,1.25,-28.09,35.19,17.73,-1.00
14777.00,-8.82,1.29,4.64,0.45,-0.69,0.99,-28.09,35.19,17.73,-1.00
14789.00,-8.82,1.29,4.64,0.45,-0.69,0.99,-28.09,35.19,17.73,-1.00
14801.00,-8.77,1.28,4.92,0.35,-0.68,0.90,-28.09,35.19,17.73,-1.00
14813.00,-8.77,1.28,4.92,0.35,-0.68,0.90,-28.09,35.19,17.73,-1.00
14827.00,-8.78,0.87,4.84,0.28,-0.64,0.79,-28.09,35.19,17.73,-1.00
14839.00,-8.56,0.96,4.28,0.31,-0.59,0.72,-28.09,35.19,17.73,-1.00
14851.00,-8.56,0.96,4.28,0.31,-0.59,0.72,-28.09,35.19,17.73,-1.00
14863.00,-8.61,0.74,4.62,0.31,-0.61,0.70,-28.09,35.19,17.73,-1.00
14878.00,-8.55,0.96,3.86,0.25,-0.63,0.67,-28.55,33.08,17.18,-1.00
14889.00,-8.55,0.96,3.86,0.25,-0.63,0.67,-28.55,33.08,17.18,-1.00
14901.00,-8.70,0.55,4.58,0.27,-0.70,0.62,-28.55,33.08,17.18,-1.00
14913.00,-8.70,0.55,4.58,0.27,-0.70,0.62,-28.55,33.08,17.18,-1.00
14927.00,-8.30,0.24,4.22,0.23,-0.70,0.68,-28.55,33.08,17.18,-1.00
14939.00,-8.37,-0.16,4.91,0.21,-0.75,0.81,-28.55,33.08,17.18,-1.00
14951.00,-8.37,-0.16,4.91,0.21,-0.75,0.81,-28.55,33.08,17.18,-1.00
14963.00,-8.42,-0.42,5.32,0.14,-0.73,1.00,-28.55,33.08,17.18,-1.00
14977.00,-8.44,-0.51,5.27,0.15,-0.67,1.24,-28.55,33.08,17.18,-1.00
14989.00,-8.44,-0.51,5.27,0.15,-0.67,1.24,-28.55,33.08,17.18,-1.00
15001.00,-8.11,-0.45,5.16,0.26,-0.59,1.47,-28.55,30.39,17.55,-1.00
15015.00,-8.22,0.12,5.40,0.50,-0.54,1.69,-28.55,30.39,17.55,-1.00
15028.00,-8.22,0.12,5.40,0.50,-0.54,1.69,-28.55,30.39,17.55,-1.00
15040.00,-8.20,0.39,4.85,0.64,-0.49,1.81,-28.55,30.39,17.55,-1.00
15052.00,-8.20,0.39,4.85,0.64,-0.49,1.81,-28.55,30.39,17.55,-1.00
15066.00,-9.25,1.54,5.00,0.68,-0.51,1.81,-28.55,30.39,17.55,-1.00
15078.00,-9.09,2.02,3.84,0.54,-0.46,1.49,-28.55,30.39,17.55,-1.00
15090.00,-9.09,2.02,3.84,0.54,-0.46,1.49,-28.55,30.39,17.55,-1.00
15102.00,-9.01,2.07,3.41,0.48,-0.49,1.10,-28.55,30.39,17.55,-1.00
15116.00,-8.95,1.62,3.80,0.11,-0.72,0.72,-27.78,31.74,18.46,-1.00
15128.00,-8.95,1.62,3.80,0.11,-0.72,0.72,-27.78,31.74,18.46,-1.00
15140.00,-8.28,-0.32,3.86,-0.06,-0.80,0.46,-27.78,31.74,18.46,-1.00
15152.00,-8.28,-0.32,3.86,-0.06,-0.80,0.46,-27.78,31.74,18.46,-1.00
15166.00,-8.50,-0.68,5.81,0.05,-0.93,0.69,-27.78,31.74,18.46,-1.00
15178.00,-8.12,-0.48,5.34,0.04,-0.76,1.01,-27.78,31.74,18.46,-1.00
15190.00,-8.12,-0.48,5.34,0.04,-0.76,1.01,-27.78,31.74,18.46,-1.00
15204.00,-8.43,0.07,5.35,0.19,-0.72,1.26,-27.78,31.74,18.46,-1.00
15216.00,-8.27,-0.39,4.87,0.31,-0.64,1.37,-27.78,31.74,18.46,-1.00
15228.00,-8.27,-0.39,4.87,0.31,-0.64,1.37,-27.78,31.74,18.46,-1.00
15240.00,-8.64,-0.28,4.90,0.55,-0.59,1.57,-29.32,30.58,17.73,-1.00
15254.00,-8.64,-0.28,4.90,0.55,-0.59,1.57,-29.32,30.58,17.73,-1.00
15266.00,-9.03,0.65,4.71,0.52,-0.50,1.75,-29.32,30.58,17.73,-1.00
15278.00,-8.92,1.54,4.18,0.29,-0.45,1.62,-29.32,30.58,17.73,-1.00
15290.00,-8.92,1.54,4.18,0.29,-0.45,1.62,-29.32,30.58,17.73,-1.00
15305.00,-8.98,1.58,3.80,0.07,-0.52,1.31,-29.32,30.58,17.73,-1.00
15316.00,-8.73,1.32,4.01,-0.09,-0.64,0.98,-29.32,30.58,17.73,-1.00
15328.00,-8.73,1.32,4.01,-0.09,-0.64,0.98,-29.32,30.58,17.73,-1.00
15340.00,-8.15,0.33,4.89,-0.07,-0.81,0.74,-29.32,30.58,17.73,-1.00
15354.00,-8.15,0.33,4.89,-0.07,-0.81,0.74,-29.32,30.58,17.73,-1.00
15366.00,-8.27,0.07,5.42,0.22,-0.86,0.74,-29.32,30.58,17.73,-1.00
15378.00,-8.12,-0.62,5.22,0.52,-0.80,0.84,-29.47,31.54,19.00,-1.00
15390.00,-8.12,-0.62,5.22,0.52,-0.80,0.84,-29.47,31.54,19.00,-1.00
15404.00,-8.40,-1.37,4.47,0.74,-0.74,1.02,-29.47,31.54,19.00,-1.00
15416.00,-8.52,-0.33,3.76,0.84,-0.74,1.32,-29.47,31.54,19.00,-1.00
15428.00,-8.52,-0.33,3.76,0.84,-0.74,1.32,-29.47,31.54,19.00,-1.00
15442.00,-9.68,0.56,3.27,0.82,-0.91,1.52,-29.47,31.54,19.00,-1.00
15455.00,-9.68,0.56,3.27,0.82,-0.91,1.52,-29.47,31.54,19.00,-1.00
15466.00,-9.43,0.78,3.33,0.47,-1.34,1.56,-29.47,31.54,19.00,-1.00
15478.00,-8.02,0.64,5.17,0.14,-1.75,1.55,-29.47,31.54,19.00,-1.00
15493.00,-8.02,0.64,5.17,0.14,-1.75,1.55,-29.47,31.54,19.00,-1.00
15504.00,-7.65,0.72,6.61,-0.01,-1.79,1.54,-27.02,32.69,21.18,-1.00
15516.00,-7.70,0.86,6.21,-0.00,-1.48,1.45,-27.02,32.69,21.18,-1.00
15528.00,-7.70,0.86,6.21,-0.00,-1.48,1.45,-27.02,32.69,21.18,-1.00
15542.00,-7.59,0.89,6.09,0.10,-1.18,1.30,-27.02,32.69,21.18,-1.00
15554.00,-7.59,0.89,6.09,0.10,-1.18,1.30,-27.02,32.69,21.18,-1.00
15566.00,-7.82,1.08,6.07,0.22,-0.97,1.18,-27.02,32.69,21.18,-1.00
15578.00,-8.22,0.71,5.76,0.34,-0.84,1.03,-27.02,32.69,21.18,-1.00
15592.00,-8.22,0.71,5.76,0.34,-0.84,1.03,-27.02,32.69,21.18,-1.00
15604.00,-8.21,0.35,5.52,0.42,-0.83,0.96,-27.02,32.69,21.18,-1.00
15616.00,-7.99,0.46,5.69,0.61,-0.91,1.00,-28.70,34.04,23.55,-1.00
15628.00,-7.99,0.46,5.69,0.61,-0.91,1.00,-28.70,34.04,23.55,-1.00
15643.00,-8.02,0.86,5.21,0.66,-0.90,1.03,-28.70,34.04,23.55,-1.00
15654.00,-8.02,0.86,5.21,0.66,-0.90,1.03,-28.70,34.04,23.55,-1.00
15666.00,-8.17,1.33,5.56,0.66,-0.88,1.02,-28.70,34.04,23.55,-1.00
15680.00,-8.64,1.00,6.17,0.68,-0.78,0.90,-28.70,34.04,23.55,-1.00
15692.00,-8.64,1.00,6.17,0.68,-0.78,0.90,-28.70,34.04,23.55,-1.00
15704.00,-8.65,0.29,4.89,0.68,-0.38,0.84,-28.70,34.04,23.55,-1.00
15716.00,-7.95,-0.10,5.00,0.67,-0.28,0.99,-28.70,34.04,23.55,-1.00
15730.00,-7.95,-0.10,5.00,0.67,-0.28,0.99,-28.70,34.04,23.55,-1.00
15742.00,-7.51,0.41,5.25,0.61,-0.42,1.16,-27.32,31.93,23.73,-1.00
15754.00,-7.51,0.41,5.25,0.61,-0.42,1.16,-27.32,31.93,23.73,-1.00
15766.00,-7.12,0.45,6.28,0.66,-0.71,1.10,-27.32,31.93,23.73,-1.00
15780.00,-7.18,-0.20,7.05,0.58,-0.85,0.95,-27.32,31.93,23.73,-1.00
15792.00,-7.18,-0.20,7.05,0.58,-0.85,0.95,-27.32,31.93,23.73,-1.00
15804.00,-6.96,-0.79,7.32,0.46,-0.77,0.91,-27.32,31.93,23.73,-1.00
15816.00,-7.03,-0.66,7.34,0.46,-0.63,0.97,-27.32,31.93,23.73,-1.00
15830.00,-7.03,-0.66,7.34,0.46,-0.63,0.97,-27.32,31.93,23.73,-1.00
15842.00,-7.59,-0.57,7.02,0.52,-0.44,0.99,-27.32,31.93,23.73,-1.00
15854.00,-7.59,-0.57,7.02,0.52,-0.44,0.99,-27.32,31.93,23.73,-1.00
15866.00,-8.09,-0.15,5.77,0.61,-0.22,1.05,-27.32,31.93,23.73,-1.00
15880.00,-8.43,0.18,4.66,0.69,-0.15,1.12,-27.94,32.31,23.00,-1.00
15892.00,-8.43,0.18,4.66,0.69,-0.15,1.12,-27.94,32.31,23.00,-1.00
15904.00,-8.55,0.39,4.35,0.66,-0.27,1.21,-27.94,32.31,23.00,-1.00
15919.00,-8.43,0.69,4.49,0.59,-0.48,1.26,-27.94,32.31,23.00,-1.00
15930.00,-8.43,0.69,4.49,0.59,-0.48,1.26,-27.94,32.31,23.00,-1.00
15942.00,-8.20,0.80,4.93,0.53,-0.69,1.24,-27.94,32.31,23.00,-1.00
15954.00,-8.20,0.80,4.93,0.53,-0.69,1.24,-27.94,32.31,23.00,-1.00
15968.00,-8.16,0.66,5.57,0.50,-0.79,1.17,-27.94,32.31,23.00,-1.00
15980.00,-8.05,0.46,5.63,0.46,-0.76,1.12,-27.94,32.31,23.00,-1.00
15992.00,-8.05,0.46,5.63,0.46,-0.76,1.12,-27.94,32.31,23.00,-1.00
16004.00,-8.02,0.30,5.74,0.43,-0.71,1.10,-28.70,31.35,21.00,-1.00
16018.00,-8.06,0.31,5.76,0.39,-0.65,1.12,-28.70,31.35,21.00,-1.00
16030.00,-8.06,0.31,5.76,0.39,-0.65,1.12,-28.70,31.35,21.00,-1.00
16043.00,-8.11,0.28,5.53,0.39,-0.62,1.12,-28.70,31.35,21.00,-1.00
16055.00,-8.11,0.28,5.53,0.39,-0.62,1.12,-28.70,31.35,21.00,-1.00
16069.00,-8.17,0.32,5.10,0.42,-0.62,1.13,-28.70,31.35,21.00,-1.00
16156.00,-8.12,0.43,5.51,0.49,-0.56,1.13,-27.17,29.05,22.82,-1.00
16245.00,-8.11,0.22,5.66,0.39,-0.68,1.15,-28.09,31.74,21.37,-1.00
16332.00,-8.09,0.39,5.67,0.47,-0.61,1.14,-28.09,31.74,21.37,-1.00
16346.00,-8.16,0.37,5.32,0.46,-0.59,1.13,-28.09,31.74,21.37,-1.00
16359.00,-8.04,0.33,5.72,0.42,-0.62,1.12,-28.09,31.74,21.37,-1.00
16371.00,-8.04,0.33,5.72,0.42,-0.62,1.12,-28.09,31.74,21.37,-1.00
16385.00,-8.18,0.24,5.53,0.42,-0.59,1.11,-29.01,30.97,20.27,-1.00
16397.00,-8.30,0.31,5.38,0.50,-0.54,1.09,-29.01,30.97,20.27,-1.00
16409.00,-8.30,0.31,5.38,0.50,-0.54,1.09,-29.01,30.97,20.27,-1.00
16421.00,-8.24,0.54,5.05,0.61,-0.51,1.04,-29.01,30.97,20.27,-1.00
16435.00,-8.24,0.54,5.05,0.61,-0.51,1.04,-29.01,30.97,20.27,-1.00
16447.00,-8.16,0.54,5.14,0.67,-0.56,0.99,-29.01,30.97,20.27,-1.00
16459.00,-8.16,0.34,5.51,0.77,-0.57,0.95,-29.01,30.97,20.27,-1.00
16471.00,-8.16,0.34,5.51,0.77,-0.57,0.95,-29.01,30.97,20.27,-1.00
16486.00,-8.03,0.02,5.61,0.78,-0.55,0.97,-29.01,30.97,20.27,-1.00
16497.00,-7.99,0.01,5.68,0.77,-0.52,1.05,-29.47,28.86,20.09,-1.00
16509.00,-7.99,0.01,5.68,0.77,-0.52,1.05,-29.47,28.86,20.09,-1.00
16521.00,-8.23,0.12,5.29,0.76,-0.49,1.14,-29.47,28.86,20.09,-1.00
16535.00,-8.23,0.12,5.29,0.76,-0.49,1.14,-29.47,28.86,20.09,-1.00
16547.00,-8.16,0.35,5.21,0.75,-0.49,1.22,-29.47,28.86,20.09,-1.00
16559.00,-8.16,0.47,5.31,0.69,-0.53,1.26,-29.47,28.86,20.09,-1.00
16571.00,-8.16,0.47,5.31,0.69,-0.53,1.26,-29.47,28.86,20.09,-1.00
16585.00,-8.11,0.53,5.26,0.64,-0.58,1.25,-29.47,28.86,20.09,-1.00
16597.00,-8.13,0.48,5.40,0.62,-0.65,1.23,-29.47,28.86,20.09,-1.00
16609.00,-8.13,0.48,5.40,0.62,-0.65,1.23,-29.47,28.86,20.09,-1.00
16621.00,-8.10,0.47,5.45,0.57,-0.67,1.24,-29.47,30.78,17.91,-1.00
16636.00,-8.10,0.47,5.45,0.57,-0.67,1.24,-29.47,30.78,17.91,-1.00
16647.00,-8.21,0.79,5.42,0.46,-0.65,1.27,-29.47,30.78,17.91,-1.00
16659.00,-8.40,0.77,4.95,0.43,-0.59,1.23,-29.47,30.78,17.91,-1.00
16674.00,-8.40,0.77,4.95,0.43,-0.59,1.23,-29.47,30.78,17.91,-1.00
16685.00,-8.46,0.70,4.87,0.42,-0.60,1.17,-29.47,30.78,17.91,-1.00
16697.00,-8.55,0.45,4.78,0.33,-0.59,1.16,-29.47,30.78,17.91,-1.00
16709.00,-8.55,0.45,4.78,0.33,-0.59,1.16,-29.47,30.78,17.91,-1.00
16723.00,-8.37,0.37,4.77,0.26,-0.61,1.19,-29.47,30.78,17.91,-1.00
16735.00,-8.37,0.37,4.77,0.26,-0.61,1.19,-29.47,30.78,17.91,-1.00
16747.00,-8.13,0.46,5.40,0.15,-0.70,1.23,-28.86,30.01,18.27,-1.00
16759.00,-8.15,0.58,5.59,0.12,-0.73,1.23,-28.86,30.01,18.27,-1.00
16773.00,-8.15,0.58,5.59,0.12,-0.73,1.23,-28.86,30.01,18.27,-1.00
16785.00,-8.38,0.49,5.23,0.17,-0.65,1.21,-28.86,30.01,18.27,-1.00
16797.00,-8.16,0.47,5.06,0.16,-0.59,1.24,-28.86,30.01,18.27,-1.00
16809.00,-8.16,0.47,5.06,0.16,-0.59,1.24,-28.86,30.01,18.27,-1.00
16824.00,-8.20,0.40,5.58,0.18,-0.60,1.29,-28.86,30.01,18.27,-1.00
16835.00,-8.20,0.40,5.58,0.18,-0.60,1.29,-28.86,30.01,18.27,-1.00
16847.00,-8.30,0.44,5.44,0.31,-0.52,1.30,-28.86,30.01,18.27,-1.00
16859.00,-8.49,0.53,4.68,0.48,-0.46,1.28,-28.86,30.01,18.27,-1.00
16873.00,-8.49,0.53,4.68,0.48,-0.46,1.28,-28.86,30.01,18.27,-1.00
16885.00,-8.38,0.47,4.70,0.56,-0.51,1.28,-29.32,29.82,16.64,-1.00
16897.00,-8.34,0.75,5.14,0.45,-0.58,1.32,-29.32,29.82,16.64,-1.00
16911.00,-8.34,0.75,5.14,0.45,-0.58,1.32,-29.32,29.82,16.64,-1.00
16923.00,-8.49,0.68,5.01,0.32,-0.59,1.31,-29.32,29.82,16.64,-1.00
16935.00,-8.49,0.68,5.01,0.32,-0.59,1.31,-29.32,29.82,16.64,-1.00
16947.00,-8.35,0.45,5.15,0.25,-0.59,1.28,-29.32,29.82,16.64,-1.00
16961.00,-8.16,0.46,5.49,0.26,-0.58,1.28,-29.32,29.82,16.64,-1.00
16973.00,-8.16,0.46,5.49,0.26,-0.58,1.28,-29.32,29.82,16.64,-1.00
16985.00,-8.10,0.55,5.79,0.30,-0.50,1.30,-29.32,29.82,16.64,-1.00
16997.00,-8.04,0.43,5.83,0.43,-0.34,1.33,-29.47,32.31,17.91,-1.00
17011.00,-8.04,0.43,5.83,0.43,-0.34,1.33,-29.47,32.31,17.91,-1.00
17023.00,-8.78,0.70,4.91,0.50,-0.21,1.36,-29.47,32.31,17.91,-1.00
17035.00,-8.78,0.70,4.91,0.50,-0.21,1.36,-29.47,32.31,17.91,-1.00
17047.00,-8.51,0.88,4.11,0.47,-0.33,1.30,-29.47,32.31,17.91,-1.00
17061.00,-8.59,0.90,4.37,0.46,-0.50,1.25,-29.47,32.31,17.91,-1.00
17073.00,-8.59,0.90,4.37,0.46,-0.50,1.25,-29.47,32.31,17.91,-1.00
17085.00,-8.49,0.95,4.69,0.47,-0.60,1.21,-29.47,32.31,17.91,-1.00
17097.00,-8.58,0.47,4.75,0.51,-0.64,1.14,-29.47,32.31,17.91,-1.00
17111.00,-8.58,0.47,4.75,0.51,-0.64,1.14,-29.47,32.31,17.91,-1.00
17123.00,-8.74,1.01,4.51,0.61,-0.66,1.11,-29.32,30.58,17.00,-1.00
17135.00,-8.74,1.01,4.51,0.61,-0.66,1.11,-29.32,30.58,17.00,-1.00
17147.00,-8.69,1.64,4.65,0.57,-0.69,0.99,-29.32,30.58,17.00,-1.00
17161.00,-8.70,0.60,4.68,0.35,-0.69,0.77,-29.32,30.58,17.00,-1.00
17173.00,-8.70,0.60,4.68,0.35,-0.69,0.77,-29.32,30.58,17.00,-1.00
17185.00,-8.40,0.14,4.33,0.17,-0.68,0.79,-29.32,30.58,17.00,-1.00
17199.00,-8.41,-0.51,5.55,0.10,-0.71,0.97,-29.32,30.58,17.00,-1.00
17211.00,-8.41,-0.51,5.55,0.10,-0.71,0.97,-29.32,30.58,17.00,-1.00
17223.00,-8.13,-0.37,5.38,0.07,-0.64,1.27,-29.32,30.58,17.00,-1.00
17235.00,-8.13,-0.37,5.38,0.07,-0.64,1.27,-29.32,30.58,17.00,-1.00
17250.00,-8.20,0.20,5.20,0.24,-0.59,1.49,-29.32,30.58,17.00,-1.00
17261.00,-8.40,0.67,5.08,0.39,-0.56,1.54,-29.32,30.58,17.00,-1.00
17273.00,-8.40,0.67,5.08,0.39,-0.56,1.54,-29.32,30.58,17.00,-1.00
17285.00,-8.61,1.02,4.75,0.55,-0.54,1.44,-29.32,30.58,17.00,-1.00
17299.00,-8.82,1.68,4.37,0.58,-0.53,1.26,-29.32,30.58,17.00,-1.00
17311.00,-8.82,1.68,4.37,0.58,-0.53,1.26,-29.32,30.58,17.00,-1.00
17323.00,-8.73,1.32,4.09,0.36,-0.58,1.01,-29.32,30.58,17.00,-1.00
17335.00,-8.73,1.32,4.09,0.36,-0.58,1.01,-29.32,30.58,17.00,-1.00
17349.00,-8.56,0.20,4.42,0.11,-0.71,0.84,-29.32,30.58,17.00,-1.00
17361.00,-8.42,-0.22,5.16,0.03,-0.76,0.93,-29.32,30.58,17.00,-1.00
17373.00,-8.42,-0.22,5.16,0.03,-0.76,0.93,-29.32,30.58,17.00,-1.00
17385.00,-8.44,-0.23,5.07,-0.01,-0.71,1.13,-30.54,29.82,17.36,-1.00
17400.00,-8.38,-0.06,5.36,0.05,-0.67,1.29,-30.54,29.82,17.36,-1.00
17411.00,-8.38,-0.06,5.36,0.05,-0.67,1.29,-30.54,29.82,17.36,-1.00
17423.00,-8.17,0.33,5.02,0.16,-0.65,1.39,-30.54,29.82,17.36,-1.00
17438.00,-8.18,0.02,5.42,0.21,-0.69,1.41,-30.54,29.82,17.36,-1.00
17449.00,-8.18,0.02,5.42,0.21,-0.69,1.41,-30.54,29.82,17.36,-1.00
17461.00,-8.05,-0.19,5.19,0.25,-0.65,1.47,-30.54,29.82,17.36,-1.00
17473.00,-8.05,-0.19,5.19,0.25,-0.65,1.47,-30.54,29.82,17.36,-1.00
17487.00,-8.67,0.38,5.77,0.35,-0.65,1.61,-30.54,29.82,17.36,-1.00
17499.00,-8.51,1.42,4.36,0.42,-0.63,1.57,-29.93,30.97,15.91,-1.00
17511.00,-8.51,1.42,4.36,0.42,-0.63,1.57,-29.93,30.97,15.91,-1.00
17523.00,-8.66,1.76,4.23,0.62,-0.66,1.31,-29.93,30.97,15.91,-1.00
17537.00,-9.03,1.17,4.46,0.52,-0.66,0.98,-29.93,30.97,15.91,-1.00
17549.00,-9.03,1.17,4.46,0.52,-0.66,0.98,-29.93,30.97,15.91,-1.00
17561.00,-8.80,0.65,4.32,0.36,-0.65,0.78,-29.93,30.97,15.91,-1.00
17573.00,-8.80,0.65,4.32,0.36,-0.65,0.78,-29.93,30.97,15.91,-1.00
17588.00,-8.52,0.04,4.77,0.18,-0.68,0.78,-29.93,30.97,15.91,-1.00
17599.00,-8.39,-0.49,5.29,0.03,-0.70,0.95,-29.93,30.97,15.91,-1.00
17611.00,-8.39,-0.49,5.29,0.03,-0.70,0.95,-29.93,30.97,15.91,-1.00
17625.00,-8.38,-0.44,5.04,-0.01,-0.64,1.22,-30.08,30.78,18.27,-1.00
17637.00,-8.19,0.31,4.47,0.12,-0.59,1.45,-30.08,30.78,18.27,-1.00
17649.00,-8.19,0.31,4.47,0.12,-0.59,1.45,-30.08,30.78,18.27,-1.00
17661.00,-8.22,-0.20,5.29,0.36,-0.63,1.54,-30.08,30.78,18.27,-1.00
17675.00,-8.22,-0.20,5.29,0.36,-0.63,1.54,-30.08,30.78,18.27,-1.00
17687.00,-7.99,-0.03,5.22,0.50,-0.61,1.62,-30.08,30.78,18.27,-1.00
17699.00,-8.05,-0.02,5.66,0.63,-0.59,1.74,-30.08,30.78,18.27,-1.00
17711.00,-8.05,-0.02,5.66,0.63,-0.59,1.74,-30.08,30.78,18.27,-1.00
17725.00,-8.54,0.99,5.20,0.51,-0.55,1.89,-30.08,30.78,18.27,-1.00
17737.00,-8.90,1.45,4.70,0.41,-0.57,1.84,-30.08,30.78,18.27,-1.00
17749.00,-8.90,1.45,4.70,0.41,-0.57,1.84,-30.08,30.78,18.27,-1.00
17761.00,-8.99,2.23,4.17,0.43,-0.56,1.60,-27.78,34.04,17.36,-1.00
17775.00,-8.99,2.23,4.17,0.43,-0.56,1.60,-27.78,34.04,17.36,-1.00
17864.00,-8.58,1.12,4.29,0.17,-0.62,0.62,-27.78,34.04,17.36,-1.00
17952.00,-8.48,-0.44,5.29,0.26,-0.72,0.93,-29.16,30.78,16.82,-1.00
18039.00,-8.43,0.34,5.37,0.43,-0.62,1.65,-28.86,30.39,15.73,-1.00
18053.00,-8.43,0.34,5.37,0.43,-0.62,1.65,-28.86,30.39,15.73,-1.00
18065.00,-8.88,1.47,4.70,0.44,-0.58,1.57,-28.86,30.39,15.73,-1.00
18077.00,-8.88,1.47,4.70,0.44,-0.58,1.57,-28.86,30.39,15.73,-1.00
18091.00,-8.86,1.43,4.25,0.52,-0.55,1.27,-28.86,30.39,15.73,-1.00
18103.00,-9.11,1.66,4.69,0.41,-0.60,0.98,-28.86,30.39,15.73,-1.00
18115.00,-9.11,1.66,4.69,0.41,-0.60,0.98,-28.86,30.39,15.73,-1.00
18127.00,-8.43,0.76,3.68,0.17,-0.59,0.67,-29.16,29.63,18.64,-1.00
18141.00,-8.56,-0.44,4.53,0.18,-0.73,0.64,-29.16,29.63,18.64,-1.00
18153.00,-8.56,-0.44,4.53,0.18,-0.73,0.64,-29.16,29.63,18.64,-1.00
18165.00,-8.49,-0.73,4.69,0.10,-0.78,0.86,-29.16,29.63,18.64,-1.00
18178.00,-8.49,-0.73,4.69,0.10,-0.78,0.86,-29.16,29.63,18.64,-1.00
18191.00,-8.34,-1.00,4.89,0.14,-0.77,1.08,-29.16,29.63,18.64,-1.00
18203.00,-8.14,-0.69,5.49,0.28,-0.74,1.36,-29.16,29.63,18.64,-1.00
18215.00,-8.14,-0.69,5.49,0.28,-0.74,1.36,-29.16,29.63,18.64,-1.00
18227.00,-8.33,-0.20,5.42,0.38,-0.69,1.50,-29.16,29.63,18.64,-1.00
18241.00,-8.41,-0.30,5.23,0.53,-0.60,1.56,-29.16,29.63,18.64,-1.00
18253.00,-8.41,-0.30,5.23,0.53,-0.60,1.56,-29.16,29.63,18.64,-1.00
18265.00,-8.73,0.40,5.11,0.42,-0.51,1.65,-29.01,30.20,16.64,-1.00
18277.00,-8.73,0.40,5.11,0.42,-0.51,1.65,-29.01,30.20,16.64,-1.00
18291.00,-8.86,1.45,4.59,0.18,-0.47,1.56,-29.01,30.20,16.64,-1.00
18303.00,-8.86,1.62,4.28,-0.01,-0.50,1.26,-29.01,30.20,16.64,-1.00
18315.00,-8.86,1.62,4.28,-0.01,-0.50,1.26,-29.01,30.20,16.64,-1.00
18329.00,-8.45,1.21,3.95,-0.09,-0.60,0.92,-29.01,30.20,16.64,-1.00
18341.00,-8.36,0.08,4.33,0.04,-0.80,0.65,-29.01,30.20,16.64,-1.00
18353.00,-8.36,0.08,4.33,0.04,-0.80,0.65,-29.01,30.20,16.64,-1.00
18365.00,-8.14,-0.23,4.58,0.21,-0.92,0.61,-29.01,30.20,16.64,-1.00
18379.00,-8.50,-1.20,4.56,0.44,-0.95,0.68,-29.32,29.43,17.36,-1.00
18391.00,-8.50,-1.20,4.56,0.44,-0.95,0.68,-29.32,29.43,17.36,-1.00
18403.00,-8.29,-1.04,4.36,0.60,-0.95,0.93,-29.32,29.43,17.36,-1.00
18415.00,-8.29,-1.04,4.36,0.60,-0.95,0.93,-29.32,29.43,17.36,-1.00
18429.00,-8.99,-0.91,4.60,0.72,-1.03,1.21,-29.32,29.43,17.36,-1.00
18441.00,-8.57,-0.33,4.77,0.64,-1.19,1.44,-29.32,29.43,17.36,-1.00
18453.00,-8.57,-0.33,4.77,0.64,-1.19,1.44,-29.32,29.43,17.36,-1.00
18465.00,-8.00,-0.06,5.85,0.66,-1.37,1.57,-29.32,29.43,17.36,-1.00
18479.00,-7.78,0.24,6.76,0.61,-1.39,1.63,-29.32,29.43,17.36,-1.00
18491.00,-7.78,0.24,6.76,0.61,-1.39,1.63,-29.32,29.43,17.36,-1.00
18503.00,-7.42,0.72,7.04,0.32,-1.10,1.59,-27.94,29.63,20.82,-1.00
18515.00,-7.42,0.72,7.04,0.32,-1.10,1.59,-27.94,29.63,20.82,-1.00
18529.00,-7.29,0.84,7.53,0.19,-0.65,1.44,-27.94,29.63,20.82,-1.00
18541.00,-8.09,0.23,7.05,0.30,-0.05,1.27,-27.94,29.63,20.82,-1.00
18553.00,-8.09,0.23,7.05,0.30,-0.05,1.27,-27.94,29.63,20.82,-1.00
18567.00,-10.15,0.27,3.45,0.27,0.36,1.19,-27.94,29.63,20.82,-1.00
18579.00,-8.45,-0.52,3.00,0.08,-0.02,1.19,-27.94,29.63,20.82,-1.00
18591.00,-8.45,-0.52,3.00,0.08,-0.02,1.19,-27.94,29.63,20.82,-1.00
18603.00,-8.15,-0.33,4.11,0.01,-0.45,1.46,-27.94,29.63,20.82,-1.00
18618.00,-8.15,-0.33,4.11,0.01,-0.45,1.46,-27.94,29.63,20.82,-1.00
18629.00,-8.46,0.60,3.74,0.38,-0.65,1.59,-27.94,31.93,18.64,-1.00
18641.00,-8.83,0.52,4.07,0.60,-0.83,1.49,-27.94,31.93,18.64,-1.00
18653.00,-8.83,0.52,4.07,0.60,-0.83,1.49,-27.94,31.93,18.64,-1.00
18667.00,-8.99,0.80,4.26,0.54,-1.11,1.36,-27.94,31.93,18.64,-1.00
18679.00,-7.80,0.75,5.95,0.42,-1.36,1.20,-27.94,31.93,18.64,-1.00
18691.00,-7.80,0.75,5.95,0.42,-1.36,1.20,-27.94,31.93,18.64,-1.00
18703.00,-7.50,0.44,7.08,0.33,-1.31,1.08,-27.94,31.93,18.64,-1.00
18717.00,-7.50,0.44,7.08,0.33,-1.31,1.08,-27.94,31.93,18.64,-1.00
18807.00,-8.31,0.56,5.35,0.68,0.04,1.15,-27.63,31.93,22.28,-1.00
18893.00,-8.18,0.34,3.95,0.31,-0.68,1.31,-28.40,30.58,19.91,-1.00
18982.00,-7.52,0.64,6.96,0.56,-1.15,1.27,-28.40,30.58,19.91,-1.00
18996.00,-7.52,0.64,6.96,0.56,-1.15,1.27,-28.40,30.58,19.91,-1.00
19008.00,-7.63,0.99,5.91,0.70,-0.81,1.19,-28.09,33.27,19.55,-1.00
19020.00,-8.27,0.99,5.51,0.68,-0.54,1.11,-28.09,33.27,19.55,-1.00
19034.00,-8.27,0.99,5.51,0.68,-0.54,1.11,-28.09,33.27,19.55,-1.00
19046.00,-8.43,0.64,5.16,0.63,-0.42,1.04,-28.09,33.27,19.55,-1.00
19058.00,-8.43,0.64,5.16,0.63,-0.42,1.04,-28.09,33.27,19.55,-1.00
19070.00,-8.48,0.25,4.63,0.55,-0.43,1.02,-28.09,33.27,19.55,-1.00
19085.00,-8.38,-0.14,4.98,0.45,-0.53,1.09,-28.09,33.27,19.55,-1.00
19096.00,-8.38,-0.14,4.98,0.45,-0.53,1.09,-28.09,33.27,19.55,-1.00
19108.00,-8.35,0.19,5.13,0.37,-0.58,1.20,-28.09,33.27,19.55,-1.00
19120.00,-8.23,0.77,5.06,0.38,-0.61,1.24,-27.94,31.54,19.73,-1.00
19134.00,-8.23,0.77,5.06,0.38,-0.61,1.24,-27.94,31.54,19.73,-1.00
19146.00,-8.24,1.06,5.45,0.42,-0.64,1.17,-27.94,31.54,19.73,-1.00
19158.00,-8.24,1.06,5.45,0.42,-0.64,1.17,-27.94,31.54,19.73,-1.00
19170.00,-7.92,0.83,6.14,0.41,-0.54,1.04,-27.94,31.54,19.73,-1.00
19184.00,-7.94,0.37,6.21,0.46,-0.30,0.97,-27.94,31.54,19.73,-1.00
19196.00,-7.94,0.37,6.21,0.46,-0.30,0.97,-27.94,31.54,19.73,-1.00
19208.00,-8.71,0.25,3.86,0.44,-0.16,0.98,-27.94,31.54,19.73,-1.00
19220.00,-8.48,-0.17,4.38,0.36,-0.43,1.09,-27.94,31.54,19.73,-1.00
19235.00,-8.48,-0.17,4.38,0.36,-0.43,1.09,-27.94,31.54,19.73,-1.00
19246.00,-8.46,-0.34,5.13,0.20,-0.56,1.31,-27.94,31.54,19.73,-1.00
19258.00,-8.46,-0.34,5.13,0.20,-0.56,1.31,-27.94,31.54,19.73,-1.00
19272.00,-8.25,0.29,5.17,0.12,-0.56,1.51,-29.16,30.39,19.36,-1.00
19284.00,-8.61,1.01,5.41,0.24,-0.55,1.50,-29.16,30.39,19.36,-1.00
19296.00,-8.61,1.01,5.41,0.24,-0.55,1.50,-29.16,30.39,19.36,-1.00
19308.00,-8.60,1.10,4.06,0.57,-0.48,1.28,-29.16,30.39,19.36,-1.00
19322.00,-8.59,1.08,3.23,0.68,-0.56,1.09,-29.16,30.39,19.36,-1.00
19334.00,-8.59,1.08,3.23,0.68,-0.56,1.09,-29.16,30.39,19.36,-1.00
19346.00,-8.34,0.28,3.71,0.64,-0.79,0.94,-29.16,30.39,19.36,-1.00
19358.00,-8.34,0.28,3.71,0.64,-0.79,0.94,-29.16,30.39,19.36,-1.00
19372.00,-9.45,-0.64,4.84,0.57,-1.05,0.99,-29.16,30.39,19.36,-1.00
19385.00,-9.01,-0.15,4.00,0.37,-1.34,1.22,-29.47,30.78,19.36,-1.00
19396.00,-9.01,-0.15,4.00,0.37,-1.34,1.22,-29.47,30.78,19.36,-1.00
19408.00,-8.33,0.50,5.70,0.18,-1.63,1.42,-29.47,30.78,19.36,-1.00
19422.00,-7.95,0.90,6.92,-0.07,-1.54,1.42,-29.47,30.78,19.36,-1.00
19434.00,-7.95,0.90,6.92,-0.07,-1.54,1.42,-29.47,30.78,19.36,-1.00
19446.00,-7.53,1.26,6.98,-0.14,-1.07,1.28,-29.47,30.78,19.36,-1.00
19460.00,-8.02,0.86,6.02,-0.10,-0.39,1.11,-29.47,30.78,19.36,-1.00
19472.00,-8.02,0.86,6.02,-0.10,-0.39,1.11,-29.47,30.78,19.36,-1.00
19484.00,-8.24,0.50,5.06,0.06,0.13,1.03,-29.47,30.78,19.36,-1.00
19496.00,-8.24,0.50,5.06,0.06,0.13,1.03,-29.47,30.78,19.36,-1.00
19511.00,-7.89,0.01,5.07,0.24,0.14,1.05,-28.55,31.16,20.46,-1.00
19522.00,-7.59,0.09,4.85,0.38,-0.14,1.13,-28.55,31.16,20.46,-1.00
19534.00,-7.59,0.09,4.85,0.38,-0.14,1.13,-28.55,31.16,20.46,-1.00
19546.00,-7.47,0.21,5.66,0.51,-0.53,1.11,-28.55,31.16,20.46,-1.00
19560.00,-7.47,-0.25,6.88,0.51,-0.80,1.07,-28.55,31.16,20.46,-1.00
19572.00,-7.47,-0.25,6.88,0.51,-0.80,1.07,-28.55,31.16,20.46,-1.00
19584.00,-7.94,-0.28,6.72,0.48,-0.73,1.14,-28.55,31.16,20.46,-1.00
19596.00,-7.94,-0.28,6.72,0.48,-0.73,1.14,-28.55,31.16,20.46,-1.00
19610.00,-8.55,0.23,4.91,0.50,-0.43,1.20,-28.55,31.16,20.46,-1.00
19622.00,-8.96,0.34,3.82,0.53,-0.39,1.19,-28.55,31.54,19.00,-1.00
19634.00,-8.96,0.34,3.82,0.53,-0.39,1.19,-28.55,31.54,19.00,-1.00
19646.00,-8.60,0.00,4.05,0.46,-0.54,1.21,-28.55,31.54,19.00,-1.00
19661.00,-8.21,0.00,5.49,0.32,-0.70,1.32,-28.55,31.54,19.00,-1.00
19672.00,-8.21,0.00,5.49,0.32,-0.70,1.32,-28.55,31.54,19.00,-1.00
19684.00,-8.05,0.26,6.14,0.25,-0.66,1.41,-28.55,31.54,19.00,-1.00
19696.00,-8.05,0.26,6.14,0.25,-0.66,1.41,-28.55,31.54,19.00,-1.00
19710.00,-8.05,0.48,5.90,0.31,-0.48,1.40,-28.55,31.54,19.00,-1.00
19722.00,-8.75,0.53,4.88,0.42,-0.30,1.34,-28.55,31.54,19.00,-1.00
19734.00,-8.75,0.53,4.88,0.42,-0.30,1.34,-28.55,31.54,19.00,-1.00
19748.00,-8.41,0.45,4.42,0.45,-0.38,1.28,-28.55,31.54,19.00,-1.00
19760.00,-8.34,0.29,4.70,0.48,-0.50,1.27,-28.40,30.97,19.18,-1.00
19772.00,-8.34,0.29,4.70,0.48,-0.50,1.27,-28.40,30.97,19.18,-1.00
19784.00,-8.41,0.41,4.91,0.45,-0.57,1.28,-28.40,30.97,19.18,-1.00
19798.00,-8.41,0.41,4.91,0.45,-0.57,1.28,-28.40,30.97,19.18,-1.00
19810.00,-8.35,0.68,4.78,0.49,-0.61,1.26,-28.40,30.97,19.18,-1.00
19822.00,-8.49,0.67,4.46,0.59,-0.63,1.22,-28.40,30.97,19.18,-1.00
19834.00,-8.49,0.67,4.46,0.59,-0.63,1.22,-28.40,30.97,19.18,-1.00
19849.00,-8.53,1.30,4.63,0.60,-0.71,1.17,-28.40,30.97,19.18,-1.00
19860.00,-8.80,1.08,4.92,0.60,-0.74,0.95,-28.40,30.97,19.18,-1.00
19872.00,-8.80,1.08,4.92,0.60,-0.74,0.95,-28.40,30.97,19.18,-1.00
19884.00,-8.56,0.60,4.39,0.44,-0.69,0.76,-28.40,30.58,18.46,-1.00
19898.00,-8.56,0.60,4.39,0.44,-0.69,0.76,-28.40,30.58,18.46,-1.00
19910.00,-8.37,-0.13,4.94,0.29,-0.74,0.74,-28.40,30.58,18.46,-1.00
19922.00,-8.49,-0.22,5.21,0.17,-0.71,0.91,-28.40,30.58,18.46,-1.00
19934.00,-8.49,-0.22,5.21,0.17,-0.71,0.91,-28.40,30.58,18.46,-1.00
19948.00,-8.23,-0.74,5.23,0.11,-0.65,1.10,-28.40,30.58,18.46,-1.00
19960.00,-8.15,-0.49,5.14,0.19,-0.62,1.35,-28.40,30.58,18.46,-1.00
19972.00,-8.15,-0.49,5.14,0.19,-0.62,1.35,-28.40,30.58,18.46,-1.00
19986.00,-8.13,0.26,5.37,0.35,-0.59,1.57,-28.40,30.58,18.46,-1.00
19998.00,-8.13,0.26,5.37,0.35,-0.59,1.57,-28.40,30.58,18.46,-1.00
20010.00,-8.22,0.26,5.39,0.44,-0.58,1.59,-29.01,32.50,18.46,-1.00
20022.00,-8.36,0.57,5.12,0.47,-0.53,1.59,-29.01,32.50,18.46,-1.00
20036.00,-8.36,0.57,5.12,0.47,-0.53,1.59,-29.01,32.50,18.46,-1.00
20048.00,-8.80,1.32,4.55,0.52,-0.51,1.48,-29.01,32.50,18.46,-1.00
20060.00,-8.71,1.19,4.26,0.52,-0.53,1.24,-29.01,32.50,18.46,-1.00
20072.00,-8.71,1.19,4.26,0.52,-0.53,1.24,-29.01,32.50,18.46,-1.00
20086.00,-8.94,1.41,4.54,0.51,-0.59,1.04,-29.01,32.50,18.46,-1.00
20098.00,-8.94,1.41,4.54,0.51,-0.59,1.04,-29.01,32.50,18.46,-1.00
20110.00,-8.65,0.94,4.20,0.28,-0.64,0.77,-29.01,32.50,18.46,-1.00
20122.00,-8.52,-0.11,4.65,0.15,-0.72,0.63,-29.01,32.50,18.46,-1.00
20136.00,-8.52,-0.11,4.65,0.15,-0.72,0.63,-29.01,32.50,18.46,-1.00
20148.00,-8.34,-0.36,4.69,0.03,-0.77,0.74,-29.78,31.54,17.91,-1.00
20160.00,-8.06,-1.02,5.28,0.07,-0.77,0.92,-29.78,31.54,17.91,-1.00
20174.00,-8.06,-1.02,5.28,0.07,-0.77,0.92,-29.78,31.54,17.91,-1.00
20186.00,-8.20,-0.85,5.67,0.18,-0.73,1.22,-29.78,31.54,17.91,-1.00
20198.00,-8.20,-0.85,5.67,0.18,-0.73,1.22,-29.78,31.54,17.91,-1.00
20210.00,-7.95,-0.20,5.35,0.30,-0.62,1.50,-29.78,31.54,17.91,-1.00
20225.00,-8.16,0.11,5.41,0.46,-0.61,1.60,-29.78,31.54,17.91,-1.00
20237.00,-8.16,0.11,5.41,0.46,-0.61,1.60,-29.78,31.54,17.91,-1.00
20249.00,-8.23,-0.16,5.22,0.61,-0.58,1.64,-29.78,31.54,17.91,-1.00
20261.00,-8.90,0.97,5.08,0.57,-0.53,1.73,-27.94,32.31,18.27,-1.00
20276.00,-8.90,0.97,5.08,0.57,-0.53,1.73,-27.94,32.31,18.27,-1.00
20287.00,-8.91,1.50,4.49,0.42,-0.49,1.54,-27.94,32.31,18.27,-1.00
20299.00,-8.91,1.50,4.49,0.42,-0.49,1.54,-27.94,32.31,18.27,-1.00
20311.00,-8.79,1.39,4.01,0.39,-0.50,1.21,-27.94,32.31,18.27,-1.00
20325.00,-8.92,1.48,4.46,0.27,-0.61,0.93,-27.94,32.31,18.27,-1.00
20337.00,-8.92,1.48,4.46,0.27,-0.61,0.93,-27.94,32.31,18.27,-1.00
20349.00,-8.59,0.32,4.39,0.04,-0.64,0.60,-27.94,32.31,18.27,-1.00
20361.00,-8.33,-0.69,4.38,0.02,-0.72,0.55,-27.94,32.31,18.27,-1.00
20375.00,-8.33,-0.69,4.38,0.02,-0.72,0.55,-27.94,32.31,18.27,-1.00
20464.00,-7.79,-0.51,5.27,0.57,-0.61,1.64,-28.70,32.12,19.91,-1.00
20551.00,-8.74,0.56,3.90,0.05,-0.66,0.87,-28.24,31.93,18.64,-1.00
20566.00,-8.40,-0.94,5.06,-0.09,-0.78,0.76,-28.24,31.93,18.64,-1.00
20577.00,-8.40,-0.94,5.06,-0.09,-0.78,0.76,-28.24,31.93,18.64,-1.00
20589.00,-8.25,-1.56,5.93,-0.04,-0.75,1.02,-28.24,31.93,18.64,-1.00
20601.00,-8.18,-0.06,5.02,0.14,-0.60,1.42,-28.24,31.93,18.64,-1.00
20615.00,-8.18,-0.06,5.02,0.14,-0.60,1.42,-28.24,31.93,18.64,-1.00
20627.00,-8.38,0.56,5.13,0.37,-0.62,1.50,-28.24,31.93,18.64,-1.00
20639.00,-8.38,0.56,5.13,0.37,-0.62,1.50,-28.24,31.93,18.64,-1.00
20651.00,-8.29,0.07,5.03,0.51,-0.63,1.41,-29.78,33.08,19.73,-1.00
20665.00,-8.72,0.48,4.82,0.66,-0.61,1.38,-29.78,33.08,19.73,-1.00
20677.00,-8.72,0.48,4.82,0.66,-0.61,1.38,-29.78,33.08,19.73,-1.00
20689.00,-8.73,1.02,4.47,0.68,-0.60,1.26,-29.78,33.08,19.73,-1.00
20701.00,-8.94,1.25,4.55,0.61,-0.61,1.06,-29.78,33.08,19.73,-1.00
20716.00,-8.94,1.25,4.55,0.61,-0.61,1.06,-29.78,33.08,19.73,-1.00
20727.00,-8.61,0.58,4.15,0.27,-0.65,0.77,-29.78,33.08,19.73,-1.00
20739.00,-8.61,0.58,4.15,0.27,-0.65,0.77,-29.78,33.08,19.73,-1.00
20751.00,-8.57,-0.80,4.44,0.20,-0.71,0.62,-29.78,33.08,19.73,-1.00
20765.00,-8.36,-1.22,4.63,0.19,-0.75,0.84,-29.16,31.16,20.46,-1.00
20777.00,-8.36,-1.22,4.63,0.19,-0.75,0.84,-29.16,31.16,20.46,-1.00
20789.00,-8.52,-1.39,4.98,0.27,-0.78,1.15,-29.16,31.16,20.46,-1.00
20803.00,-8.87,-0.43,4.11,0.35,-0.69,1.48,-29.16,31.16,20.46,-1.00
20815.00,-8.87,-0.43,4.11,0.35,-0.69,1.48,-29.16,31.16,20.46,-1.00
20827.00,-8.44,0.33,4.81,0.44,-0.86,1.63,-29.16,31.16,20.46,-1.00
20839.00,-8.44,0.33,4.81,0.44,-0.86,1.63,-29.16,31.16,20.46,-1.00
20853.00,-7.70,0.41,6.14,0.42,-0.98,1.63,-29.16,31.16,20.46,-1.00
20865.00,-7.57,0.49,6.67,0.35,-0.81,1.62,-29.16,31.16,20.46,-1.00
20877.00,-7.57,0.49,6.67,0.35,-0.81,1.62,-29.16,31.16,20.46,-1.00
20889.00,-7.72,0.63,6.84,0.33,-0.52,1.55,-28.09,33.27,18.82,-1.00
20903.00,-8.81,0.94,4.51,0.38,-0.33,1.35,-28.09,33.27,18.82,-1.00
20915.00,-8.81,0.94,4.51,0.38,-0.33,1.35,-28.09,33.27,18.82,-1.00
20927.00,-8.71,0.56,4.08,0.50,-0.41,1.14,-28.09,33.27,18.82,-1.00
20939.00,-8.71,0.56,4.08,0.50,-0.41,1.14,-28.09,33.27,18.82,-1.00
20953.00,-8.67,-0.28,4.69,0.66,-0.53,1.04,-28.09,33.27,18.82,-1.00
20965.00,-8.86,1.64,4.43,0.68,-0.63,1.10,-28.09,33.27,18.82,-1.00
20977.00,-8.86,1.64,4.43,0.68,-0.63,1.10,-28.09,33.27,18.82,-1.00
20989.00,-8.95,0.87,4.53,0.49,-0.71,0.81,-28.09,33.27,18.82,-1.00
21003.00,-8.57,-0.62,4.82,0.29,-0.67,0.63,-29.32,30.97,20.27,-1.00
21016.00,-8.57,-0.62,4.82,0.29,-0.67,0.63,-29.32,30.97,20.27,-1.00
21027.00,-8.43,-1.22,4.69,0.16,-0.63,0.80,-29.32,30.97,20.27,-1.00
21041.00,-8.48,-1.19,4.40,0.27,-0.61,1.13,-29.32,30.97,20.27,-1.00
21053.00,-8.48,-1.19,4.40,0.27,-0.61,1.13,-29.32,30.97,20.27,-1.00
21065.00,-8.73,-0.70,4.97,0.41,-0.64,1.49,-29.32,30.97,20.27,-1.00
21077.00,-8.73,-0.70,4.97,0.41,-0.64,1.49,-29.32,30.97,20.27,-1.00
21091.00,-8.54,0.50,4.74,0.52,-0.64,1.71,-29.32,30.97,20.27,-1.00
21103.00,-8.68,0.96,4.58,0.52,-0.76,1.70,-29.32,30.97,20.27,-1.00
21115.00,-8.68,0.96,4.58,0.52,-0.76,1.70,-29.32,30.97,20.27,-1.00
21127.00,-7.91,1.03,5.51,0.39,-0.96,1.54,-29.32,30.97,20.27,-1.00
21142.00,-8.19,1.20,4.69,0.27,-0.80,1.41,-28.86,32.31,21.55,-1.00
21153.00,-8.19,1.20,4.69,0.27,-0.80,1.41,-28.86,32.31,21.55,-1.00
21165.00,-8.35,0.97,4.62,0.31,-0.65,1.29,-28.86,32.31,21.55,-1.00
21177.00,-8.35,0.97,4.62,0.31,-0.65,1.29,-28.86,32.31,21.55,-1.00
21191.00,-8.21,0.47,5.12,0.34,-0.70,1.17,-28.86,32.31,21.55,-1.00
21203.00,-8.09,-0.19,5.83,0.40,-0.79,1.10,-28.86,32.31,21.55,-1.00
21215.00,-8.09,-0.19,5.83,0.40,-0.79,1.10,-28.86,32.31,21.55,-1.00
21227.00,-7.86,-0.14,6.06,0.40,-0.76,1.08,-28.86,32.31,21.55,-1.00
21241.00,-8.23,0.25,6.17,0.45,-0.63,1.09,-28.86,32.31,21.55,-1.00
21331.00,-8.40,-1.07,5.13,0.25,-0.68,0.96,-29.32,33.65,20.27,-1.00
21419.00,-8.45,0.34,4.97,0.41,-0.59,1.57,-28.55,33.84,21.55,-1.00
21432.00,-8.89,0.80,4.83,0.35,-0.58,1.51,-28.55,33.84,21.55,-1.00
21444.00,-9.04,1.01,4.38,0.41,-0.53,1.30,-28.55,33.84,21.55,-1.00
21456.00,-9.04,1.01,4.38,0.41,-0.53,1.30,-28.55,33.84,21.55,-1.00
21468.00,-8.71,0.92,3.81,0.55,-0.51,1.12,-28.55,33.84,21.55,-1.00
21483.00,-8.85,1.00,4.56,0.49,-0.66,1.02,-28.55,33.84,21.55,-1.00
21494.00,-8.85,1.00,4.56,0.49,-0.66,1.02,-28.55,33.84,21.55,-1.00
21506.00,-8.65,0.62,4.06,0.24,-0.69,0.82,-27.94,33.46,20.82,-1.00
21518.00,-8.65,0.62,4.06,0.24,-0.69,0.82,-27.94,33.46,20.82,-1.00
21532.00,-8.59,-0.51,4.80,0.14,-0.73,0.75,-27.94,33.46,20.82,-1.00
21544.00,-8.23,-0.74,5.02,0.07,-0.72,0.96,-27.94,33.46,20.82,-1.00
21556.00,-8.23,-0.74,5.02,0.07,-0.72,0.96,-27.94,33.46,20.82,-1.00
21568.00,-8.09,-0.53,5.49,0.14,-0.70,1.27,-27.94,33.46,20.82,-1.00
21582.00,-8.16,0.21,5.44,0.25,-0.66,1.50,-27.94,33.46,20.82,-1.00
21594.00,-8.16,0.21,5.44,0.25,-0.66,1.50,-27.94,33.46,20.82,-1.00
21606.00,-8.40,0.48,5.17,0.41,-0.63,1.51,-27.94,33.46,20.82,-1.00
21618.00,-8.40,0.48,5.17,0.41,-0.63,1.51,-27.94,33.46,20.82,-1.00
21633.00,-8.23,-0.17,5.17,0.49,-0.60,1.50,-27.94,33.46,20.82,-1.00
21644.00,-8.61,0.31,5.15,0.48,-0.57,1.59,-28.24,32.31,20.46,-1.00
21656.00,-8.61,0.31,5.15,0.48,-0.57,1.59,-28.24,32.31,20.46,-1.00
21670.00,-9.03,1.18,4.67,0.47,-0.51,1.52,-28.24,32.31,20.46,-1.00
21682.00,-8.82,0.94,3.78,0.51,-0.46,1.24,-28.24,32.31,20.46,-1.00
21694.00,-8.82,0.94,3.78,0.51,-0.46,1.24,-28.24,32.31,20.46,-1.00
21706.00,-9.04,1.42,4.26,0.53,-0.56,1.06,-28.24,32.31,20.46,-1.00
21720.00,-9.04,1.42,4.26,0.53,-0.56,1.06,-28.24,32.31,20.46,-1.00
21732.00,-8.78,0.81,4.01,0.25,-0.65,0.80,-28.24,32.31,20.46,-1.00
21744.00,-8.45,-0.28,4.19,0.14,-0.72,0.70,-28.24,32.31,20.46,-1.00
21756.00,-8.45,-0.28,4.19,0.14,-0.72,0.70,-28.24,32.31,20.46,-1.00
21770.00,-8.32,-0.79,5.30,0.10,-0.79,0.91,-28.55,33.46,19.36,-1.00
21783.00,-8.31,-0.49,5.33,0.10,-0.74,1.20,-28.55,33.46,19.36,-1.00
21795.00,-8.31,-0.49,5.33,0.10,-0.74,1.20,-28.55,33.46,19.36,-1.00
21807.00,-8.18,0.23,5.38,0.19,-0.70,1.38,-28.55,33.46,19.36,-1.00
21821.00,-8.27,-0.13,5.54,0.32,-0.65,1.41,-28.55,33.46,19.36,-1.00
21833.00,-8.27,-0.13,5.54,0.32,-0.65,1.41,-28.55,33.46,19.36,-1.00
21845.00,-8.32,-0.07,5.05,0.47,-0.58,1.48,-28.55,33.46,19.36,-1.00
21859.00,-8.32,-0.07,5.05,0.47,-0.58,1.48,-28.55,33.46,19.36,-1.00
21871.00,-8.70,0.00,5.17,0.60,-0.53,1.58,-28.55,33.46,19.36,-1.00
21883.00,-8.93,0.88,4.51,0.55,-0.42,1.64,-28.55,34.99,20.82,-1.00
21895.00,-8.93,0.88,4.51,0.55,-0.42,1.64,-28.55,34.99,20.82,-1.00
21910.00,-8.96,1.20,3.85,0.38,-0.40,1.46,-28.55,34.99,20.82,-1.00
21921.00,-8.96,1.28,3.85,0.27,-0.48,1.22,-28.55,34.99,20.82,-1.00
21933.00,-8.96,1.28,3.85,0.27,-0.48,1.22,-28.55,34.99,20.82,-1.00
21945.00,-8.64,1.00,3.94,0.20,-0.60,1.00,-28.55,34.99,20.82,-1.00
21959.00,-8.64,1.00,3.94,0.20,-0.60,1.00,-28.55,34.99,20.82,-1.00
21971.00,-8.54,0.57,4.34,0.21,-0.73,0.85,-28.55,34.99,20.82,-1.00
21983.00,-8.36,0.04,4.85,0.23,-0.80,0.82,-28.55,34.99,20.82,-1.00
21995.00,-8.36,0.04,4.85,0.23,-0.80,0.82,-28.55,34.99,20.82,-1.00
22009.00,-8.37,-0.11,5.40,0.27,-0.83,0.93,-29.01,33.27,20.27,-1.00
22021.00,-8.37,-0.11,5.40,0.27,-0.83,0.93,-29.01,33.27,20.27,-1.00
22033.00,-8.42,-0.48,5.67,0.26,-0.77,1.05,-29.01,33.27,20.27,-1.00
22045.00,-8.41,-0.39,5.18,0.30,-0.65,1.19,-29.01,33.27,20.27,-1.00
22060.00,-8.41,-0.39,5.18,0.30,-0.65,1.19,-29.01,33.27,20.27,-1.00
22071.00,-8.47,-0.04,4.81,0.41,-0.59,1.32,-29.01,33.27,20.27,-1.00
22083.00,-8.54,0.18,4.66,0.49,-0.58,1.40,-29.01,33.27,20.27,-1.00
22098.00,-8.54,0.18,4.66,0.49,-0.58,1.40,-29.01,33.27,20.27,-1.00
22109.00,-8.78,-0.11,5.07,0.44,-0.59,1.46,-29.01,33.27,20.27,-1.00
22121.00,-8.78,-0.11,5.07,0.44,-0.59,1.46,-29.01,33.27,20.27,-1.00
22133.00,-8.84,0.13,4.61,0.14,-0.53,1.56,-29.01,33.27,20.27,-1.00
22147.00,-8.78,1.11,3.85,-0.02,-0.50,1.53,-26.71,34.61,19.36,-1.00
22159.00,-8.78,1.11,3.85,-0.02,-0.50,1.53,-26.71,34.61,19.36,-1.00
22171.00,-8.89,1.12,4.37,0.01,-0.59,1.29,-26.71,34.61,19.36,-1.00
22183.00,-8.78,0.92,3.94,0.09,-0.64,1.01,-26.71,34.61,19.36,-1.00
22197.00,-8.78,0.92,3.94,0.09,-0.64,1.01,-26.71,34.61,19.36,-1.00
22210.00,-8.71,0.57,3.78,0.09,-0.73,0.79,-26.71,34.61,19.36,-1.00
22221.00,-8.71,0.57,3.78,0.09,-0.73,0.79,-26.71,34.61,19.36,-1.00
22233.00,-8.44,0.16,4.47,0.05,-0.87,0.69,-26.71,34.61,19.36,-1.00
22248.00,-8.52,-0.55,5.37,0.02,-0.92,0.77,-26.71,34.61,19.36,-1.00
22259.00,-8.52,-0.55,5.37,0.02,-0.92,0.77,-26.71,34.61,19.36,-1.00
22271.00,-8.34,-1.13,5.89,0.01,-0.81,0.98,-28.09,32.12,21.37,-1.00
22283.00,-8.25,-1.05,5.21,0.06,-0.66,1.25,-28.09,32.12,21.37,-1.00
22297.00,-8.25,-1.05,5.21,0.06,-0.66,1.25,-28.09,32.12,21.37,-1.00
22309.00,-8.27,-0.29,5.10,0.23,-0.59,1.49,-28.09,32.12,21.37,-1.00
22321.00,-8.27,-0.29,5.10,0.23,-0.59,1.49,-28.09,32.12,21.37,-1.00
22335.00,-8.22,-0.46,5.45,0.38,-0.59,1.59,-28.09,32.12,21.37,-1.00
22347.00,-8.42,-0.15,5.29,0.54,-0.53,1.68,-28.09,32.12,21.37,-1.00
22359.00,-8.42,-0.15,5.29,0.54,-0.53,1.68,-28.09,32.12,21.37,-1.00
22371.00,-9.08,0.67,4.84,0.76,-0.46,1.63,-28.09,32.12,21.37,-1.00
22385.00,-8.99,1.48,2.61,0.76,-0.40,1.36,-27.32,35.38,20.46,-1.00
22397.00,-8.99,1.48,2.61,0.76,-0.40,1.36,-27.32,35.38,20.46,-1.00
22409.00,-9.17,1.51,3.14,0.64,-0.63,1.02,-27.32,35.38,20.46,-1.00
22421.00,-9.17,1.51,3.14,0.64,-0.63,1.02,-27.32,35.38,20.46,-1.00
22435.00,-8.98,-0.56,4.44,0.36,-0.86,0.64,-27.32,35.38,20.46,-1.00
22447.00,-8.49,-2.00,5.56,0.16,-0.86,0.71,-27.32,35.38,20.46,-1.00
22459.00,-8.49,-2.00,5.56,0.16,-0.86,0.71,-27.32,35.38,20.46,-1.00
22471.00,-8.04,-1.77,4.98,0.19,-0.69,1.25,-27.32,35.38,20.46,-1.00
22485.00,-8.78,0.33,2.49,0.50,-0.62,1.74,-27.32,35.38,20.46,-1.00
22497.00,-8.78,0.33,2.49,0.50,-0.62,1.74,-27.32,35.38,20.46,-1.00
22509.00,-9.57,1.92,2.20,0.66,-1.19,1.72,-27.32,35.38,20.46,-1.00
22521.00,-9.57,1.92,2.20,0.66,-1.19,1.72,-27.32,35.38,20.46,-1.00
22535.00,-8.28,1.51,4.54,0.42,-1.91,1.42,-27.02,35.38,21.55,-1.00
22547.00,-7.57,1.13,7.18,0.13,-2.09,1.20,-27.02,35.38,21.55,-1.00
22559.00,-7.57,1.13,7.18,0.13,-2.09,1.20,-27.02,35.38,21.55,-1.00
22573.00,-7.32,1.03,7.82,0.13,-1.68,0.99,-27.02,35.38,21.55,-1.00
22585.00,-7.48,1.24,7.41,0.27,-1.12,0.79,-27.02,35.38,21.55,-1.00
22597.00,-7.48,1.24,7.41,0.27,-1.12,0.79,-27.02,35.38,21.55,-1.00
22609.00,-7.65,0.77,7.38,0.55,-0.70,0.60,-27.02,35.38,21.55,-1.00
22623.00,-8.25,-0.15,6.11,0.86,-0.21,0.47,-27.02,35.38,21.55,-1.00
22635.00,-8.25,-0.15,6.11,0.86,-0.21,0.47,-27.02,35.38,21.55,-1.00
22647.00,-8.84,-1.13,5.10,1.08,0.17,0.46,-26.87,32.50,23.91,-1.00
22659.00,-8.84,-1.13,5.10,1.08,0.17,0.46,-26.87,32.50,23.91,-1.00
22674.00,-8.98,-1.05,3.43,0.92,0.34,0.65,-26.87,32.50,23.91,-1.00
22685.00,-8.30,-1.08,3.31,0.83,0.05,0.88,-26.87,32.50,23.91,-1.00
22697.00,-8.30,-1.08,3.31,0.83,0.05,0.88,-26.87,32.50,23.91,-1.00
22709.00,-8.16,-1.32,4.69,0.72,-0.46,1.11,-26.87,32.50,23.91,-1.00
22723.00,-7.49,-1.05,5.95,0.60,-0.76,1.33,-26.87,32.50,23.91,-1.00
22735.00,-7.49,-1.05,5.95,0.60,-0.76,1.33,-26.87,32.50,23.91,-1.00
22747.00,-7.51,-0.32,6.63,0.57,-0.89,1.42,-26.87,32.50,23.91,-1.00
22759.00,-7.51,-0.32,6.63,0.57,-0.89,1.42,-26.87,32.50,23.91,-1.00
22773.00,-8.09,0.02,6.65,0.65,-0.79,1.31,-28.40,32.50,21.37,-1.00
22785.00,-8.87,0.12,4.95,0.69,-0.42,1.20,-28.40,32.50,21.37,-1.00
22798.00,-8.87,0.12,4.95,0.69,-0.42,1.20,-28.40,32.50,21.37,-1.00
22812.00,-8.56,0.13,4.37,0.64,-0.26,1.21,-28.40,32.50,21.37,-1.00
22824.00,-8.45,0.08,4.50,0.56,-0.33,1.29,-28.40,32.50,21.37,-1.00
22836.00,-8.45,0.08,4.50,0.56,-0.33,1.29,-28.40,32.50,21.37,-1.00
22848.00,-8.49,-0.01,4.91,0.51,-0.45,1.35,-28.40,32.50,21.37,-1.00
22862.00,-8.78,0.26,4.66,0.43,-0.44,1.40,-28.40,32.50,21.37,-1.00
22949.00,-8.35,-0.09,5.06,0.52,-0.61,1.24,-28.40,34.80,20.27,-1.00
23036.00,-8.83,1.21,4.29,0.80,-0.66,1.11,-28.40,34.80,18.82,-1.00
23125.00,-8.02,-0.72,5.21,-0.04,-0.69,1.25,-28.40,34.80,18.82,-1.00
23139.00,-8.02,-0.72,5.21,-0.04,-0.69,1.25,-28.40,34.80,18.82,-1.00
23151.00,-8.03,0.38,5.34,0.13,-0.65,1.53,-26.87,32.50,19.91,-1.00
23163.00,-8.33,0.13,5.66,0.29,-0.65,1.53,-26.87,32.50,19.91,-1.00
23175.00,-8.33,0.13,5.66,0.29,-0.65,1.53,-26.87,32.50,19.91,-1.00
23189.00,-8.09,-0.28,5.24,0.36,-0.57,1.52,-26.87,32.50,19.91,-1.00
23201.00,-8.09,-0.28,5.24,0.36,-0.57,1.52,-26.87,32.50,19.91,-1.00
23213.00,-9.10,0.90,5.15,0.44,-0.52,1.55,-26.87,32.50,19.91,-1.00
23225.00,-8.81,1.09,3.76,0.53,-0.40,1.32,-26.87,32.50,19.91,-1.00
23240.00,-8.81,1.09,3.76,0.53,-0.40,1.32,-26.87,32.50,19.91,-1.00
23251.00,-9.24,1.52,4.16,0.56,-0.49,1.11,-26.87,32.50,19.91,-1.00
23263.00,-8.95,0.99,4.30,0.30,-0.53,0.76,-28.70,32.89,19.18,-1.00
23277.00,-8.95,0.99,4.30,0.30,-0.53,0.76,-28.70,32.89,19.18,-1.00
23289.00,-8.39,-0.07,4.67,0.27,-0.61,0.46,-28.70,32.89,19.18,-1.00
23301.00,-8.39,-0.07,4.67,0.27,-0.61,0.46,-28.70,32.89,19.18,-1.00
23313.00,-7.98,0.09,4.64,0.45,-0.68,0.42,-28.70,32.89,19.18,-1.00
23327.00,-8.28,0.38,5.38,0.85,-0.75,0.49,-28.70,32.89,19.18,-1.00
23339.00,-8.28,0.38,5.38,0.85,-0.75,0.49,-28.70,32.89,19.18,-1.00
23351.00,-7.86,-1.68,5.98,0.99,-0.73,0.50,-28.70,32.89,19.18,-1.00
23363.00,-7.96,-0.96,5.58,0.88,-0.64,0.92,-28.70,32.89,19.18,-1.00
23377.00,-7.96,-0.96,5.58,0.88,-0.64,0.92,-28.70,32.89,19.18,-1.00
23389.00,-8.50,-0.69,4.46,0.86,-0.59,1.26,-29.78,31.54,18.27,-1.00
23401.00,-8.50,-0.69,4.46,0.86,-0.59,1.26,-29.78,31.54,18.27,-1.00
23413.00,-8.69,0.32,4.14,0.63,-0.62,1.43,-29.78,31.54,18.27,-1.00
23428.00,-8.65,-0.48,4.63,0.34,-0.72,1.53,-29.78,31.54,18.27,-1.00
23439.00,-8.65,-0.48,4.63,0.34,-0.72,1.53,-29.78,31.54,18.27,-1.00
23451.00,-8.57,0.14,4.66,0.05,-0.72,1.70,-29.78,31.54,18.27,-1.00
23465.00,-8.45,-0.32,5.26,-0.17,-0.69,1.76,-29.78,31.54,18.27,-1.00
23477.00,-8.45,-0.32,5.26,-0.17,-0.69,1.76,-29.78,31.54,18.27,-1.00
23489.00,-8.59,0.06,5.56,-0.28,-0.61,1.91,-29.78,31.54,18.27,-1.00
23501.00,-8.59,0.06,5.56,-0.28,-0.61,1.91,-29.78,31.54,18.27,-1.00
23515.00,-8.41,0.64,4.69,-0.17,-0.51,1.93,-29.78,31.54,18.27,-1.00
23527.00,-8.79,1.61,3.97,0.21,-0.51,1.75,-28.40,34.04,19.55,-1.00
23539.00,-8.79,1.61,3.97,0.21,-0.51,1.75,-28.40,34.04,19.55,-1.00
23551.00,-8.80,1.35,3.90,0.40,-0.60,1.37,-28.40,34.04,19.55,-1.00
23565.00,-8.73,0.76,4.66,0.51,-0.69,1.06,-28.40,34.04,19.55,-1.00
23577.00,-8.73,0.76,4.66,0.51,-0.69,1.06,-28.40,34.04,19.55,-1.00
23589.00,-8.90,0.93,4.94,0.42,-0.75,0.91,-28.40,34.04,19.55,-1.00
23601.00,-8.90,0.93,4.94,0.42,-0.75,0.91,-28.40,34.04,19.55,-1.00
23615.00,-8.54,0.56,4.23,0.14,-0.76,0.72,-28.40,34.04,19.55,-1.00
23627.00,-8.34,-0.77,5.39,0.05,-0.83,0.69,-28.40,34.04,19.55,-1.00
23639.00,-8.34,-0.77,5.39,0.05,-0.83,0.69,-28.40,34.04,19.55,-1.00
23651.00,-8.28,-1.04,6.00,0.02,-0.76,0.96,-29.16,33.08,20.09,-1.00
23665.00,-8.20,-0.88,5.21,0.10,-0.59,1.29,-29.16,33.08,20.09,-1.00
23677.00,-8.20,-0.88,5.21,0.10,-0.59,1.29,-29.16,33.08,20.09,-1.00
23689.00,-8.35,-0.16,5.01,0.30,-0.51,1.54,-29.16,33.08,20.09,-1.00
23704.00,-8.46,0.10,4.75,0.43,-0.50,1.62,-29.16,33.08,20.09,-1.00
23715.00,-8.46,0.10,4.75,0.43,-0.50,1.62,-29.16,33.08,20.09,-1.00
23727.00,-8.78,0.71,4.47,0.52,-0.50,1.57,-29.16,33.08,20.09,-1.00
23739.00,-8.78,0.71,4.47,0.52,-0.50,1.57,-29.16,33.08,20.09,-1.00
23753.00,-8.79,1.04,4.21,0.54,-0.51,1.40,-29.16,33.08,20.09,-1.00
23765.00,-8.95,0.94,4.01,0.43,-0.56,1.17,-28.86,33.46,20.46,-1.00
23777.00,-8.95,0.94,4.01,0.43,-0.56,1.17,-28.86,33.46,20.46,-1.00
23789.00,-8.69,0.19,3.94,0.20,-0.63,0.98,-28.86,33.46,20.46,-1.00
23803.00,-8.48,-0.23,4.79,0.14,-0.71,0.99,-28.86,33.46,20.46,-1.00
23815.00,-8.48,-0.23,4.79,0.14,-0.71,0.99,-28.86,33.46,20.46,-1.00
23827.00,-8.37,-0.18,5.32,0.10,-0.75,1.12,-28.86,33.46,20.46,-1.00
23839.00,-8.37,-0.18,5.32,0.10,-0.75,1.12,-28.86,33.46,20.46,-1.00
23854.00,-8.36,0.04,5.27,0.09,-0.70,1.24,-28.86,33.46,20.46,-1.00
23865.00,-8.38,-0.22,5.55,0.12,-0.65,1.28,-28.86,33.46,20.46,-1.00
23877.00,-8.38,-0.22,5.55,0.12,-0.65,1.28,-28.86,33.46,20.46,-1.00
23889.00,-8.33,-0.41,5.13,0.21,-0.57,1.33,-27.17,34.80,21.73,-1.00
23903.00,-8.17,-0.48,4.78,0.35,-0.54,1.45,-27.17,34.80,21.73,-1.00
23915.00,-8.17,-0.48,4.78,0.35,-0.54,1.45,-27.17,34.80,21.73,-1.00
23927.00,-8.67,0.28,4.69,0.51,-0.56,1.59,-27.17,34.80,21.73,-1.00
23941.00,-8.67,0.28,4.69,0.51,-0.56,1.59,-27.17,34.80,21.73,-1.00
23953.00,-8.82,1.29,3.87,0.65,-0.59,1.54,-27.17,34.80,21.73,-1.00
23965.00,-8.48,1.78,2.35,0.69,-0.64,1.31,-27.17,34.80,21.73,-1.00
23977.00,-8.48,1.78,2.35,0.69,-0.64,1.31,-27.17,34.80,21.73,-1.00
23991.00,-9.29,0.91,3.80,0.63,-1.03,0.89,-27.17,34.80,21.73,-1.00
24003.00,-9.49,-0.49,5.80,0.22,-1.21,0.56,-27.17,34.80,21.73,-1.00
24015.00,-9.49,-0.49,5.80,0.22,-1.21,0.56,-27.17,34.80,21.73,-1.00
24027.00,-8.42,-1.26,5.33,0.01,-1.04,0.64,-27.02,33.84,22.28,-1.00
24042.00,-8.42,-1.26,5.33,0.01,-1.04,0.64,-27.02,33.84,22.28,-1.00
24053.00,-8.10,-0.98,5.80,0.06,-0.98,1.07,-27.02,33.84,22.28,-1.00
24065.00,-8.28,0.48,5.14,0.19,-0.76,1.48,-27.02,33.84,22.28,-1.00
24077.00,-8.28,0.48,5.14,0.19,-0.76,1.48,-27.02,33.84,22.28,-1.00
24091.00,-7.94,0.99,4.68,0.37,-0.63,1.51,-27.02,33.84,22.28,-1.00
24103.00,-7.94,0.99,4.68,0.37,-0.63,1.51,-27.02,33.84,22.28,-1.00
24115.00,-7.83,0.43,5.56,0.51,-0.69,1.36,-27.02,33.84,22.28,-1.00
24129.00,-7.88,-0.12,6.50,0.57,-0.61,1.29,-27.02,33.84,22.28,-1.00
24141.00,-7.88,-0.12,6.50,0.57,-0.61,1.29,-27.02,33.84,22.28,-1.00
24153.00,-10.04,-0.04,5.51,0.57,-0.31,1.34,-27.78,34.04,22.09,-1.00
24165.00,-8.61,0.05,4.13,0.43,-0.23,1.28,-27.78,34.04,22.09,-1.00
24179.00,-8.61,0.05,4.13,0.43,-0.23,1.28,-27.78,34.04,22.09,-1.00
24191.00,-8.80,0.45,4.30,0.46,-0.38,1.25,-27.78,34.04,22.09,-1.00
24203.00,-8.80,0.45,4.30,0.46,-0.38,1.25,-27.78,34.04,22.09,-1.00
24215.00,-8.84,0.20,4.18,0.51,-0.46,1.17,-27.78,34.04,22.09,-1.00
24229.00,-8.93,1.12,3.74,0.51,-0.52,1.12,-27.78,34.04,22.09,-1.00
24241.00,-8.93,1.12,3.74,0.51,-0.52,1.12,-27.78,34.04,22.09,-1.00
24253.00,-8.67,0.69,4.12,0.29,-0.67,0.91,-27.78,34.04,22.09,-1.00
24265.00,-8.38,-0.87,4.85,0.19,-0.75,0.77,-28.55,33.84,21.18,-1.00
24279.00,-8.38,-0.87,4.85,0.19,-0.75,0.77,-28.55,33.84,21.18,-1.00
24291.00,-8.26,-0.87,5.42,0.17,-0.76,1.04,-28.55,33.84,21.18,-1.00
24303.00,-8.26,-0.87,5.42,0.17,-0.76,1.04,-28.55,33.84,21.18,-1.00
24315.00,-8.24,-0.00,5.56,0.19,-0.72,1.31,-28.55,33.84,21.18,-1.00
24329.00,-8.23,0.06,5.29,0.31,-0.65,1.41,-28.55,33.84,21.18,-1.00
24341.00,-8.23,0.06,5.29,0.31,-0.65,1.41,-28.55,33.84,21.18,-1.00
24353.00,-8.37,0.03,5.25,0.41,-0.61,1.45,-28.55,33.84,21.18,-1.00
24367.00,-8.33,0.06,5.26,0.45,-0.59,1.48,-28.55,33.84,21.18,-1.00
24379.00,-8.33,0.06,5.26,0.45,-0.59,1.48,-28.55,33.84,21.18,-1.00
24391.00,-8.99,0.32,4.79,0.37,-0.51,1.54,-27.32,34.61,20.82,-1.00
24403.00,-8.99,0.32,4.79,0.37,-0.51,1.54,-27.32,34.61,20.82,-1.00
24417.00,-8.92,0.73,4.17,0.27,-0.44,1.45,-27.32,34.61,20.82,-1.00
24429.00,-8.89,0.68,3.74,0.22,-0.47,1.27,-27.32,34.61,20.82,-1.00
24441.00,-8.89,0.68,3.74,0.22,-0.47,1.27,-27.32,34.61,20.82,-1.00
24453.00,-8.76,0.95,3.83,0.25,-0.56,1.14,-27.32,34.61,20.82,-1.00
24468.00,-8.51,0.65,4.17,0.23,-0.68,0.96,-27.32,34.61,20.82,-1.00
24479.00,-8.51,0.65,4.17,0.23,-0.68,0.96,-27.32,34.61,20.82,-1.00
24491.00,-8.32,0.05,4.99,0.21,-0.78,0.85,-27.32,34.61,20.82,-1.00
24503.00,-8.32,0.05,4.99,0.21,-0.78,0.85,-27.32,34.61,20.82,-1.00
24517.00,-8.34,-0.24,5.40,0.26,-0.79,0.90,-27.32,34.61,20.82,-1.00
24529.00,-8.42,-0.48,5.49,0.31,-0.73,1.03,-27.94,33.84,20.82,-1.00
24541.00,-8.42,-0.48,5.49,0.31,-0.73,1.03,-27.94,33.84,20.82,-1.00
24553.00,-8.40,-0.40,5.17,0.33,-0.64,1.17,-27.94,33.84,20.82,-1.00
24567.00,-8.43,-0.06,4.88,0.38,-0.60,1.29,-27.94,33.84,20.82,-1.00
24579.00,-8.43,-0.06,4.88,0.38,-0.60,1.29,-27.94,33.84,20.82,-1.00
24591.00,-8.60,0.15,4.64,0.40,-0.59,1.35,-27.94,33.84,20.82,-1.00
24605.00,-8.76,0.09,4.45,0.31,-0.59,1.38,-27.94,33.84,20.82,-1.00
24617.00,-8.76,0.09,4.45,0.31,-0.59,1.38,-27.94,33.84,20.82,-1.00
24629.00,-8.81,-0.36,4.54,0.27,-0.57,1.44,-27.94,33.84,20.82,-1.00
24642.00,-8.81,-0.36,4.54,0.27,-0.57,1.44,-27.94,33.84,20.82,-1.00
24655.00,-8.71,0.69,4.13,0.29,-0.53,1.52,-28.24,34.23,20.82,-1.00
24667.00,-8.98,0.98,4.48,0.26,-0.63,1.32,-28.24,34.23,20.82,-1.00
24679.00,-8.98,0.98,4.48,0.26,-0.63,1.32,-28.24,34.23,20.82,-1.00
24691.00,-8.77,0.70,4.08,0.27,-0.64,1.04,-28.24,34.23,20.82,-1.00
24705.00,-8.74,0.29,4.20,0.21,-0.72,0.88,-28.24,34.23,20.82,-1.00
24717.00,-8.74,0.29,4.20,0.21,-0.72,0.88,-28.24,34.23,20.82,-1.00
24729.00,-8.33,-0.26,4.56,0.14,-0.79,0.81,-28.24,34.23,20.82,-1.00
24741.00,-8.33,-0.26,4.56,0.14,-0.79,0.81,-28.24,34.23,20.82,-1.00
24755.00,-8.37,-0.68,5.91,0.10,-0.86,0.94,-28.24,34.23,20.82,-1.00
24767.00,-8.35,-0.79,5.94,0.08,-0.75,1.14,-27.32,33.84,21.55,-1.00
24779.00,-8.35,-0.79,5.94,0.08,-0.75,1.14,-27.32,33.84,21.55,-1.00
24791.00,-8.37,-0.64,4.99,0.24,-0.58,1.29,-27.32,33.84,21.55,-1.00
24806.00,-8.42,-0.52,4.71,0.44,-0.53,1.43,-27.32,33.84,21.55,-1.00
24817.00,-8.42,-0.52,4.71,0.44,-0.53,1.43,-27.32,33.84,21.55,-1.00
24829.00,-8.64,0.27,4.70,0.51,-0.53,1.55,-27.32,33.84,21.55,-1.00
24843.00,-8.64,0.27,4.70,0.51,-0.53,1.55,-27.32,33.84,21.55,-1.00
24855.00,-8.75,0.37,4.78,0.51,-0.52,1.50,-27.32,33.84,21.55,-1.00
24867.00,-8.84,0.56,4.06,0.47,-0.51,1.33,-27.32,33.84,21.55,-1.00
24879.00,-8.84,0.56,4.06,0.47,-0.51,1.33,-27.32,33.84,21.55,-1.00
24893.00,-8.93,0.92,3.75,0.44,-0.57,1.13,-28.55,33.84,20.82,-1.00
24905.00,-8.88,0.34,4.27,0.27,-0.68,0.92,-28.55,33.84,20.82,-1.00
24917.00,-8.88,0.34,4.27,0.27,-0.68,0.92,-28.55,33.84,20.82,-1.00
24929.00,-8.61,-0.21,4.43,0.14,-0.74,0.86,-28.55,33.84,20.82,-1.00
24943.00,-8.61,-0.21,4.43,0.14,-0.74,0.86,-28.55,33.84,20.82,-1.00
24955.00,-8.51,-0.73,4.79,0.13,-0.78,0.95,-28.55,33.84,20.82,-1.00
24967.00,-8.43,-0.51,5.40,0.12,-0.76,1.15,-28.55,33.84,20.82,-1.00
24979.00,-8.43,-0.51,5.40,0.12,-0.76,1.15,-28.55,33.84,20.82,-1.00
24993.00,-8.40,-0.53,5.35,0.15,-0.68,1.29,-28.55,33.84,20.82,-1.00
25005.00,-8.27,-0.21,5.42,0.21,-0.62,1.39,-28.55,33.84,20.82,-1.00
25017.00,-8.27,-0.21,5.42,0.21,-0.62,1.39,-28.55,33.84,20.82,-1.00
25029.00,-8.39,-0.28,5.41,0.35,-0.59,1.43,-29.47,34.99,23.00,-1.00
25043.00,-8.39,-0.28,5.41,0.35,-0.59,1.43,-29.47,34.99,23.00,-1.00
25055.00,-8.18,-1.01,4.96,0.53,-0.51,1.47,-29.47,34.99,23.00,-1.00
25067.00,-8.68,0.23,4.38,0.73,-0.52,1.60,-29.47,34.99,23.00,-1.00
25081.00,-8.68,0.23,4.38,0.73,-0.52,1.60,-29.47,34.99,23.00,-1.00
25093.00,-9.31,1.41,3.18,0.85,-0.56,1.54,-29.47,34.99,23.00,-1.00
25105.00,-8.84,2.32,1.70,0.63,-0.61,1.24,-29.47,34.99,23.00,-1.00
25117.00,-8.84,2.32,1.70,0.63,-0.61,1.24,-29.47,34.99,23.00,-1.00
25131.00,-8.96,0.59,5.11,0.35,-1.13,0.68,-29.47,34.99,23.00,-1.00
25143.00,-8.96,0.59,5.11,0.35,-1.13,0.68,-29.47,34.99,23.00,-1.00
25155.00,-8.33,-1.45,5.55,0.12,-1.12,0.43,-28.09,34.42,21.37,-1.00
25167.00,-8.39,-1.66,5.85,0.07,-0.99,0.87,-28.09,34.42,21.37,-1.00
25181.00,-8.39,-1.66,5.85,0.07,-0.99,0.87,-28.09,34.42,21.37,-1.00
25193.00,-8.26,-0.35,5.05,0.18,-0.81,1.38,-28.09,34.42,21.37,-1.00
25205.00,-8.36,0.57,4.14,0.36,-0.76,1.52,-28.09,34.42,21.37,-1.00
25217.00,-8.36,0.57,4.14,0.36,-0.76,1.52,-28.09,34.42,21.37,-1.00
25231.00,-8.12,-0.02,4.91,0.54,-0.93,1.44,-28.09,34.42,21.37,-1.00
25243.00,-8.12,-0.02,4.91,0.54,-0.93,1.44,-28.09,34.42,21.37,-1.00
25255.00,-7.70,-0.69,6.10,0.63,-0.94,1.50,-28.09,34.42,21.37,-1.00
25269.00,-7.63,-0.07,6.98,0.67,-0.75,1.70,-27.02,36.14,22.28,-1.00
25359.00,-8.88,0.43,3.48,0.49,-0.35,1.20,-27.02,36.14,22.28,-1.00
25446.00,-8.82,1.14,4.65,0.40,-0.56,0.86,-27.48,36.34,22.46,-1.00
25536.00,-8.63,-0.93,5.28,0.21,-0.69,0.98,-29.32,33.27,21.37,-1.00
25549.00,-8.50,-0.36,4.47,0.17,-0.62,1.28,-29.32,33.27,21.37,-1.00
25561.00,-8.50,-0.36,4.47,0.17,-0.62,1.28,-29.32,33.27,21.37,-1.00
25573.00,-8.45,-0.16,4.64,0.26,-0.60,1.41,-29.32,33.27,21.37,-1.00
25585.00,-8.33,-0.22,4.78,0.35,-0.62,1.48,-29.32,33.27,21.37,-1.00
25599.00,-8.33,-0.22,4.78,0.35,-0.62,1.48,-29.32,33.27,21.37,-1.00
25611.00,-8.31,-0.51,5.53,0.38,-0.65,1.53,-29.32,33.27,21.37,-1.00
25623.00,-8.31,-0.51,5.53,0.38,-0.65,1.53,-29.32,33.27,21.37,-1.00
25635.00,-8.19,-0.34,5.29,0.39,-0.62,1.61,-29.32,33.27,21.37,-1.00
25649.00,-8.66,0.57,5.32,0.47,-0.63,1.62,-27.78,34.04,21.37,-1.00
25661.00,-8.66,0.57,5.32,0.47,-0.63,1.62,-27.78,34.04,21.37,-1.00
25673.00,-9.06,1.34,3.67,0.68,-0.52,1.39,-27.78,34.04,21.37,-1.00
25685.00,-8.98,1.68,3.35,0.76,-0.52,1.08,-27.78,34.04,21.37,-1.00
25699.00,-8.98,1.68,3.35,0.76,-0.52,1.08,-27.78,34.04,21.37,-1.00
25711.00,-8.90,0.16,4.50,0.46,-0.73,0.73,-27.78,34.04,21.37,-1.00
25723.00,-8.90,0.16,4.50,0.46,-0.73,0.73,-27.78,34.04,21.37,-1.00
25737.00,-8.54,-1.65,5.25,0.24,-0.77,0.67,-27.78,34.04,21.37,-1.00
25749.00,-8.53,-1.67,4.52,0.16,-0.67,1.11,-27.78,34.04,21.37,-1.00
25761.00,-8.53,-1.67,4.52,0.16,-0.67,1.11,-27.78,34.04,21.37,-1.00
25773.00,-8.81,-0.09,2.31,0.36,-0.60,1.57,-26.87,34.42,22.82,-1.00
25788.00,-9.90,0.95,1.91,0.58,-1.01,1.66,-26.87,34.42,22.82,-1.00
25799.00,-9.90,0.95,1.91,0.58,-1.01,1.66,-26.87,34.42,22.82,-1.00
25811.00,-8.47,1.04,4.13,0.39,-1.76,1.50,-26.87,34.42,22.82,-1.00
25823.00,-8.47,1.04,4.13,0.39,-1.76,1.50,-26.87,34.42,22.82,-1.00
25837.00,-7.50,1.45,6.18,0.11,-2.07,1.38,-26.87,34.42,22.82,-1.00
25849.00,-7.29,1.52,7.81,0.13,-1.94,1.19,-26.87,34.42,22.82,-1.00
25861.00,-7.29,1.52,7.81,0.13,-1.94,1.19,-26.87,34.42,22.82,-1.00
25873.00,-7.57,1.40,8.03,0.40,-1.42,0.94,-26.87,34.42,22.82,-1.00
25887.00,-8.04,1.03,7.63,0.74,-0.72,0.72,-26.87,34.42,22.82,-1.00
25899.00,-8.04,1.03,7.63,0.74,-0.72,0.72,-26.87,34.42,22.82,-1.00
25911.00,-8.30,0.71,5.13,1.09,0.08,0.61,-27.48,34.42,25.73,-1.00
25923.00,-8.30,0.71,5.13,1.09,0.08,0.61,-27.48,34.42,25.73,-1.00
25938.00,-8.53,0.18,4.20,1.40,0.36,0.55,-27.48,34.42,25.73,-1.00
25949.00,-8.29,-0.77,4.28,1.49,0.16,0.51,-27.48,34.42,25.73,-1.00
25961.00,-8.29,-0.77,4.28,1.49,0.16,0.51,-27.48,34.42,25.73,-1.00
25973.00,-8.08,-1.03,4.13,1.25,-0.16,0.57,-27.48,34.42,25.73,-1.00
