time,ax,ay,az,gx,gy,gz,mx,my,mz,pressure
1.00,-0.18,6.69,-7.61,-0.01,-1.21,0.95,-11.00,49.08,-0.62,-1.00
13.00,-0.18,6.69,-7.61,-0.01,-1.21,0.95,-11.00,49.08,-0.62,-1.00
25.00,-0.24,6.71,-7.62,-0.00,-1.21,0.95,-11.00,49.08,-0.62,-1.00
37.00,-0.28,6.63,-7.67,0.02,-1.21,0.96,-10.58,48.90,0.04,-1.00
100.00,-0.24,6.66,-7.61,0.01,-1.21,0.96,-10.58,48.90,0.04,-1.00
112.00,-0.24,6.66,-7.61,0.01,-1.21,0.96,-10.58,48.90,0.04,-1.00
124.00,-0.23,6.73,-7.57,-0.03,-1.21,0.95,-10.58,48.90,0.04,-1.00
138.00,-0.22,6.73,-7.58,0.02,-1.21,0.96,-10.58,48.90,0.04,-1.00
150.00,-0.22,6.73,-7.58,0.02,-1.21,0.96,-10.58,48.90,0.04,-1.00
162.00,-0.22,6.69,-7.61,0.01,-1.21,0.96,-10.58,48.90,1.83,-1.00
174.00,-0.24,6.71,-7.64,-0.01,-1.21,0.96,-10.58,48.90,1.83,-1.00
189.00,-0.24,6.71,-7.64,-0.01,-1.21,0.96,-10.58,48.90,1.83,-1.00
201.00,-0.27,6.67,-7.64,0.02,-1.21,0.96,-10.58,48.90,1.83,-1.00
213.00,-0.27,6.67,-7.64,0.02,-1.21,0.96,-10.58,48.90,1.83,-1.00
225.00,-0.23,6.69,-7.59,-0.01,-1.21,0.96,-10.58,48.90,1.83,-1.00
239.00,-0.20,6.70,-7.57,-0.01,-1.22,0.95,-10.58,48.90,1.83,-1.00
251.00,-0.20,6.70,-7.57,-0.01,-1.22,0.95,-10.58,48.90,1.83,-1.00
263.00,-0.19,6.73,-7.63,0.02,-1.22,0.95,-10.58,48.90,1.83,-1.00
275.00,-0.22,6.66,-7.65,0.02,-1.21,0.96,-10.58,48.90,1.83,-1.00
289.00,-0.22,6.66,-7.65,0.02,-1.21,0.96,-10.58,48.90,1.83,-1.00
301.00,-0.27,6.70,-7.62,-0.02,-1.21,0.95,-10.72,49.08,1.16,-1.00
313.00,-0.27,6.70,-7.62,-0.02,-1.21,0.95,-10.72,49.08,1.16,-1.00
325.00,-0.26,6.69,-7.61,0.00,-1.21,0.95,-10.72,49.08,1.16,-1.00
339.00,-0.25,6.71,-7.59,0.01,-1.21,0.95,-10.72,49.08,1.16,-1.00
351.00,-0.25,6.71,-7.59,0.01,-1.21,0.95,-10.72,49.08,1.16,-1.00
363.00,-0.27,6.74,-7.60,-0.01,-1.21,0.96,-10.72,49.08,1.16,-1.00
375.00,-0.27,6.70,-7.63,0.01,-1.21,0.96,-10.72,49.08,1.16,-1.00
389.00,-0.27,6.70,-7.63,0.01,-1.21,0.96,-10.72,49.08,1.16,-1.00
401.00,-0.27,6.69,-7.60,-0.00,-1.21,0.96,-10.72,49.08,1.16,-1.00
413.00,-0.27,6.69,-7.60,-0.00,-1.21,0.96,-10.72,49.08,1.16,-1.00
425.00,-0.23,6.69,-7.62,0.00,-1.21,0.96,-10.30,48.18,0.04,-1.00
439.00,-0.22,6.67,-7.61,0.01,-1.21,0.95,-10.30,48.18,0.04,-1.00
451.00,-0.22,6.67,-7.61,0.01,-1.21,0.95,-10.30,48.18,0.04,-1.00
463.00,-0.22,6.68,-7.65,0.01,-1.21,0.96,-10.30,48.18,0.04,-1.00
475.00,-0.21,6.66,-7.61,-0.00,-1.21,0.96,-10.30,48.18,0.04,-1.00
489.00,-0.21,6.66,-7.61,-0.00,-1.21,0.96,-10.30,48.18,0.04,-1.00
501.00,-0.20,6.71,-7.60,-0.01,-1.21,0.95,-10.30,48.18,0.04,-1.00
513.00,-0.20,6.71,-7.60,-0.01,-1.21,0.95,-10.30,48.18,0.04,-1.00
525.00,-0.20,6.69,-7.62,0.02,-1.21,0.96,-10.30,48.18,0.04,-1.00
539.00,-0.25,6.69,-7.59,-0.01,-1.21,0.95,-10.30,49.26,-0.40,-1.00
551.00,-0.25,6.69,-7.59,-0.01,-1.21,0.95,-10.30,49.26,-0.40,-1.00
563.00,-0.29,6.72,-7.60,0.00,-1.21,0.96,-10.30,49.26,-0.40,-1.00
575.00,-0.30,6.67,-7.64,0.01,-1.21,0.96,-10.30,49.26,-0.40,-1.00
589.00,-0.30,6.67,-7.64,0.01,-1.21,0.96,-10.30,49.26,-0.40,-1.00
601.00,-0.27,6.72,-7.59,-0.01,-1.21,0.95,-10.30,49.26,-0.40,-1.00
613.00,-0.27,6.72,-7.59,-0.01,-1.21,0.95,-10.30,49.26,-0.40,-1.00
628.00,-0.23,6.70,-7.61,0.01,-1.21,0.96,-10.30,49.26,-0.40,-1.00
639.00,-0.21,6.69,-7.61,0.01,-1.21,0.96,-10.30,49.26,-0.40,-1.00
651.00,-0.21,6.69,-7.61,0.01,-1.21,0.96,-10.30,49.26,-0.40,-1.00
663.00,-0.17,6.71,-7.63,-0.00,-1.21,0.96,-10.02,49.62,-0.40,-1.00
677.00,-0.18,6.68,-7.64,0.01,-1.21,0.96,-10.02,49.62,-0.40,-1.00
689.00,-0.18,6.68,-7.64,0.01,-1.21,0.96,-10.02,49.62,-0.40,-1.00
701.00,-0.21,6.66,-7.60,0.00,-1.21,0.95,-10.02,49.62,-0.40,-1.00
713.00,-0.21,6.66,-7.60,0.00,-1.21,0.95,-10.02,49.62,-0.40,-1.00
727.00,-0.25,6.70,-7.61,-0.00,-1.21,0.95,-10.02,49.62,-0.40,-1.00
739.00,-0.29,6.69,-7.64,0.02,-1.21,0.96,-10.02,49.62,-0.40,-1.00
751.00,-0.29,6.69,-7.64,0.02,-1.21,0.96,-10.02,49.62,-0.40,-1.00
763.00,-0.28,6.70,-7.62,-0.01,-1.21,0.95,-10.02,49.62,-0.40,-1.00
778.00,-0.27,6.72,-7.60,-0.01,-1.21,0.96,-10.02,49.62,-0.40,-1.00
789.00,-0.27,6.72,-7.60,-0.01,-1.21,0.96,-10.02,49.62,-0.40,-1.00
801.00,-0.25,6.71,-7.61,0.01,-1.21,0.96,-9.46,50.34,-1.29,-1.00
813.00,-0.25,6.71,-7.61,0.01,-1.21,0.96,-9.46,50.34,-1.29,-1.00
827.00,-0.23,6.71,-7.60,-0.00,-1.21,0.96,-9.46,50.34,-1.29,-1.00
839.00,-0.20,6.72,-7.59,0.00,-1.21,0.96,-9.46,50.34,-1.29,-1.00
851.00,-0.20,6.72,-7.59,0.00,-1.21,0.96,-9.46,50.34,-1.29,-1.00
863.00,-0.19,6.71,-7.57,0.01,-1.21,0.96,-9.46,50.34,-1.29,-1.00
877.00,-0.19,6.70,-7.58,-0.00,-1.21,0.95,-9.46,50.34,-1.29,-1.00
889.00,-0.19,6.70,-7.58,-0.00,-1.21,0.95,-9.46,50.34,-1.29,-1.00
901.00,-0.24,6.69,-7.60,0.01,-1.21,0.96,-9.46,50.34,-1.29,-1.00
913.00,-0.24,6.69,-7.60,0.01,-1.21,0.96,-9.46,50.34,-1.29,-1.00
928.00,-0.25,6.67,-7.66,0.01,-1.21,0.95,-10.16,51.24,-0.18,-1.00
939.00,-0.27,6.68,-7.66,0.00,-1.21,0.95,-10.16,51.24,-0.18,-1.00
951.00,-0.27,6.68,-7.66,0.00,-1.21,0.95,-10.16,51.24,-0.18,-1.00
963.00,-0.27,6.68,-7.63,0.00,-1.21,0.96,-10.16,51.24,-0.18,-1.00
977.00,-0.25,6.69,-7.64,0.00,-1.21,0.96,-10.16,51.24,-0.18,-1.00
989.00,-0.25,6.69,-7.64,0.00,-1.21,0.96,-10.16,51.24,-0.18,-1.00
1001.00,-0.24,6.71,-7.57,-0.00,-1.21,0.96,-10.16,51.24,-0.18,-1.00
1013.00,-0.24,6.71,-7.57,-0.00,-1.21,0.96,-10.16,51.24,-0.18,-1.00
1027.00,-0.23,6.71,-7.56,-0.00,-1.21,0.96,-10.16,51.24,-0.18,-1.00
1039.00,-0.23,6.73,-7.57,-0.00,-1.21,0.95,-10.02,48.54,-0.40,-1.00
1051.00,-0.23,6.73,-7.57,-0.00,-1.21,0.95,-10.02,48.54,-0.40,-1.00
1065.00,-0.24,6.72,-7.59,0.01,-1.21,0.96,-10.02,48.54,-0.40,-1.00
1077.00,-0.25,6.70,-7.62,0.01,-1.21,0.96,-10.02,48.54,-0.40,-1.00
1089.00,-0.25,6.70,-7.62,0.01,-1.21,0.96,-10.02,48.54,-0.40,-1.00
1101.00,-0.23,6.69,-7.61,0.01,-1.21,0.95,-10.02,48.54,-0.40,-1.00
1116.00,-0.23,6.70,-7.70,0.02,-1.21,0.96,-10.02,48.54,-0.40,-1.00
1127.00,-0.23,6.70,-7.70,0.02,-1.21,0.96,-10.02,48.54,-0.40,-1.00
1139.00,-0.25,6.63,-7.65,0.01,-1.21,0.96,-10.02,48.54,-0.40,-1.00
1151.00,-0.25,6.63,-7.65,0.01,-1.21,0.96,-10.02,48.54,-0.40,-1.00
1165.00,-0.28,6.68,-7.58,-0.02,-1.21,0.95,-10.02,48.54,-0.40,-1.00
1177.00,-0.27,6.72,-7.64,0.01,-1.21,0.95,-10.02,50.34,0.04,-1.00
1189.00,-0.27,6.72,-7.64,0.01,-1.21,0.95,-10.02,50.34,0.04,-1.00
1201.00,-0.26,6.72,-7.60,0.00,-1.21,0.96,-10.02,50.34,0.04,-1.00
1215.00,-0.27,6.77,-7.60,-0.01,-1.21,0.96,-10.02,50.34,0.04,-1.00
1227.00,-0.27,6.77,-7.60,-0.01,-1.21,0.96,-10.02,50.34,0.04,-1.00
1239.00,-0.27,6.72,-7.61,0.02,-1.21,0.96,-10.02,50.34,0.04,-1.00
1251.00,-0.27,6.72,-7.61,0.02,-1.21,0.96,-10.02,50.34,0.04,-1.00
1266.00,-0.26,6.70,-7.59,-0.00,-1.21,0.96,-10.02,50.34,0.04,-1.00
1277.00,-0.22,6.71,-7.61,0.00,-1.21,0.96,-10.02,50.34,0.04,-1.00
1289.00,-0.22,6.71,-7.61,0.00,-1.21,0.96,-10.02,50.34,0.04,-1.00
1303.00,-0.18,6.67,-7.63,0.02,-1.21,0.96,-10.72,49.44,-0.18,-1.00
1315.00,-0.20,6.70,-7.62,0.00,-1.21,0.95,-10.72,49.44,-0.18,-1.00
1327.00,-0.20,6.70,-7.62,0.00,-1.21,0.95,-10.72,49.44,-0.18,-1.00
1339.00,-0.24,6.65,-7.62,0.01,-1.21,0.96,-10.72,49.44,-0.18,-1.00
1353.00,-0.24,6.65,-7.62,0.01,-1.21,0.96,-10.72,49.44,-0.18,-1.00
1365.00,-0.26,6.69,-7.61,-0.01,-1.21,0.95,-10.72,49.44,-0.18,-1.00
1377.00,-0.26,6.73,-7.62,0.00,-1.21,0.95,-10.72,49.44,-0.18,-1.00
1389.00,-0.26,6.73,-7.62,0.00,-1.21,0.95,-10.72,49.44,-0.18,-1.00
1403.00,-0.26,6.72,-7.60,0.01,-1.21,0.96,-10.72,49.44,-0.18,-1.00
1415.00,-0.26,6.72,-7.60,0.01,-1.21,0.96,-10.72,49.44,-0.18,-1.00
1427.00,-0.28,6.73,-7.60,-0.01,-1.21,0.96,-9.88,49.80,-1.52,-1.00
1439.00,-0.25,6.72,-7.61,0.01,-1.21,0.96,-9.88,49.80,-1.52,-1.00
1453.00,-0.25,6.72,-7.61,0.01,-1.21,0.96,-9.88,49.80,-1.52,-1.00
1465.00,-0.30,6.14,-8.05,-0.06,-1.21,0.95,-9.88,49.80,-1.52,-1.00
1477.00,2.99,7.20,-7.05,-1.57,-0.67,0.10,-9.88,49.80,-1.52,-1.00
1489.00,2.99,7.20,-7.05,-1.57,-0.67,0.10,-9.88,49.80,-1.52,-1.00
1503.00,-0.63,7.77,-6.30,-2.96,-1.10,0.43,-9.88,49.80,-1.52,-1.00
1591.00,0.25,12.76,-4.08,-8.12,-1.73,1.25,-10.30,54.29,12.99,-1.00
1680.00,-1.49,8.12,-0.23,-3.45,-1.51,-0.25,-11.42,49.26,52.27,-1.00
1768.00,0.28,10.23,1.77,4.61,-0.60,1.11,-11.42,49.26,52.27,-1.00
1782.00,-0.61,10.53,0.22,3.84,-0.90,0.73,-11.42,49.26,52.27,-1.00
1794.00,-0.61,10.53,0.22,3.84,-0.90,0.73,-11.42,49.26,52.27,-1.00
1806.00,-1.51,11.01,0.42,3.85,-1.10,0.02,-14.49,53.57,31.29,-1.00
1821.00,-1.38,10.63,-0.39,3.75,-0.91,-0.84,-14.49,53.57,31.29,-1.00
1832.00,-1.38,10.63,-0.39,3.75,-0.91,-0.84,-14.49,53.57,31.29,-1.00
1844.00,-0.52,8.53,-0.48,3.87,-0.76,-1.32,-14.49,53.57,31.29,-1.00
1856.00,-1.29,7.42,-2.26,3.25,-0.88,-1.16,-14.49,53.57,31.29,-1.00
1870.00,-1.29,7.42,-2.26,3.25,-0.88,-1.16,-14.49,53.57,31.29,-1.00
1882.00,-1.95,6.80,-3.50,2.43,-0.89,-0.53,-14.49,53.57,31.29,-1.00
1894.00,-1.95,6.80,-3.50,2.43,-0.89,-0.53,-14.49,53.57,31.29,-1.00
1906.00,-2.32,6.52,-4.80,1.24,-0.99,-0.06,-14.49,53.57,31.29,-1.00
1920.00,-2.36,6.87,-4.38,0.84,-1.29,0.23,-20.64,45.31,9.42,-1.00
1932.00,-2.36,6.87,-4.38,0.84,-1.29,0.23,-20.64,45.31,9.42,-1.00
1944.00,-2.29,8.64,-3.37,0.83,-1.60,0.33,-20.64,45.31,9.42,-1.00
1956.00,-2.71,10.08,-3.10,1.04,-1.58,0.24,-20.64,45.31,9.42,-1.00
1971.00,-2.71,10.08,-3.10,1.04,-1.58,0.24,-20.64,45.31,9.42,-1.00
1982.00,-3.10,9.26,-4.96,1.80,-1.03,-0.17,-20.64,45.31,9.42,-1.00
1994.00,-3.10,9.26,-4.96,1.80,-1.03,-0.17,-20.64,45.31,9.42,-1.00
2006.00,-2.91,7.32,-7.02,3.19,-0.44,-0.69,-20.64,45.31,9.42,-1.00
2020.00,-2.18,7.01,-6.81,5.15,-0.43,-0.85,-20.64,45.31,9.42,-1.00
2032.00,-2.18,7.01,-6.81,5.15,-0.43,-0.85,-20.64,45.31,9.42,-1.00
2044.00,-2.13,6.94,-5.65,6.51,-0.69,-0.81,-22.31,30.93,-2.63,-1.00
2058.00,-2.67,5.57,-5.63,5.89,-0.67,-0.99,-22.31,30.93,-2.63,-1.00
2070.00,-2.67,5.57,-5.63,5.89,-0.67,-0.99,-22.31,30.93,-2.63,-1.00
2082.00,-2.60,3.77,-6.53,4.63,-0.45,-1.38,-22.31,30.93,-2.63,-1.00
2094.00,-2.60,3.77,-6.53,4.63,-0.45,-1.38,-22.31,30.93,-2.63,-1.00
2108.00,-2.41,2.60,-6.26,4.66,-0.29,-1.71,-22.31,30.93,-2.63,-1.00
2120.00,-2.35,2.00,-5.97,5.44,-0.24,-1.92,-22.31,30.93,-2.63,-1.00
2132.00,-2.35,2.00,-5.97,5.44,-0.24,-1.92,-22.31,30.93,-2.63,-1.00
2144.00,-5.72,-0.82,-5.16,5.25,0.08,-2.36,-22.31,30.93,-2.63,-1.00
2158.00,-0.28,-0.80,-11.27,2.84,1.51,-3.56,-22.31,30.93,-2.63,-1.00
2170.00,-0.28,-0.80,-11.27,2.84,1.51,-3.56,-22.31,30.93,-2.63,-1.00
2182.00,4.79,-5.25,-15.77,10.83,2.69,-3.99,-16.17,-6.44,-15.58,-1.00
2194.00,4.79,-5.25,-15.77,10.83,2.69,-3.99,-16.17,-6.44,-15.58,-1.00
2208.00,0.09,-9.31,-4.65,16.88,0.56,-2.92,-16.17,-6.44,-15.58,-1.00
2220.00,-1.10,-15.12,-5.33,8.53,-1.86,-1.40,-16.17,-6.44,-15.58,-1.00
2232.00,-1.10,-15.12,-5.33,8.53,-1.86,-1.40,-16.17,-6.44,-15.58,-1.00
2247.00,-2.27,-13.45,-8.57,2.19,-2.57,0.67,-16.17,-6.44,-15.58,-1.00
2258.00,-1.88,-9.40,-9.26,-0.43,-3.11,2.65,-16.17,-6.44,-15.58,-1.00
2270.00,-1.88,-9.40,-9.26,-0.43,-3.11,2.65,-16.17,-6.44,-15.58,-1.00
2282.00,-2.54,-8.05,-6.00,-1.10,-3.76,3.77,-16.17,-6.44,-15.58,-1.00
2296.00,-3.99,-7.99,-3.50,-2.63,-4.36,4.54,-16.17,-6.44,-15.58,-1.00
2308.00,-3.99,-7.99,-3.50,-2.63,-4.36,4.54,-12.53,-29.80,10.76,-1.00
2320.00,-7.62,0.40,-3.76,-3.65,-4.19,4.31,-12.53,-29.80,10.76,-1.00
2332.00,-7.62,0.40,-3.76,-3.65,-4.19,4.31,-12.53,-29.80,10.76,-1.00
2346.00,-6.89,0.79,-6.69,-1.30,-2.97,2.22,-12.53,-29.80,10.76,-1.00
2358.00,-7.25,-2.23,-7.41,0.36,-2.96,0.33,-12.53,-29.80,10.76,-1.00
2370.00,-7.25,-2.23,-7.41,0.36,-2.96,0.33,-12.53,-29.80,10.76,-1.00
2384.00,-7.03,-4.44,-6.30,1.71,-3.32,-0.62,-12.53,-29.80,10.76,-1.00
2396.00,-7.03,-4.44,-6.30,1.71,-3.32,-0.62,-12.53,-29.80,10.76,-1.00
2408.00,-7.34,-5.67,-5.80,1.68,-3.33,-0.96,-12.53,-29.80,10.76,-1.00
2420.00,-6.42,-5.07,-4.58,1.63,-2.97,-1.14,-15.75,-27.83,20.80,-1.00
2435.00,-6.42,-5.07,-4.58,1.63,-2.97,-1.14,-15.75,-27.83,20.80,-1.00
2446.00,-3.71,-5.41,-4.03,2.15,-2.67,-1.39,-15.75,-27.83,20.80,-1.00
2458.00,-0.40,-7.17,-3.63,2.39,-2.90,-1.44,-15.75,-27.83,20.80,-1.00
2470.00,-0.40,-7.17,-3.63,2.39,-2.90,-1.44,-15.75,-27.83,20.80,-1.00
2484.00,1.01,-7.56,-3.15,2.04,-3.39,-1.10,-15.75,-27.83,20.80,-1.00
2496.00,1.01,-7.56,-3.15,2.04,-3.39,-1.10,-15.75,-27.83,20.80,-1.00
2508.00,1.98,-7.93,-3.08,2.22,-3.58,-0.61,-15.75,-27.83,20.80,-1.00
2522.00,1.69,-7.93,-2.15,2.57,-3.65,-0.02,-15.75,-27.83,20.80,-1.00
2534.00,1.69,-7.93,-2.15,2.57,-3.65,-0.02,-15.75,-27.83,20.80,-1.00
2546.00,1.01,-8.01,-1.17,2.66,-3.68,0.50,-9.60,-35.38,44.46,-1.00
2558.00,-0.72,-7.80,-1.23,2.65,-3.61,0.93,-9.60,-35.38,44.46,-1.00
2572.00,-0.72,-7.80,-1.23,2.65,-3.61,0.93,-9.60,-35.38,44.46,-1.00
2584.00,-1.35,-8.30,-0.03,2.88,-3.37,1.13,-9.60,-35.38,44.46,-1.00
2596.00,-1.35,-8.30,-0.03,2.88,-3.37,1.13,-9.60,-35.38,44.46,-1.00
2608.00,-2.78,-8.96,1.00,3.17,-2.83,1.25,-9.60,-35.38,44.46,-1.00
2622.00,-4.90,-11.96,3.35,2.95,-2.02,1.09,-9.60,-35.38,44.46,-1.00
2634.00,-4.90,-11.96,3.35,2.95,-2.02,1.09,-9.60,-35.38,44.46,-1.00
2646.00,-5.57,-9.81,3.12,1.65,-1.06,1.02,-9.60,-35.38,44.46,-1.00
2658.00,-6.48,-10.16,3.78,0.16,-0.48,0.57,-9.60,-35.38,44.46,-1.00
2672.00,-6.48,-10.16,3.78,0.16,-0.48,0.57,-9.60,-35.38,44.46,-1.00
2684.00,-4.00,-11.22,2.78,-1.83,-0.36,0.03,-8.48,-32.86,62.76,-1.00
2696.00,-4.00,-11.22,2.78,-1.83,-0.36,0.03,-8.48,-32.86,62.76,-1.00
2711.00,-4.11,-10.59,0.55,-3.26,0.02,0.12,-8.48,-32.86,62.76,-1.00
2722.00,-3.77,-9.76,-1.59,-3.59,0.36,0.39,-8.48,-32.86,62.76,-1.00
2734.00,-3.77,-9.76,-1.59,-3.59,0.36,0.39,-8.48,-32.86,62.76,-1.00
2746.00,-4.54,-9.00,-3.11,-2.96,0.34,0.59,-8.48,-32.86,62.76,-1.00
2760.00,-4.05,-9.05,-4.88,-2.32,-0.15,0.76,-8.48,-32.86,62.76,-1.00
2772.00,-4.05,-9.05,-4.88,-2.32,-0.15,0.76,-8.48,-32.86,62.76,-1.00
2784.00,-2.68,-9.66,-6.40,-0.74,-0.90,0.92,-8.48,-32.86,62.76,-1.00
2796.00,-2.68,-9.66,-6.40,-0.74,-0.90,0.92,-8.48,-32.86,62.76,-1.00
2810.00,-3.27,-10.36,-2.95,0.64,-1.43,1.43,-6.25,-39.69,42.23,-1.00
2822.00,-3.97,-8.68,-3.90,0.14,-1.52,1.69,-6.25,-39.69,42.23,-1.00
2834.00,-3.97,-8.68,-3.90,0.14,-1.52,1.69,-6.25,-39.69,42.23,-1.00
2846.00,-4.42,-8.33,-2.23,0.45,-1.61,1.80,-6.25,-39.69,42.23,-1.00
2861.00,-3.80,-6.95,-2.35,0.30,-1.41,1.56,-6.25,-39.69,42.23,-1.00
2872.00,-3.80,-6.95,-2.35,0.30,-1.41,1.56,-6.25,-39.69,42.23,-1.00
2885.00,-3.23,-7.75,-2.27,0.79,-1.17,1.41,-6.25,-39.69,42.23,-1.00
2898.00,-3.36,-8.29,-2.62,0.80,-1.11,1.59,-6.25,-39.69,42.23,-1.00
2910.00,-3.36,-8.29,-2.62,0.80,-1.11,1.59,-6.25,-39.69,42.23,-1.00
2922.00,-5.01,-7.59,-3.61,0.60,-1.16,1.98,-9.60,-33.58,49.37,-1.00
2934.00,-5.01,-7.59,-3.61,0.60,-1.16,1.98,-9.60,-33.58,49.37,-1.00
2948.00,-5.70,-7.17,-1.69,1.20,-1.22,2.29,-9.60,-33.58,49.37,-1.00
2960.00,-5.87,-6.47,-1.65,1.23,-0.92,2.03,-9.60,-33.58,49.37,-1.00
2972.00,-5.87,-6.47,-1.65,1.23,-0.92,2.03,-9.60,-33.58,49.37,-1.00
2984.00,-5.11,-6.32,-1.48,1.52,-0.50,1.54,-9.60,-33.58,49.37,-1.00
2998.00,-5.46,-7.10,-1.85,1.59,-0.35,1.21,-9.60,-33.58,49.37,-1.00
3010.00,-5.46,-7.10,-1.85,1.59,-0.35,1.21,-9.60,-33.58,49.37,-1.00
3022.00,-6.66,-7.59,-1.89,1.70,-0.40,1.16,-9.60,-33.58,49.37,-1.00
3034.00,-6.66,-7.59,-1.89,1.70,-0.40,1.16,-9.60,-33.58,49.37,-1.00
3049.00,-7.07,-7.53,-1.59,1.68,-0.55,1.05,-9.60,-33.58,49.37,-1.00
3060.00,-6.31,-8.48,-1.97,1.44,-0.77,0.93,-11.98,-28.01,54.06,-1.00
3072.00,-6.31,-8.48,-1.97,1.44,-0.77,0.93,-11.98,-28.01,54.06,-1.00
3086.00,-5.77,-8.51,-2.28,1.13,-1.11,1.03,-11.98,-28.01,54.06,-1.00
3098.00,-6.10,-7.92,-1.26,1.29,-1.57,1.30,-11.98,-28.01,54.06,-1.00
3110.00,-6.10,-7.92,-1.26,1.29,-1.57,1.30,-11.98,-28.01,54.06,-1.00
3122.00,-6.34,-7.14,-0.09,1.46,-1.97,1.39,-11.98,-28.01,54.06,-1.00
3136.00,-6.34,-7.14,-0.09,1.46,-1.97,1.39,-11.98,-28.01,54.06,-1.00
3148.00,-6.06,-6.90,1.31,1.66,-2.19,1.16,-11.98,-28.01,54.06,-1.00
3160.00,-6.04,-7.96,2.74,1.45,-2.12,0.95,-11.98,-28.01,54.06,-1.00
3172.00,-6.04,-7.96,2.74,1.45,-2.12,0.95,-11.98,-28.01,54.06,-1.00
3186.00,-6.12,-8.40,2.95,0.77,-1.79,0.85,-12.25,-24.77,65.67,-1.00
3274.00,-5.76,-7.92,0.34,-0.68,-1.46,0.25,-12.25,-24.77,65.67,-1.00
3365.00,-3.97,-8.61,1.55,-0.44,-0.94,1.04,-9.88,-28.19,65.89,-1.00
3453.00,-5.01,-8.77,-0.17,-0.73,-0.97,1.37,-9.60,-28.91,65.00,-1.00
3467.00,-4.98,-8.61,-0.43,-0.58,-1.17,1.48,-9.60,-28.91,65.00,-1.00
3479.00,-5.11,-7.96,-0.23,-0.20,-1.39,1.58,-9.60,-28.91,65.00,-1.00
3491.00,-5.11,-7.96,-0.23,-0.20,-1.39,1.58,-9.60,-28.91,65.00,-1.00
3506.00,-5.38,-7.94,0.75,0.23,-1.46,1.47,-9.60,-28.91,65.00,-1.00
3517.00,-5.38,-7.94,0.75,0.23,-1.46,1.47,-9.60,-28.91,65.00,-1.00
3529.00,-5.53,-8.11,0.85,0.19,-1.44,1.29,-9.60,-28.91,65.00,-1.00
3541.00,-5.08,-7.83,0.26,0.08,-1.43,1.16,-9.60,-28.91,65.00,-1.00
3555.00,-5.08,-7.83,0.26,0.08,-1.43,1.16,-9.60,-28.91,65.00,-1.00
3567.00,-3.73,-8.26,1.61,0.37,-1.46,1.07,-10.58,-28.01,62.99,-1.00
3579.00,-5.78,-7.33,-0.11,0.07,-1.60,1.01,-10.58,-28.01,62.99,-1.00
3591.00,-5.78,-7.33,-0.11,0.07,-1.60,1.01,-10.58,-28.01,62.99,-1.00
3605.00,-4.18,-9.27,1.55,0.41,-1.47,0.97,-10.58,-28.01,62.99,-1.00
3617.00,-4.18,-9.27,1.55,0.41,-1.47,0.97,-10.58,-28.01,62.99,-1.00
3629.00,-5.43,-8.55,0.45,0.24,-1.39,1.16,-10.58,-28.01,62.99,-1.00
3641.00,-5.37,-8.57,1.07,0.17,-1.16,1.25,-10.58,-28.01,62.99,-1.00
3655.00,-5.37,-8.57,1.07,0.17,-1.16,1.25,-10.58,-28.01,62.99,-1.00
3667.00,-5.83,-8.37,0.45,-0.00,-1.14,1.24,-10.58,-28.01,62.99,-1.00
3679.00,-5.22,-8.43,0.95,0.11,-1.31,1.15,-10.86,-27.29,64.77,-1.00
3693.00,-5.22,-8.43,0.95,0.11,-1.31,1.15,-10.86,-27.29,64.77,-1.00
3705.00,-5.59,-8.61,1.68,0.10,-1.39,1.22,-10.86,-27.29,64.77,-1.00
3717.00,-5.59,-8.61,1.68,0.10,-1.39,1.22,-10.86,-27.29,64.77,-1.00
3729.00,-5.77,-7.80,1.75,-0.34,-1.35,1.28,-10.86,-27.29,64.77,-1.00
3743.00,-5.36,-7.89,1.42,-0.65,-1.30,1.18,-10.86,-27.29,64.77,-1.00
3755.00,-5.36,-7.89,1.42,-0.65,-1.30,1.18,-10.86,-27.29,64.77,-1.00
3767.00,-4.90,-8.14,0.71,-0.81,-1.23,1.11,-10.86,-27.29,64.77,-1.00
3779.00,-5.21,-8.60,1.22,-0.91,-1.12,1.08,-10.86,-27.29,64.77,-1.00
3794.00,-5.21,-8.60,1.22,-0.91,-1.12,1.08,-10.86,-27.29,64.77,-1.00
3806.00,-4.75,-8.60,0.83,-1.47,-1.00,1.11,-11.56,-27.83,60.98,-1.00
3818.00,-4.60,-7.92,0.09,-1.91,-0.93,1.24,-11.56,-27.83,60.98,-1.00
3832.00,-4.60,-7.92,0.09,-1.91,-0.93,1.24,-11.56,-27.83,60.98,-1.00
3844.00,-4.94,-7.96,-0.40,-1.84,-0.90,1.29,-11.56,-27.83,60.98,-1.00
3856.00,-4.94,-7.96,-0.40,-1.84,-0.90,1.29,-11.56,-27.83,60.98,-1.00
3868.00,-4.75,-8.15,-1.43,-1.62,-0.85,1.34,-11.56,-27.83,60.98,-1.00
3882.00,-5.10,-8.41,-1.93,-1.04,-0.90,1.48,-11.56,-27.83,60.98,-1.00
3894.00,-5.10,-8.41,-1.93,-1.04,-0.90,1.48,-11.56,-27.83,60.98,-1.00
3906.00,-5.72,-7.92,-1.51,-0.55,-0.97,1.56,-11.56,-27.83,60.98,-1.00
3918.00,-5.93,-7.74,-1.18,-0.38,-0.99,1.47,-14.77,-28.37,60.98,-1.00
3932.00,-5.93,-7.74,-1.18,-0.38,-0.99,1.47,-14.77,-28.37,52.72,-1.00
3944.00,-5.95,-8.13,-1.56,-0.59,-0.99,1.40,-14.77,-28.37,52.72,-1.00
3956.00,-5.95,-8.13,-1.56,-0.59,-0.99,1.40,-14.77,-28.37,52.72,-1.00
3970.00,-5.98,-8.23,-1.14,-1.14,-1.04,1.36,-14.77,-28.37,52.72,-1.00
3982.00,-5.69,-6.73,-2.31,-1.95,-1.15,1.22,-14.77,-28.37,52.72,-1.00
3994.00,-5.69,-6.73,-2.31,-1.95,-1.15,1.22,-14.77,-28.37,52.72,-1.00
4006.00,-6.11,-7.00,-1.41,-0.86,-1.18,1.20,-14.77,-28.37,52.72,-1.00
4020.00,-6.52,-7.44,-1.40,-0.30,-1.01,1.28,-14.77,-28.37,52.72,-1.00
4032.00,-6.52,-7.44,-1.40,-0.30,-1.01,1.28,-14.77,-28.37,52.72,-1.00
4044.00,-6.93,-7.73,-2.77,-0.79,-0.95,1.30,-14.77,-28.37,52.72,-1.00
4057.00,-6.93,-7.73,-2.77,-0.79,-0.95,1.30,-14.77,-28.37,52.72,-1.00
4070.00,-6.67,-6.59,-4.07,-1.22,-1.32,1.34,-14.49,-25.85,48.70,-1.00
4158.00,-6.85,-4.20,-4.55,-2.82,-2.16,0.25,-14.49,-25.85,48.70,-1.00
4248.00,-5.67,-5.83,-3.12,0.38,-1.15,1.18,-13.79,-29.98,40.44,-1.00
4262.00,-6.01,-6.84,-3.43,1.06,-1.00,1.28,-13.79,-29.98,40.44,-1.00
4274.00,-6.01,-6.84,-3.43,1.06,-1.00,1.28,-13.79,-29.98,40.44,-1.00
4286.00,-6.22,-6.97,-3.35,1.41,-1.25,1.48,-13.79,-29.98,40.44,-1.00
4298.00,-6.22,-6.97,-3.35,1.41,-1.25,1.48,-13.79,-29.98,40.44,-1.00
4312.00,-6.27,-7.19,-2.68,1.41,-1.61,1.58,-13.23,-28.91,43.12,-1.00
4324.00,-7.01,-6.82,-2.89,1.69,-1.70,1.52,-13.23,-28.91,43.12,-1.00
4336.00,-7.01,-6.82,-2.89,1.69,-1.70,1.52,-13.23,-28.91,43.12,-1.00
4348.00,-6.53,-7.66,-1.85,2.00,-1.58,1.32,-13.23,-28.91,43.12,-1.00
4362.00,-6.92,-6.64,-1.29,1.55,-1.58,1.33,-13.23,-28.91,43.12,-1.00
4374.00,-6.92,-6.64,-1.29,1.55,-1.58,1.33,-13.23,-28.91,43.12,-1.00
4386.00,-7.94,-6.25,-0.28,1.12,-1.55,1.25,-13.23,-28.91,43.12,-1.00
4398.00,-7.94,-6.25,-0.28,1.12,-1.55,1.25,-13.23,-28.91,43.12,-1.00
4412.00,-7.24,-6.30,-1.42,-0.07,-1.38,1.03,-13.23,-28.91,43.12,-1.00
4424.00,-7.80,-7.66,-2.00,-0.32,-1.29,0.99,-15.33,-23.70,49.60,-1.00
4436.00,-7.80,-7.66,-2.00,-0.32,-1.29,0.99,-15.33,-23.70,49.60,-1.00
4450.00,-6.96,-7.49,-2.10,-0.62,-1.25,0.95,-15.33,-23.70,49.60,-1.00
4462.00,-6.51,-6.66,-2.39,-0.88,-1.18,1.03,-15.33,-23.70,49.60,-1.00
4474.00,-6.51,-6.66,-2.39,-0.88,-1.18,1.03,-15.33,-23.70,49.60,-1.00
4486.00,-6.80,-6.32,-2.55,-0.91,-1.20,1.10,-15.33,-23.70,49.60,-1.00
4500.00,-6.89,-6.64,-2.58,-0.71,-1.24,1.09,-15.33,-23.70,49.60,-1.00
4512.00,-6.89,-6.64,-2.58,-0.71,-1.24,1.09,-15.33,-23.70,49.60,-1.00
4524.00,-6.69,-7.27,-2.24,-0.53,-1.28,1.09,-15.33,-23.70,49.60,-1.00
4538.00,-6.69,-7.27,-2.24,-0.53,-1.28,1.09,-15.33,-23.70,49.60,-1.00
4550.00,-6.75,-7.36,-2.30,-0.77,-1.20,1.19,-15.33,-23.70,49.60,-1.00
4562.00,-7.02,-6.49,-2.51,-0.98,-1.13,1.37,-14.77,-26.93,46.47,-1.00
4574.00,-7.02,-6.49,-2.51,-0.98,-1.13,1.37,-14.77,-26.93,46.47,-1.00
4588.00,-7.51,-5.87,-2.78,-0.94,-1.19,1.38,-14.77,-26.93,46.47,-1.00
4600.00,-7.49,-5.69,-2.74,-0.79,-1.18,1.23,-14.77,-26.93,46.47,-1.00
4612.00,-7.49,-5.69,-2.74,-0.79,-1.18,1.23,-14.77,-26.93,46.47,-1.00
4624.00,-7.19,-5.81,-3.36,-0.65,-1.07,1.08,-14.77,-26.93,46.47,-1.00
4639.00,-7.19,-5.81,-3.36,-0.65,-1.07,1.08,-14.77,-26.93,46.47,-1.00
4650.00,-6.97,-5.36,-4.14,-0.40,-1.09,1.05,-14.77,-26.93,46.47,-1.00
4662.00,-7.04,-5.56,-3.91,0.08,-1.23,1.01,-14.77,-26.93,46.47,-1.00
4677.00,-7.04,-5.56,-3.91,0.08,-1.23,1.01,-14.77,-26.93,46.47,-1.00
4688.00,-6.69,-6.79,-2.88,0.29,-1.36,0.95,-16.17,-23.70,45.13,-1.00
4700.00,-6.66,-6.74,-2.63,0.06,-1.37,1.08,-16.17,-23.70,45.13,-1.00
4712.00,-6.66,-6.74,-2.63,0.06,-1.37,1.08,-16.17,-23.70,45.13,-1.00
4726.00,-7.30,-6.25,-2.83,-0.03,-1.21,1.29,-16.17,-23.70,45.13,-1.00
4738.00,-7.30,-6.25,-2.83,-0.03,-1.21,1.29,-16.17,-23.70,45.13,-1.00
4750.00,-7.76,-5.71,-2.82,-0.21,-1.25,1.32,-16.17,-23.70,45.13,-1.00
4762.00,-7.51,-6.21,-2.78,-0.37,-1.35,1.20,-16.17,-23.70,45.13,-1.00
4776.00,-7.51,-6.21,-2.78,-0.37,-1.35,1.20,-16.17,-23.70,45.13,-1.00
4788.00,-7.99,-5.52,-2.40,-0.74,-1.52,1.22,-16.17,-23.70,45.13,-1.00
4800.00,-7.64,-5.92,-2.91,-0.72,-1.39,1.09,-16.03,-23.87,41.34,-1.00
4814.00,-7.64,-5.92,-2.91,-0.72,-1.39,1.09,-16.03,-23.87,41.34,-1.00
4826.00,-7.60,-5.37,-4.07,-0.67,-1.28,1.13,-16.03,-23.87,41.34,-1.00
4838.00,-7.60,-5.37,-4.07,-0.67,-1.28,1.13,-16.03,-23.87,41.34,-1.00
4850.00,-7.53,-5.43,-3.54,-0.45,-1.36,1.16,-16.03,-23.87,41.34,-1.00
4864.00,-8.12,-6.18,-2.59,-0.41,-1.51,1.16,-16.03,-23.87,41.34,-1.00
4876.00,-8.12,-6.18,-2.59,-0.41,-1.51,1.16,-16.03,-23.87,41.34,-1.00
4888.00,-8.13,-5.06,-2.70,-0.87,-1.64,1.20,-16.03,-23.87,41.34,-1.00
4900.00,-7.69,-5.23,-3.06,-0.96,-1.61,1.16,-16.03,-23.87,41.34,-1.00
4914.00,-7.69,-5.23,-3.06,-0.96,-1.61,1.16,-16.03,-23.87,41.34,-1.00
4926.00,-7.74,-5.34,-3.45,-0.75,-1.60,1.08,-17.98,-23.87,39.55,-1.00
4938.00,-7.74,-5.34,-3.45,-0.75,-1.60,1.08,-17.98,-23.87,39.55,-1.00
4953.00,-7.30,-4.98,-3.38,-0.62,-1.68,1.00,-17.98,-23.87,39.55,-1.00
4964.00,-7.14,-5.38,-4.13,-0.46,-1.76,0.88,-17.98,-23.87,39.55,-1.00
4976.00,-7.14,-5.38,-4.13,-0.46,-1.76,0.88,-17.98,-23.87,39.55,-1.00
4988.00,-7.17,-5.40,-4.38,-0.28,-1.86,0.81,-17.98,-23.87,39.55,-1.00
5002.00,-7.19,-4.90,-2.84,0.03,-1.87,0.72,-17.98,-23.87,39.55,-1.00
5014.00,-7.19,-4.90,-2.84,0.03,-1.87,0.72,-17.98,-23.87,39.55,-1.00
5026.00,-7.37,-4.63,-3.30,0.40,-1.78,0.57,-17.98,-23.87,39.55,-1.00
5038.00,-7.37,-4.63,-3.30,0.40,-1.78,0.57,-17.98,-23.87,39.55,-1.00
5052.00,-8.10,-5.62,-3.96,0.77,-1.65,0.46,-17.98,-23.87,39.55,-1.00
5064.00,-7.40,-5.38,-3.90,0.96,-1.52,0.47,-15.75,-25.67,45.80,-1.00
5076.00,-7.40,-5.38,-3.90,0.96,-1.52,0.47,-15.75,-25.67,45.80,-1.00
5088.00,-7.39,-5.84,-3.37,1.18,-1.49,0.45,-15.75,-25.67,45.80,-1.00
5103.00,-8.18,-7.13,-2.11,1.14,-1.43,0.51,-15.75,-25.67,45.80,-1.00
5114.00,-8.18,-7.13,-2.11,1.14,-1.43,0.51,-15.75,-25.67,45.80,-1.00
5127.00,-7.81,-6.62,-1.35,0.55,-1.30,0.76,-15.75,-25.67,45.80,-1.00
5140.00,-8.13,-6.96,-1.27,-0.17,-0.95,0.99,-15.75,-25.67,45.80,-1.00
5152.00,-8.13,-6.96,-1.27,-0.17,-0.95,0.99,-15.75,-25.67,45.80,-1.00
5164.00,-7.82,-6.23,-2.60,-0.93,-0.54,1.28,-15.75,-25.67,45.80,-1.00
5176.00,-7.82,-6.23,-2.60,-0.93,-0.54,1.28,-15.75,-25.67,45.80,-1.00
5190.00,-7.50,-5.52,-2.70,-1.05,-0.41,1.50,-14.91,-27.47,46.25,-1.00
5202.00,-8.24,-5.18,-3.08,-0.87,-0.49,1.50,-14.91,-27.47,46.25,-1.00
5214.00,-8.24,-5.18,-3.08,-0.87,-0.49,1.50,-14.91,-27.47,46.25,-1.00
5226.00,-7.29,-5.73,-2.58,-0.78,-0.56,1.43,-14.91,-27.47,46.25,-1.00
5240.00,-7.93,-5.25,-3.32,-0.81,-0.54,1.46,-14.91,-27.47,46.25,-1.00
5252.00,-7.93,-5.25,-3.32,-0.81,-0.54,1.46,-14.91,-27.47,46.25,-1.00
5264.00,-7.39,-4.91,-4.17,-0.75,-0.66,1.41,-14.91,-27.47,46.25,-1.00
5279.00,-7.39,-4.91,-4.17,-0.75,-0.66,1.41,-14.91,-27.47,46.25,-1.00
5291.00,-7.63,-4.68,-4.29,-0.51,-0.84,1.29,-14.91,-27.47,46.25,-1.00
5303.00,-7.42,-5.48,-3.78,-0.32,-0.97,1.17,-17.14,-25.31,37.32,-1.00
5315.00,-7.42,-5.48,-3.78,-0.32,-0.97,1.17,-17.14,-25.31,37.32,-1.00
5329.00,-7.56,-4.53,-4.05,-0.17,-1.01,1.15,-17.14,-25.31,37.32,-1.00
5341.00,-7.68,-5.21,-3.95,0.02,-1.11,1.03,-17.14,-25.31,37.32,-1.00
5353.00,-7.68,-5.21,-3.95,0.02,-1.11,1.03,-17.14,-25.31,37.32,-1.00
5365.00,-7.61,-5.01,-4.26,0.09,-1.18,1.02,-17.14,-25.31,37.32,-1.00
5379.00,-7.61,-5.01,-4.26,0.09,-1.18,1.02,-17.14,-25.31,37.32,-1.00
5391.00,-7.78,-5.09,-3.68,0.17,-1.27,0.97,-17.14,-25.31,37.32,-1.00
5403.00,-8.21,-5.22,-3.45,0.07,-1.29,0.97,-17.14,-25.31,37.32,-1.00
5417.00,-8.21,-5.22,-3.45,0.07,-1.29,0.97,-17.14,-25.31,37.32,-1.00
5429.00,-8.03,-5.53,-2.95,-0.16,-1.30,1.06,-17.14,-25.31,37.32,-1.00
5441.00,-7.88,-5.01,-2.93,-0.45,-1.24,1.18,-17.84,-24.77,36.65,-1.00
5453.00,-7.88,-5.01,-2.93,-0.45,-1.24,1.18,-17.84,-24.77,36.65,-1.00
5467.00,-7.75,-4.72,-3.91,-0.56,-1.19,1.20,-17.84,-24.77,36.65,-1.00
5479.00,-7.75,-4.72,-3.91,-0.56,-1.19,1.20,-17.84,-24.77,36.65,-1.00
5491.00,-8.03,-4.55,-5.54,-0.66,-1.24,1.19,-17.84,-24.77,36.65,-1.00
5503.00,-7.69,-4.59,-3.55,-0.81,-1.41,1.14,-17.84,-24.77,36.65,-1.00
5517.00,-7.69,-4.59,-3.55,-0.81,-1.41,1.14,-17.84,-24.77,36.65,-1.00
5529.00,-7.69,-4.98,-3.68,-0.88,-1.43,1.05,-17.84,-24.77,36.65,-1.00
5541.00,-7.68,-4.41,-4.53,-1.00,-1.49,0.94,-17.84,-24.77,36.65,-1.00
5556.00,-7.68,-4.41,-4.53,-1.00,-1.49,0.94,-17.84,-24.77,36.65,-1.00
5567.00,-7.69,-4.51,-4.65,-0.79,-1.57,0.84,-17.70,-23.52,33.75,-1.00
5579.00,-7.69,-4.51,-4.65,-0.79,-1.57,0.84,-17.70,-23.52,33.75,-1.00
5591.00,-7.97,-4.21,-3.98,-0.56,-1.72,0.76,-17.70,-23.52,33.75,-1.00
5605.00,-8.04,-4.75,-3.63,-0.27,-1.76,0.61,-17.70,-23.52,33.75,-1.00
5617.00,-8.04,-4.75,-3.63,-0.27,-1.76,0.61,-17.70,-23.52,33.75,-1.00
5629.00,-7.37,-4.82,-4.29,-0.09,-1.78,0.51,-17.70,-23.52,33.75,-1.00
5643.00,-7.52,-4.91,-3.78,-0.02,-1.74,0.50,-17.70,-23.52,33.75,-1.00
5732.00,-7.55,-5.30,-3.48,0.73,-1.45,0.57,-16.72,-26.93,35.31,-1.00
5820.00,-7.57,-5.78,-3.29,-0.36,-0.78,1.16,-17.00,-26.93,37.99,-1.00
5909.00,-7.79,-4.82,-4.82,-0.42,-0.69,1.50,-17.00,-26.93,37.99,-1.00
5923.00,-7.92,-4.35,-4.62,-0.29,-0.74,1.52,-17.00,-26.93,37.99,-1.00
5935.00,-7.92,-4.35,-4.62,-0.29,-0.74,1.52,-17.00,-26.93,37.99,-1.00
5947.00,-7.90,-4.32,-4.32,-0.08,-1.01,1.34,-17.98,-25.67,31.52,-1.00
5959.00,-7.90,-4.32,-4.32,-0.08,-1.01,1.34,-17.98,-25.67,31.52,-1.00
5973.00,-8.10,-4.11,-4.31,0.01,-1.15,1.24,-17.98,-25.67,31.52,-1.00
5985.00,-9.26,-5.24,-2.69,-0.10,-1.21,1.19,-17.98,-25.67,31.52,-1.00
5997.00,-9.26,-5.24,-2.69,-0.10,-1.21,1.19,-17.98,-25.67,31.52,-1.00
6011.00,-8.04,-3.72,-5.43,-0.62,-1.17,1.26,-17.98,-25.67,31.52,-1.00
6023.00,-8.23,-3.96,-4.56,-0.40,-1.29,1.20,-17.98,-25.67,31.52,-1.00
6035.00,-8.23,-3.96,-4.56,-0.40,-1.29,1.20,-17.98,-25.67,31.52,-1.00
6047.00,-8.33,-4.00,-5.04,-0.38,-1.36,1.16,-17.98,-25.67,31.52,-1.00
6061.00,-8.36,-3.19,-3.94,-0.38,-1.44,1.14,-18.82,-23.52,29.28,-1.00
6073.00,-8.36,-3.19,-3.94,-0.38,-1.44,1.14,-18.82,-23.52,29.28,-1.00
6085.00,-8.19,-4.12,-3.80,-0.45,-1.45,1.03,-18.82,-23.52,29.28,-1.00
6097.00,-8.19,-4.12,-3.80,-0.45,-1.45,1.03,-18.82,-23.52,29.28,-1.00
6111.00,-8.04,-3.61,-4.64,-0.65,-1.41,0.94,-18.82,-23.52,29.28,-1.00
6123.00,-8.15,-3.67,-4.76,-0.64,-1.55,0.80,-18.82,-23.52,29.28,-1.00
6135.00,-8.15,-3.67,-4.76,-0.64,-1.55,0.80,-18.82,-23.52,29.28,-1.00
6150.00,-7.78,-3.50,-4.87,-0.48,-1.73,0.68,-18.82,-23.52,29.28,-1.00
6161.00,-7.53,-3.64,-3.66,-0.30,-1.78,0.58,-18.82,-23.52,29.28,-1.00
6173.00,-7.53,-3.64,-3.66,-0.30,-1.78,0.58,-18.82,-23.52,29.28,-1.00
6185.00,-7.66,-4.09,-4.36,-0.14,-1.72,0.43,-17.84,-25.13,31.29,-1.00
6199.00,-7.66,-4.09,-4.36,-0.14,-1.72,0.43,-17.84,-25.13,31.29,-1.00
6211.00,-7.45,-4.11,-5.08,0.11,-1.71,0.29,-17.84,-25.13,31.29,-1.00
6223.00,-6.78,-4.64,-5.22,0.34,-1.66,0.25,-17.84,-25.13,31.29,-1.00
6235.00,-6.78,-4.64,-5.22,0.34,-1.66,0.25,-17.84,-25.13,31.29,-1.00
6249.00,-7.48,-4.21,-5.84,0.45,-1.47,0.43,-17.84,-25.13,31.29,-1.00
6261.00,-7.75,-4.66,-4.33,0.51,-1.41,0.51,-17.84,-25.13,31.29,-1.00
6273.00,-7.75,-4.66,-4.33,0.51,-1.41,0.51,-17.84,-25.13,31.29,-1.00
6287.00,-8.10,-4.81,-3.87,0.51,-1.31,0.61,-17.84,-25.13,31.29,-1.00
6299.00,-8.10,-4.81,-3.87,0.51,-1.31,0.61,-17.84,-25.13,31.29,-1.00
6311.00,-7.98,-4.59,-3.25,0.28,-1.21,0.79,-15.89,-27.29,34.86,-1.00
6323.00,-7.98,-4.87,-3.80,0.11,-1.05,0.88,-15.89,-27.29,34.86,-1.00
6337.00,-7.98,-4.87,-3.80,0.11,-1.05,0.88,-15.89,-27.29,34.86,-1.00
6349.00,-7.96,-5.26,-4.41,-0.11,-0.97,1.00,-15.89,-27.29,34.86,-1.00
6361.00,-7.90,-4.45,-4.67,-0.37,-0.91,1.19,-15.89,-27.29,34.86,-1.00
6373.00,-7.90,-4.45,-4.67,-0.37,-0.91,1.19,-15.89,-27.29,34.86,-1.00
6387.00,-8.00,-4.78,-4.06,-0.53,-0.89,1.32,-15.89,-27.29,34.86,-1.00
6399.00,-8.00,-4.78,-4.06,-0.53,-0.89,1.32,-15.89,-27.29,34.86,-1.00
6411.00,-8.36,-4.31,-3.79,-0.58,-0.90,1.39,-15.89,-27.29,34.86,-1.00
6423.00,-8.27,-4.26,-4.07,-0.54,-0.80,1.43,-15.89,-27.29,34.86,-1.00
6437.00,-8.27,-4.26,-4.07,-0.54,-0.80,1.43,-15.89,-27.29,34.86,-1.00
6449.00,-7.92,-4.27,-4.63,-0.50,-0.72,1.48,-17.56,-25.49,29.95,-1.00
6461.00,-8.26,-3.72,-5.19,-0.37,-0.78,1.51,-17.56,-25.49,29.95,-1.00
6475.00,-8.26,-3.72,-5.19,-0.37,-0.78,1.51,-17.56,-25.49,29.95,-1.00
6487.00,-8.57,-3.70,-4.35,-0.30,-0.88,1.48,-17.56,-25.49,29.95,-1.00
6499.00,-8.57,-3.70,-4.35,-0.30,-0.88,1.48,-17.56,-25.49,29.95,-1.00
6511.00,-8.68,-3.69,-4.70,-0.33,-0.85,1.49,-17.56,-25.49,29.95,-1.00
6525.00,-8.29,-3.64,-4.40,-0.36,-0.97,1.45,-17.56,-25.49,29.95,-1.00
6537.00,-8.29,-3.64,-4.40,-0.36,-0.97,1.45,-17.56,-25.49,29.95,-1.00
6549.00,-7.99,-3.43,-4.87,-0.29,-1.08,1.37,-17.56,-25.49,29.95,-1.00
6563.00,-7.78,-3.59,-4.00,-0.20,-1.19,1.27,-19.24,-24.05,25.94,-1.00
6652.00,-8.50,-3.60,-4.35,-0.28,-1.56,0.96,-19.24,-24.05,25.94,-1.00
6741.00,-7.56,-3.20,-4.51,-0.57,-1.66,0.58,-20.36,-22.26,26.83,-1.00
6831.00,-7.96,-3.80,-4.61,0.54,-1.33,0.49,-17.00,-25.85,25.49,-1.00
6844.00,-8.32,-4.41,-3.81,0.42,-1.27,0.62,-17.00,-25.85,25.49,-1.00
6856.00,-8.32,-4.41,-3.81,0.42,-1.27,0.62,-17.00,-25.85,25.49,-1.00
6868.00,-8.33,-3.87,-4.37,0.18,-1.13,0.80,-17.00,-25.85,25.49,-1.00
6880.00,-8.33,-3.87,-4.37,0.18,-1.13,0.80,-17.00,-25.85,25.49,-1.00
6894.00,-8.08,-3.77,-4.85,0.02,-1.05,0.92,-17.00,-25.85,25.49,-1.00
6906.00,-7.77,-4.47,-4.99,-0.07,-1.02,1.00,-17.00,-25.85,25.49,-1.00
6918.00,-7.77,-4.47,-4.99,-0.07,-1.02,1.00,-17.00,-25.85,25.49,-1.00
6930.00,-7.86,-4.03,-4.98,-0.24,-0.92,1.23,-17.00,-25.85,25.49,-1.00
6944.00,-7.84,-3.39,-4.83,-0.28,-0.87,1.36,-17.84,-26.93,25.94,-1.00
6956.00,-7.84,-3.39,-4.83,-0.28,-0.87,1.36,-17.84,-26.93,25.94,-1.00
6968.00,-8.36,-3.70,-4.56,-0.23,-0.75,1.45,-17.84,-26.93,25.94,-1.00
6982.00,-7.95,-3.53,-4.29,-0.35,-0.69,1.56,-17.84,-26.93,25.94,-1.00
6994.00,-7.95,-3.53,-4.29,-0.35,-0.69,1.56,-17.84,-26.93,25.94,-1.00
7006.00,-8.96,-2.72,-5.16,-0.45,-0.68,1.64,-17.84,-26.93,25.94,-1.00
7018.00,-8.96,-2.72,-5.16,-0.45,-0.68,1.64,-17.84,-26.93,25.94,-1.00
7032.00,-8.51,-2.97,-4.84,-0.38,-0.75,1.61,-17.84,-26.93,25.94,-1.00
7044.00,-8.75,-2.13,-5.66,-0.35,-0.87,1.57,-17.84,-26.93,25.94,-1.00
7056.00,-8.75,-2.13,-5.66,-0.35,-0.87,1.57,-17.84,-26.93,25.94,-1.00
7070.00,-8.42,-2.88,-5.30,-0.13,-1.07,1.45,-19.24,-23.34,21.47,-1.00
7082.00,-8.08,-2.38,-4.87,-0.01,-1.26,1.33,-19.24,-23.34,21.47,-1.00
7094.00,-8.08,-2.38,-4.87,-0.01,-1.26,1.33,-19.24,-23.34,21.47,-1.00
7106.00,-8.34,-3.32,-4.82,-0.04,-1.23,1.21,-19.24,-23.34,21.47,-1.00
7120.00,-8.34,-3.32,-4.82,-0.04,-1.23,1.21,-19.24,-23.34,21.47,-1.00
7132.00,-8.65,-2.15,-5.48,-0.20,-1.25,1.23,-19.24,-23.34,21.47,-1.00
7144.00,-8.22,-2.65,-4.76,-0.13,-1.33,1.13,-19.24,-23.34,21.47,-1.00
7156.00,-8.22,-2.65,-4.76,-0.13,-1.33,1.13,-19.24,-23.34,21.47,-1.00
7170.00,-8.53,-3.10,-4.93,-0.19,-1.41,1.00,-19.24,-23.34,21.47,-1.00
7182.00,-8.44,-2.27,-5.23,-0.28,-1.50,0.85,-20.92,-21.90,21.03,-1.00
7194.00,-8.44,-2.27,-5.23,-0.28,-1.50,0.85,-20.92,-21.90,21.03,-1.00
7209.00,-8.50,-2.99,-4.95,-0.23,-1.64,0.66,-20.92,-21.90,21.03,-1.00
7220.00,-8.50,-2.99,-4.95,-0.23,-1.64,0.66,-20.92,-21.90,21.03,-1.00
7233.00,-7.89,-2.36,-4.64,-0.25,-1.76,0.58,-20.92,-21.90,21.03,-1.00
7244.00,-7.71,-3.04,-4.89,-0.21,-1.69,0.46,-20.92,-21.90,21.03,-1.00
7258.00,-7.71,-3.04,-4.89,-0.21,-1.69,0.46,-20.92,-21.90,21.03,-1.00
7270.00,-7.49,-2.40,-5.98,-0.15,-1.53,0.37,-20.92,-21.90,21.03,-1.00
7282.00,-7.73,-2.77,-6.44,0.10,-1.50,0.12,-20.92,-21.90,21.03,-1.00
7294.00,-7.73,-2.77,-6.44,0.10,-1.50,0.12,-20.92,-21.90,21.03,-1.00
7308.00,-8.33,-4.70,-5.56,0.37,-1.56,0.19,-17.98,-24.95,23.03,-1.00
7320.00,-8.33,-4.70,-5.56,0.37,-1.56,0.19,-17.98,-24.95,23.03,-1.00
7332.00,-7.95,-2.93,-5.12,0.31,-1.42,0.57,-17.98,-24.95,23.03,-1.00
7346.00,-8.11,-3.51,-4.03,0.41,-1.32,0.60,-17.98,-24.95,23.03,-1.00
7358.00,-8.11,-3.51,-4.03,0.41,-1.32,0.60,-17.98,-24.95,23.03,-1.00
7370.00,-8.62,-2.88,-5.10,0.29,-1.07,0.83,-17.98,-24.95,23.03,-1.00
7382.00,-8.17,-3.78,-4.56,0.22,-1.00,1.00,-17.98,-24.95,23.03,-1.00
7397.00,-8.17,-3.78,-4.56,0.22,-1.00,1.00,-17.98,-24.95,23.03,-1.00
7408.00,-8.03,-4.37,-4.74,-0.04,-0.94,1.15,-17.98,-24.95,23.03,-1.00
7420.00,-8.03,-4.37,-4.74,-0.04,-0.94,1.15,-17.98,-24.95,23.03,-1.00
7432.00,-8.06,-3.82,-5.46,-0.44,-0.75,1.47,-17.98,-24.95,23.03,-1.00
7446.00,-8.26,-2.66,-5.55,-0.54,-0.71,1.69,-18.54,-24.59,22.14,-1.00
7458.00,-8.26,-2.66,-5.55,-0.54,-0.71,1.69,-18.54,-24.59,22.14,-1.00
7470.00,-8.28,-2.59,-4.90,-0.47,-0.81,1.73,-18.54,-24.59,22.14,-1.00
7482.00,-8.48,-2.65,-4.37,-0.33,-0.84,1.68,-18.54,-24.59,22.14,-1.00
7496.00,-8.48,-2.65,-4.37,-0.33,-0.84,1.68,-18.54,-24.59,22.14,-1.00
7508.00,-8.40,-2.78,-4.61,-0.30,-0.87,1.61,-18.54,-24.59,22.14,-1.00
7520.00,-8.40,-2.78,-4.61,-0.30,-0.87,1.61,-18.54,-24.59,22.14,-1.00
7534.00,-8.66,-1.53,-5.64,-0.34,-0.88,1.59,-18.54,-24.59,22.14,-1.00
7546.00,-8.35,-1.80,-5.44,-0.18,-1.08,1.41,-18.54,-24.59,22.14,-1.00
7558.00,-8.35,-1.80,-5.44,-0.18,-1.08,1.41,-18.54,-24.59,22.14,-1.00
7570.00,-8.48,-2.18,-4.79,-0.03,-1.24,1.24,-20.50,-20.64,20.80,-1.00
7584.00,-8.38,-2.40,-4.70,-0.05,-1.28,1.17,-20.50,-20.64,20.80,-1.00
7596.00,-8.38,-2.40,-4.70,-0.05,-1.28,1.17,-20.50,-20.64,20.80,-1.00
7608.00,-8.43,-2.44,-4.81,-0.14,-1.27,1.15,-20.50,-20.64,20.80,-1.00
7622.00,-8.68,-1.33,-5.44,-0.30,-1.29,1.06,-20.50,-20.64,20.80,-1.00
7634.00,-8.68,-1.33,-5.44,-0.30,-1.29,1.06,-20.50,-20.64,20.80,-1.00
7646.00,-8.65,-1.47,-5.80,-0.36,-1.43,0.78,-20.50,-20.64,20.80,-1.00
7658.00,-8.65,-1.47,-5.80,-0.36,-1.43,0.78,-20.50,-20.64,20.80,-1.00
7673.00,-8.25,-2.77,-4.91,-0.20,-1.65,0.60,-20.50,-20.64,20.80,-1.00
7684.00,-8.41,-2.66,-4.98,-0.23,-1.65,0.60,-20.36,-20.82,19.24,-1.00
7696.00,-8.41,-2.66,-4.98,-0.23,-1.65,0.60,-20.36,-20.82,19.24,-1.00
7708.00,-8.54,-2.81,-5.39,-0.32,-1.60,0.56,-20.36,-20.82,19.24,-1.00
7722.00,-7.91,-1.83,-5.41,-0.37,-1.68,0.39,-20.36,-20.82,19.24,-1.00
7734.00,-7.91,-1.83,-5.41,-0.37,-1.68,0.39,-20.36,-20.82,19.24,-1.00
7746.00,-7.81,-3.02,-4.83,-0.28,-1.73,0.20,-20.36,-20.82,19.24,-1.00
7760.00,-7.81,-3.02,-4.83,-0.28,-1.73,0.20,-20.36,-20.82,19.24,-1.00
7772.00,-7.66,-2.60,-5.67,-0.18,-1.59,0.31,-20.36,-20.82,19.24,-1.00
7784.00,-7.63,-2.31,-5.35,-0.06,-1.49,0.39,-20.36,-20.82,19.24,-1.00
7796.00,-7.63,-2.31,-5.35,-0.06,-1.49,0.39,-20.36,-20.82,19.24,-1.00
7810.00,-7.71,-2.60,-5.69,0.11,-1.36,0.43,-20.36,-20.82,19.24,-1.00
7822.00,-7.71,-2.60,-5.69,0.11,-1.36,0.43,-20.36,-20.82,19.24,-1.00
7834.00,-8.23,-2.86,-5.32,0.26,-1.23,0.55,-19.38,-23.87,20.80,-1.00
7846.00,-8.45,-2.68,-5.27,0.33,-1.17,0.68,-19.38,-23.87,20.80,-1.00
7860.00,-8.45,-2.68,-5.27,0.33,-1.17,0.68,-19.38,-23.87,20.80,-1.00
7872.00,-8.44,-2.74,-5.41,0.28,-1.15,0.83,-19.38,-23.87,20.80,-1.00
7884.00,-7.87,-3.48,-4.61,0.18,-1.00,1.05,-19.38,-23.87,20.80,-1.00
7896.00,-7.87,-3.48,-4.61,0.18,-1.00,1.05,-19.38,-23.87,20.80,-1.00
7910.00,-8.14,-3.58,-5.11,-0.02,-0.81,1.24,-19.38,-23.87,20.80,-1.00
7922.00,-8.14,-3.58,-5.11,-0.02,-0.81,1.24,-19.38,-23.87,20.80,-1.00
7934.00,-8.04,-3.43,-5.19,-0.33,-0.70,1.50,-19.38,-23.87,20.80,-1.00
7948.00,-8.26,-2.73,-4.90,-0.51,-0.71,1.68,-19.38,-23.87,19.02,-1.00
7960.00,-8.26,-2.73,-4.90,-0.51,-0.71,1.68,-19.38,-23.87,19.02,-1.00
7972.00,-8.69,-1.96,-4.90,-0.58,-0.70,1.78,-19.38,-23.87,19.02,-1.00
7984.00,-8.77,-1.80,-5.41,-0.47,-0.78,1.71,-19.38,-23.87,19.02,-1.00
7999.00,-8.77,-1.80,-5.41,-0.47,-0.78,1.71,-19.38,-23.87,19.02,-1.00
8010.00,-9.05,-1.59,-5.09,-0.24,-0.95,1.55,-19.38,-23.87,19.02,-1.00
8022.00,-9.05,-1.59,-5.09,-0.24,-0.95,1.55,-19.38,-23.87,19.02,-1.00
8036.00,-8.76,-1.70,-5.83,-0.12,-1.08,1.42,-19.38,-23.87,19.02,-1.00
8048.00,-8.48,-1.89,-4.62,-0.05,-1.11,1.35,-19.38,-23.87,19.02,-1.00
8060.00,-8.48,-1.89,-4.62,-0.05,-1.11,1.35,-19.38,-23.87,19.02,-1.00
8072.00,-8.59,-2.48,-4.25,0.01,-1.18,1.26,-21.05,-21.72,16.34,-1.00
8086.00,-8.77,-1.10,-5.12,-0.10,-1.22,1.20,-21.05,-21.72,16.34,-1.00
8098.00,-8.77,-1.10,-5.12,-0.10,-1.22,1.20,-21.05,-21.72,16.34,-1.00
8110.00,-8.55,-1.80,-5.97,-0.15,-1.31,1.00,-21.05,-21.72,16.34,-1.00
8122.00,-8.55,-1.80,-5.97,-0.15,-1.31,1.00,-21.05,-21.72,16.34,-1.00
8136.00,-8.74,-1.39,-5.24,-0.20,-1.56,0.79,-21.05,-21.72,16.34,-1.00
8148.00,-8.42,-2.14,-4.52,-0.35,-1.64,0.51,-21.05,-21.72,16.34,-1.00
8160.00,-8.42,-2.14,-4.52,-0.35,-1.64,0.51,-21.05,-21.72,16.34,-1.00
8174.00,-7.89,-2.29,-5.27,-0.32,-1.53,0.39,-21.05,-21.72,16.34,-1.00
8186.00,-7.90,-2.56,-5.18,-0.18,-1.59,0.26,-20.64,-22.26,19.69,-1.00
8198.00,-7.90,-2.56,-5.18,-0.18,-1.59,0.26,-20.64,-22.26,19.69,-1.00
8210.00,-7.89,-2.16,-5.96,0.03,-1.63,0.04,-20.64,-22.26,19.69,-1.00
8224.00,-7.89,-3.34,-5.69,0.27,-1.65,-0.06,-20.64,-22.26,19.69,-1.00
8313.00,-8.38,-1.97,-6.11,0.34,-1.22,0.57,-20.64,-22.26,19.69,-1.00
8401.00,-8.48,-2.66,-5.54,-0.41,-0.78,1.41,-18.40,-25.49,17.45,-1.00
8490.00,-8.42,-1.19,-4.84,-0.42,-0.85,1.67,-19.38,-23.52,15.45,-1.00
8504.00,-8.44,-1.65,-5.55,-0.31,-0.93,1.56,-19.38,-23.52,15.45,-1.00
8516.00,-8.44,-1.65,-5.55,-0.31,-0.93,1.56,-19.38,-23.52,15.45,-1.00
8528.00,-9.01,-1.68,-4.91,-0.23,-1.05,1.41,-19.38,-23.52,15.45,-1.00
8542.00,-9.01,-1.68,-4.91,-0.23,-1.05,1.41,-19.38,-23.52,15.45,-1.00
8554.00,-8.43,-1.47,-5.08,-0.18,-1.10,1.31,-19.38,-23.52,15.45,-1.00
8566.00,-8.83,-1.43,-6.02,-0.17,-1.14,1.21,-20.50,-21.72,11.87,-1.00
8578.00,-8.83,-1.43,-6.02,-0.17,-1.14,1.21,-20.50,-21.72,11.87,-1.00
8592.00,-8.60,-1.54,-5.72,-0.09,-1.23,1.06,-20.50,-21.72,11.87,-1.00
8604.00,-8.50,-1.31,-5.61,-0.14,-1.38,0.89,-20.50,-21.72,11.87,-1.00
8616.00,-8.50,-1.31,-5.61,-0.14,-1.38,0.89,-20.50,-21.72,11.87,-1.00
8628.00,-8.35,-2.48,-4.98,-0.24,-1.48,0.69,-20.50,-21.72,11.87,-1.00
8642.00,-8.35,-2.48,-4.98,-0.24,-1.48,0.69,-20.50,-21.72,11.87,-1.00
8654.00,-8.20,-2.34,-5.05,-0.33,-1.49,0.69,-20.50,-21.72,11.87,-1.00
8666.00,-8.22,-1.84,-5.09,-0.36,-1.44,0.72,-20.50,-21.72,11.87,-1.00
8680.00,-8.22,-1.84,-5.09,-0.36,-1.44,0.72,-20.50,-21.72,11.87,-1.00
8692.00,-8.28,-1.94,-5.53,-0.27,-1.43,0.62,-21.47,-21.90,13.44,-1.00
8704.00,-8.29,-2.01,-5.38,-0.19,-1.53,0.56,-21.47,-21.90,13.44,-1.00
8716.00,-8.29,-2.01,-5.38,-0.19,-1.53,0.56,-21.47,-21.90,13.44,-1.00
8731.00,-8.01,-2.04,-4.89,-0.15,-1.59,0.51,-21.47,-21.90,13.44,-1.00
8742.00,-8.01,-2.04,-4.89,-0.15,-1.59,0.51,-21.47,-21.90,13.44,-1.00
8754.00,-8.38,-1.86,-5.07,-0.18,-1.56,0.43,-21.47,-21.90,13.44,-1.00
8766.00,-7.81,-1.96,-5.53,-0.12,-1.51,0.31,-21.47,-21.90,13.44,-1.00
8780.00,-7.81,-1.96,-5.53,-0.12,-1.51,0.31,-21.47,-21.90,13.44,-1.00
8792.00,-7.21,-2.37,-5.94,0.04,-1.42,0.27,-21.47,-21.90,13.44,-1.00
8804.00,-7.68,-2.59,-6.09,0.02,-1.25,0.49,-21.47,-21.90,13.44,-1.00
8818.00,-7.68,-2.59,-6.09,0.02,-1.25,0.49,-21.47,-21.90,13.44,-1.00
8830.00,-8.21,-1.80,-6.03,0.02,-1.20,0.62,-18.82,-23.87,14.11,-1.00
8842.00,-8.21,-1.80,-6.03,0.02,-1.20,0.62,-18.82,-23.87,14.11,-1.00
8854.00,-8.14,-1.85,-5.56,0.12,-1.21,0.70,-18.82,-23.87,14.11,-1.00
8868.00,-8.34,-2.08,-5.17,0.21,-1.18,0.77,-18.82,-23.87,14.11,-1.00
8881.00,-8.34,-2.08,-5.17,0.21,-1.18,0.77,-18.82,-23.87,14.11,-1.00
8893.00,-8.16,-2.02,-5.26,0.13,-1.14,0.85,-18.82,-23.87,14.11,-1.00
8905.00,-8.50,-2.07,-5.56,0.04,-1.05,1.00,-18.82,-23.87,14.11,-1.00
8919.00,-8.50,-2.07,-5.56,0.04,-1.05,1.00,-18.82,-23.87,14.11,-1.00
8931.00,-7.79,-2.41,-5.48,-0.07,-0.96,1.15,-18.82,-23.87,14.11,-1.00
8943.00,-7.79,-2.41,-5.48,-0.07,-0.96,1.15,-18.82,-23.87,14.11,-1.00
8955.00,-7.88,-2.01,-5.87,-0.16,-0.87,1.28,-19.24,-23.70,13.88,-1.00
8969.00,-8.52,-2.08,-5.35,-0.14,-0.86,1.36,-19.24,-23.70,13.88,-1.00
8981.00,-8.52,-2.08,-5.35,-0.14,-0.86,1.36,-19.24,-23.70,13.88,-1.00
8993.00,-8.14,-1.58,-4.86,-0.24,-0.94,1.46,-19.24,-23.70,13.88,-1.00
9008.00,-8.40,-1.42,-4.70,-0.35,-0.92,1.57,-19.24,-23.70,13.88,-1.00
9019.00,-8.40,-1.42,-4.70,-0.35,-0.92,1.57,-19.24,-23.70,13.88,-1.00
9031.00,-8.91,-1.84,-4.03,-0.33,-0.90,1.63,-19.24,-23.70,13.88,-1.00
9043.00,-8.91,-1.84,-4.03,-0.33,-0.90,1.63,-19.24,-23.70,13.88,-1.00
9057.00,-8.89,-0.81,-5.28,-0.35,-0.96,1.62,-19.24,-23.70,13.88,-1.00
9069.00,-8.60,-1.55,-4.86,-0.25,-1.08,1.46,-20.22,-22.08,10.09,-1.00
9081.00,-8.60,-1.55,-4.86,-0.25,-1.08,1.46,-20.22,-22.08,10.09,-1.00
9095.00,-8.55,-0.80,-5.32,-0.16,-1.09,1.37,-20.22,-22.08,10.09,-1.00
9107.00,-8.69,-1.60,-5.36,-0.13,-1.16,1.22,-20.22,-22.08,10.09,-1.00
9119.00,-8.69,-1.60,-5.36,-0.13,-1.16,1.22,-20.22,-22.08,10.09,-1.00
9131.00,-8.54,-1.43,-5.15,-0.14,-1.22,1.16,-20.22,-22.08,10.09,-1.00
9145.00,-8.65,-1.41,-4.99,-0.21,-1.27,1.06,-20.22,-22.08,10.09,-1.00
9157.00,-8.65,-1.41,-4.99,-0.21,-1.27,1.06,-20.22,-22.08,10.09,-1.00
9169.00,-8.36,-1.73,-4.82,-0.25,-1.33,0.89,-20.22,-22.08,10.09,-1.00
9181.00,-8.36,-1.73,-4.82,-0.25,-1.33,0.89,-20.22,-22.08,10.09,-1.00
9196.00,-8.65,-1.79,-5.74,-0.24,-1.26,0.81,-21.47,-18.66,8.08,-1.00
9207.00,-8.40,-0.79,-6.40,-0.32,-1.36,0.69,-21.47,-18.66,8.08,-1.00
9219.00,-8.40,-0.79,-6.40,-0.32,-1.36,0.69,-21.47,-18.66,8.08,-1.00
9233.00,-7.78,-1.42,-5.82,-0.17,-1.48,0.47,-21.47,-18.66,8.08,-1.00
9245.00,-7.71,-2.06,-5.45,-0.11,-1.48,0.46,-21.47,-18.66,8.08,-1.00
9257.00,-7.71,-2.06,-5.45,-0.11,-1.48,0.46,-21.47,-18.66,8.08,-1.00
9269.00,-8.00,-1.11,-6.58,-0.15,-1.40,0.51,-21.47,-18.66,8.08,-1.00
9283.00,-8.00,-1.11,-6.58,-0.15,-1.40,0.51,-21.47,-18.66,8.08,-1.00
9295.00,-8.01,-1.98,-5.77,-0.14,-1.48,0.37,-21.47,-18.66,8.08,-1.00
9307.00,-7.61,-2.03,-6.17,-0.09,-1.42,0.37,-21.47,-18.66,8.08,-1.00
9319.00,-7.61,-2.03,-6.17,-0.09,-1.42,0.37,-21.47,-18.66,8.08,-1.00
9333.00,-7.54,-1.70,-5.99,-0.09,-1.39,0.51,-20.64,-22.62,7.19,-1.00
9345.00,-7.62,-1.55,-5.77,-0.07,-1.28,0.68,-20.64,-22.62,7.19,-1.00
9357.00,-7.62,-1.55,-5.77,-0.07,-1.28,0.68,-20.64,-22.62,7.19,-1.00
9369.00,-7.89,-1.23,-6.11,-0.07,-1.15,0.80,-20.64,-22.62,7.19,-1.00
9383.00,-7.89,-1.23,-6.11,-0.07,-1.15,0.80,-20.64,-22.62,7.19,-1.00
9395.00,-8.34,-1.53,-5.92,0.06,-1.17,0.79,-20.64,-22.62,7.19,-1.00
9407.00,-8.27,-1.80,-5.46,0.20,-1.22,0.79,-20.64,-22.62,7.19,-1.00
9421.00,-8.27,-1.80,-5.46,0.20,-1.22,0.79,-20.64,-22.62,7.19,-1.00
9433.00,-8.17,-1.70,-5.11,0.18,-1.20,0.86,-20.64,-22.62,7.19,-1.00
9445.00,-8.47,-1.69,-5.43,0.16,-1.10,0.89,-20.64,-23.70,8.53,-1.00
9457.00,-8.47,-1.69,-5.43,0.16,-1.10,0.89,-20.64,-23.70,8.53,-1.00
9472.00,-8.28,-1.72,-5.71,0.08,-1.12,0.89,-20.64,-23.70,8.53,-1.00
9483.00,-8.28,-1.72,-5.71,0.08,-1.12,0.89,-20.64,-23.70,8.53,-1.00
9495.00,-7.93,-2.32,-5.59,0.08,-1.14,0.91,-20.64,-23.70,8.53,-1.00
9507.00,-7.95,-1.86,-6.20,-0.03,-1.06,1.06,-20.64,-23.70,8.53,-1.00
9521.00,-7.95,-1.86,-6.20,-0.03,-1.06,1.06,-20.64,-23.70,8.53,-1.00
9533.00,-7.82,-1.70,-6.01,-0.11,-1.02,1.20,-20.64,-23.70,8.53,-1.00
9545.00,-7.41,-1.93,-5.59,-0.17,-0.96,1.33,-20.64,-23.70,8.53,-1.00
9557.00,-7.41,-1.93,-5.59,-0.17,-0.96,1.33,-20.64,-23.70,8.53,-1.00
9571.00,-8.02,-1.94,-5.62,-0.27,-0.90,1.46,-19.66,-22.80,6.07,-1.00
9583.00,-8.02,-1.94,-5.62,-0.27,-0.90,1.46,-19.66,-22.80,6.07,-1.00
9595.00,-8.77,-1.49,-5.45,-0.35,-0.91,1.62,-19.66,-22.80,6.07,-1.00
9609.00,-8.32,-0.87,-5.21,-0.31,-0.97,1.71,-19.66,-22.80,6.07,-1.00
9621.00,-8.32,-0.87,-5.21,-0.31,-0.97,1.71,-19.66,-22.80,6.07,-1.00
9633.00,-8.83,-0.52,-5.05,-0.18,-0.99,1.68,-19.66,-22.80,6.07,-1.00
9645.00,-8.67,-0.77,-6.05,-0.08,-1.08,1.59,-19.66,-22.80,6.07,-1.00
9659.00,-8.67,-0.77,-6.05,-0.08,-1.08,1.59,-19.66,-22.80,6.07,-1.00
9671.00,-8.47,-1.15,-4.65,-0.04,-1.17,1.50,-19.66,-22.80,6.07,-1.00
9683.00,-8.47,-1.15,-4.65,-0.04,-1.17,1.50,-19.66,-22.80,6.07,-1.00
9695.00,-8.54,-0.50,-4.90,-0.09,-1.18,1.41,-21.19,-17.23,4.51,-1.00
9709.00,-8.55,-1.29,-5.47,-0.06,-1.16,1.28,-21.19,-17.23,4.51,-1.00
9721.00,-8.55,-1.29,-5.47,-0.06,-1.16,1.28,-21.19,-17.23,4.51,-1.00
9733.00,-8.62,-1.09,-5.82,-0.12,-1.23,1.19,-21.19,-17.23,4.51,-1.00
9747.00,-9.05,-0.43,-5.45,-0.24,-1.34,1.13,-21.19,-17.23,4.51,-1.00
9759.00,-9.05,-0.43,-5.45,-0.24,-1.34,1.13,-21.19,-17.23,4.51,-1.00
9771.00,-8.50,-1.23,-5.15,-0.25,-1.38,0.91,-21.19,-17.23,4.51,-1.00
9783.00,-8.50,-1.23,-5.15,-0.25,-1.38,0.91,-21.19,-17.23,4.51,-1.00
9798.00,-8.32,-0.16,-5.97,-0.27,-1.42,0.70,-21.19,-17.23,4.51,-1.00
9809.00,-7.97,-1.26,-6.13,-0.22,-1.48,0.42,-21.19,-17.23,4.51,-1.00
9821.00,-7.97,-1.26,-6.13,-0.22,-1.48,0.42,-21.19,-17.23,4.51,-1.00
9833.00,-8.06,-1.27,-6.07,-0.20,-1.48,0.39,-22.03,-19.74,4.06,-1.00
9847.00,-7.93,-1.26,-5.15,-0.18,-1.47,0.30,-22.03,-19.74,4.06,-1.00
9859.00,-7.93,-1.26,-5.15,-0.18,-1.47,0.30,-22.03,-19.74,4.06,-1.00
9871.00,-7.66,-2.03,-5.93,-0.12,-1.43,0.29,-22.03,-19.74,4.06,-1.00
9883.00,-7.66,-2.03,-5.93,-0.12,-1.43,0.29,-22.03,-19.74,4.06,-1.00
9897.00,-7.46,-1.71,-6.08,-0.10,-1.34,0.45,-22.03,-19.74,4.06,-1.00
9909.00,-7.67,-0.76,-6.52,-0.18,-1.19,0.66,-22.03,-19.74,4.06,-1.00
9921.00,-7.67,-0.76,-6.52,-0.18,-1.19,0.66,-22.03,-19.74,4.06,-1.00
9935.00,-7.75,-0.42,-6.83,-0.14,-1.10,0.74,-22.03,-19.74,4.06,-1.00
9947.00,-7.80,-0.61,-7.03,0.08,-1.13,0.72,-21.19,-21.18,5.40,-1.00
9959.00,-7.80,-0.61,-7.03,0.08,-1.13,0.72,-21.19,-21.18,5.40,-1.00
9971.00,-7.98,-0.51,-6.10,0.20,-1.22,0.81,-21.19,-21.18,5.40,-1.00
9985.00,-8.08,-0.85,-5.41,0.26,-1.22,0.86,-21.19,-21.18,5.40,-1.00
9997.00,-8.08,-0.85,-5.41,0.26,-1.22,0.86,-21.19,-21.18,5.40,-1.00
10009.00,-8.19,-1.50,-5.45,0.18,-1.16,0.91,-21.19,-21.18,5.40,-1.00
10021.00,-8.19,-1.50,-5.45,0.18,-1.16,0.91,-21.19,-21.18,5.40,-1.00
10035.00,-7.84,-1.48,-5.76,0.09,-1.10,1.01,-21.19,-21.18,5.40,-1.00
10047.00,-7.73,-1.62,-5.86,0.02,-1.04,1.13,-21.19,-21.18,5.40,-1.00
10059.00,-7.73,-1.62,-5.86,0.02,-1.04,1.13,-21.19,-21.18,5.40,-1.00
10074.00,-7.94,-1.12,-6.29,-0.12,-0.98,1.29,-20.78,-20.28,4.29,-1.00
10085.00,-8.30,-0.96,-6.08,-0.19,-1.01,1.40,-20.78,-20.28,4.29,-1.00
10097.00,-8.30,-0.96,-6.08,-0.19,-1.01,1.40,-20.78,-20.28,4.29,-1.00
10109.00,-8.23,-0.93,-5.83,-0.18,-1.00,1.53,-20.78,-20.28,4.29,-1.00
10123.00,-8.23,-0.93,-5.83,-0.18,-1.00,1.53,-20.78,-20.28,4.29,-1.00
10135.00,-8.11,-0.63,-5.25,-0.15,-1.02,1.62,-20.78,-20.28,4.29,-1.00
10147.00,-8.50,-1.12,-5.77,-0.11,-1.06,1.59,-20.78,-20.28,4.29,-1.00
10159.00,-8.50,-1.12,-5.77,-0.11,-1.06,1.59,-20.78,-20.28,4.29,-1.00
10173.00,-8.68,-0.34,-6.16,-0.11,-1.14,1.52,-20.78,-20.28,4.29,-1.00
10185.00,-8.53,-1.16,-5.09,-0.07,-1.20,1.44,-20.78,-20.28,4.29,-1.00
10197.00,-8.53,-1.16,-5.09,-0.07,-1.20,1.44,-20.78,-20.28,4.29,-1.00
10211.00,-8.41,-0.57,-5.49,-0.10,-1.24,1.35,-22.31,-17.59,3.62,-1.00
10224.00,-8.41,-0.57,-5.49,-0.10,-1.24,1.35,-22.31,-17.59,3.62,-1.00
10235.00,-8.83,-0.78,-5.72,-0.04,-1.31,1.20,-22.31,-17.59,3.62,-1.00
10247.00,-8.77,-1.28,-5.06,-0.09,-1.40,1.14,-22.31,-17.59,3.62,-1.00
10263.00,-8.77,-1.28,-5.06,-0.09,-1.40,1.14,-22.31,-17.59,3.62,-1.00
10274.00,-8.71,-0.78,-5.08,-0.19,-1.41,1.10,-22.31,-17.59,3.62,-1.00
10286.00,-8.95,-0.04,-5.19,-0.21,-1.49,0.90,-22.31,-17.59,3.62,-1.00
10298.00,-8.95,-0.04,-5.19,-0.21,-1.49,0.90,-22.31,-17.59,3.62,-1.00
10312.00,-8.60,-0.58,-5.61,-0.22,-1.51,0.62,-22.31,-17.59,3.62,-1.00
10324.00,-8.60,-0.58,-5.61,-0.22,-1.51,0.62,-22.31,-17.59,3.62,-1.00
10336.00,-8.13,-1.00,-5.94,-0.17,-1.50,0.44,-24.55,-16.87,3.17,-1.00
10350.00,-7.64,-1.16,-5.65,-0.15,-1.49,0.40,-24.55,-16.87,3.17,-1.00
10362.00,-7.64,-1.16,-5.65,-0.15,-1.49,0.40,-24.55,-16.87,3.17,-1.00
10374.00,-7.95,-0.71,-6.63,-0.14,-1.49,0.37,-24.55,-16.87,3.17,-1.00
10386.00,-7.58,-0.10,-6.60,0.02,-1.46,0.32,-24.55,-16.87,3.17,-1.00
10400.00,-7.58,-0.10,-6.60,0.02,-1.46,0.32,-24.55,-16.87,3.17,-1.00
10412.00,-7.48,-1.36,-6.04,0.12,-1.38,0.27,-24.55,-16.87,3.17,-1.00
10424.00,-7.48,-1.36,-6.04,0.12,-1.38,0.27,-24.55,-16.87,3.17,-1.00
10436.00,-7.64,-1.48,-6.07,0.03,-1.19,0.52,-24.55,-16.87,3.17,-1.00
10450.00,-8.05,-0.37,-6.53,-0.11,-1.10,0.79,-22.31,-19.38,3.62,-1.00
10462.00,-8.05,-0.37,-6.53,-0.11,-1.10,0.79,-22.31,-19.38,3.62,-1.00
10474.00,-8.10,-0.10,-6.21,-0.04,-1.14,0.90,-22.31,-19.38,3.62,-1.00
10488.00,-8.06,0.08,-5.82,0.07,-1.16,0.90,-22.31,-19.38,3.62,-1.00
10500.00,-8.06,0.08,-5.82,0.07,-1.16,0.90,-22.31,-19.38,3.62,-1.00
10512.00,-7.58,-0.67,-5.78,0.12,-1.07,0.93,-22.31,-19.38,3.62,-1.00
10524.00,-7.58,-0.67,-5.78,0.12,-1.07,0.93,-22.31,-19.38,3.62,-1.00
10538.00,-7.87,-0.51,-6.21,-0.00,-0.98,1.13,-22.31,-19.38,3.62,-1.00
10626.00,-8.79,-0.19,-5.61,-0.06,-1.01,1.59,-23.15,-17.59,3.17,-1.00
10716.00,-8.64,-0.84,-5.42,-0.07,-1.32,1.13,-24.97,-15.25,2.05,-1.00
10804.00,-8.51,0.05,-5.64,-0.27,-1.45,0.62,-24.97,-15.25,2.05,-1.00
10818.00,-8.50,-0.65,-5.78,-0.22,-1.51,0.38,-24.97,-15.25,2.05,-1.00
10830.00,-7.69,-0.94,-5.61,-0.14,-1.45,0.31,-24.55,-15.79,2.72,-1.00
10842.00,-7.69,-0.94,-5.61,-0.14,-1.45,0.31,-24.55,-15.79,2.72,-1.00
10856.00,-7.73,-0.08,-6.47,-0.15,-1.36,0.27,-24.55,-15.79,2.72,-1.00
10868.00,-7.75,-0.27,-6.63,-0.02,-1.37,0.21,-24.55,-15.79,2.72,-1.00
10880.00,-7.75,-0.27,-6.63,-0.02,-1.37,0.21,-24.55,-15.79,2.72,-1.00
10892.00,-7.59,-1.15,-6.34,0.05,-1.36,0.30,-24.55,-15.79,2.72,-1.00
10906.00,-7.89,-0.80,-6.00,-0.07,-1.26,0.61,-24.55,-15.79,2.72,-1.00
10918.00,-7.89,-0.80,-6.00,-0.07,-1.26,0.61,-24.55,-15.79,2.72,-1.00
10930.00,-8.11,-0.22,-6.37,-0.07,-1.15,0.81,-24.55,-15.79,2.72,-1.00
10942.00,-8.11,-0.22,-6.37,-0.07,-1.15,0.81,-24.55,-15.79,2.72,-1.00
10956.00,-8.23,0.01,-6.03,0.01,-1.16,0.90,-23.43,-19.02,3.62,-1.00
10968.00,-8.33,-0.07,-5.86,0.13,-1.16,0.90,-23.43,-19.02,3.62,-1.00
10980.00,-8.33,-0.07,-5.86,0.13,-1.16,0.90,-23.43,-19.02,3.62,-1.00
10992.00,-8.21,-0.50,-5.56,0.22,-1.12,0.92,-23.43,-19.02,3.62,-1.00
11006.00,-8.37,0.45,-5.72,0.15,-1.03,1.07,-23.43,-19.02,3.62,-1.00
11018.00,-8.37,0.45,-5.72,0.15,-1.03,1.07,-23.43,-19.02,3.62,-1.00
11030.00,-8.46,-0.40,-6.28,0.10,-0.95,1.13,-23.43,-19.02,3.62,-1.00
11044.00,-8.46,-0.40,-6.28,0.10,-0.95,1.13,-23.43,-19.02,3.62,-1.00
11056.00,-7.93,-1.10,-5.81,-0.06,-1.01,1.32,-23.43,-19.02,3.62,-1.00
11068.00,-8.06,0.34,-6.33,-0.25,-1.03,1.62,-22.87,-17.94,0.94,-1.00
11080.00,-8.06,0.34,-6.33,-0.25,-1.03,1.62,-22.87,-17.94,0.94,-1.00
11095.00,-9.00,0.58,-4.70,-0.23,-1.01,1.66,-22.87,-17.94,0.94,-1.00
11106.00,-8.57,0.18,-6.19,-0.15,-1.00,1.50,-22.87,-17.94,0.94,-1.00
11118.00,-8.57,0.18,-6.19,-0.15,-1.00,1.50,-22.87,-17.94,0.94,-1.00
11130.00,-8.63,-0.79,-5.12,-0.10,-1.04,1.47,-22.87,-17.94,0.94,-1.00
11144.00,-8.63,-0.79,-5.12,-0.10,-1.04,1.47,-22.87,-17.94,0.94,-1.00
11156.00,-8.65,-0.81,-5.68,-0.08,-1.09,1.53,-22.87,-17.94,0.94,-1.00
11168.00,-8.66,-0.03,-5.55,-0.03,-1.16,1.43,-22.87,-17.94,0.94,-1.00
11182.00,-8.66,-0.03,-5.55,-0.03,-1.16,1.43,-22.87,-17.94,0.94,-1.00
11194.00,-8.96,-0.23,-6.02,0.03,-1.24,1.27,-22.87,-17.94,0.94,-1.00
11206.00,-8.74,-0.66,-5.61,0.03,-1.33,1.18,-25.52,-14.53,0.94,-1.00
11218.00,-8.74,-0.66,-5.61,0.03,-1.33,1.18,-25.52,-14.53,-1.07,-1.00
11232.00,-9.14,0.39,-5.75,-0.04,-1.45,1.10,-25.52,-14.53,-1.07,-1.00
11244.00,-9.14,0.39,-5.75,-0.04,-1.45,1.10,-25.52,-14.53,-1.07,-1.00
11256.00,-8.81,-0.85,-5.04,-0.03,-1.54,0.83,-25.52,-14.53,-1.07,-1.00
11268.00,-8.95,-0.06,-5.14,-0.19,-1.55,0.74,-25.52,-14.53,-1.07,-1.00
11283.00,-8.95,-0.06,-5.14,-0.19,-1.55,0.74,-25.52,-14.53,-1.07,-1.00
11294.00,-8.51,-0.65,-4.29,-0.32,-1.57,0.59,-25.52,-14.53,-1.07,-1.00
11306.00,-8.25,0.24,-6.35,-1.07,-1.44,0.54,-25.52,-14.53,-1.07,-1.00
11320.00,-8.25,0.24,-6.35,-1.07,-1.44,0.54,-25.52,-14.53,-1.07,-1.00
11332.00,-8.41,-0.06,-5.98,-0.66,-1.31,0.49,-25.80,-15.25,-0.18,-1.00
11344.00,-8.41,-0.06,-5.98,-0.66,-1.31,0.49,-25.80,-15.25,-0.18,-1.00
11356.00,-7.86,-0.36,-6.16,-0.38,-1.31,0.30,-25.80,-15.25,-0.18,-1.00
11370.00,-7.73,0.36,-6.29,-0.19,-1.31,0.26,-25.80,-15.25,-0.18,-1.00
11382.00,-7.73,0.36,-6.29,-0.19,-1.31,0.26,-25.80,-15.25,-0.18,-1.00
11394.00,-8.01,-0.36,-6.38,0.08,-1.43,0.19,-25.80,-15.25,-0.18,-1.00
11406.00,-8.01,-0.36,-6.38,0.08,-1.43,0.19,-25.80,-15.25,-0.18,-1.00
11420.00,-7.65,-1.36,-5.67,0.15,-1.42,0.38,-25.80,-15.25,-0.18,-1.00
11432.00,-7.85,-0.09,-5.62,-0.06,-1.23,0.77,-25.80,-15.25,-0.18,-1.00
11444.00,-7.85,-0.09,-5.62,-0.06,-1.23,0.77,-25.80,-15.25,-0.18,-1.00
11458.00,-7.76,1.28,-6.57,-0.07,-1.05,0.91,-25.11,-16.15,0.94,-1.00
11470.00,-8.05,1.11,-6.61,0.05,-1.04,0.89,-25.11,-16.15,0.94,-1.00
11482.00,-8.05,1.11,-6.61,0.05,-1.04,0.89,-25.11,-16.15,0.94,-1.00
11494.00,-8.16,0.22,-6.04,0.22,-1.12,0.89,-25.11,-16.15,0.94,-1.00
11508.00,-8.28,0.90,-5.55,0.24,-1.11,1.04,-25.11,-16.15,0.94,-1.00
11520.00,-8.28,0.90,-5.55,0.24,-1.11,1.04,-25.11,-16.15,0.94,-1.00
11532.00,-8.12,0.26,-5.67,0.24,-0.98,1.12,-25.11,-16.15,0.94,-1.00
11544.00,-8.12,0.26,-5.67,0.24,-0.98,1.12,-25.11,-16.15,0.94,-1.00
11559.00,-8.33,-0.18,-5.57,0.14,-0.96,1.26,-25.11,-16.15,0.94,-1.00
11570.00,-8.51,0.04,-5.14,-0.02,-0.99,1.43,-24.55,-14.35,1.38,-1.00
11583.00,-8.51,0.04,-5.14,-0.02,-0.99,1.43,-24.55,-14.35,1.38,-1.00
11596.00,-9.51,0.42,-5.14,-0.11,-0.99,1.49,-24.55,-14.35,1.38,-1.00
11608.00,-8.75,0.06,-5.42,-0.09,-1.02,1.43,-24.55,-14.35,1.38,-1.00
11620.00,-8.75,0.06,-5.42,-0.09,-1.02,1.43,-24.55,-14.35,1.38,-1.00
11632.00,-8.74,0.01,-5.44,-0.14,-1.03,1.46,-24.55,-14.35,1.38,-1.00
11646.00,-8.74,0.01,-5.44,-0.14,-1.03,1.46,-24.55,-14.35,1.38,-1.00
11658.00,-8.97,-0.19,-5.66,-0.18,-1.10,1.41,-24.55,-14.35,1.38,-1.00
11670.00,-8.97,-0.52,-5.11,-0.13,-1.18,1.38,-24.55,-14.35,1.38,-1.00
11682.00,-8.97,-0.52,-5.11,-0.13,-1.18,1.38,-24.55,-14.35,1.38,-1.00
11696.00,-8.61,-0.06,-5.39,-0.10,-1.29,1.26,-24.55,-14.35,1.38,-1.00
11708.00,-8.67,-0.01,-5.38,-0.02,-1.38,1.11,-27.34,-15.07,-1.74,-1.00
11720.00,-8.67,-0.01,-5.38,-0.02,-1.38,1.11,-27.34,-15.07,-1.74,-1.00
11735.00,-8.76,0.20,-5.23,-0.03,-1.41,1.03,-27.34,-15.07,-1.74,-1.00
11747.00,-9.00,-0.22,-5.21,-0.13,-1.40,0.88,-27.34,-15.07,-1.74,-1.00
11759.00,-9.00,-0.22,-5.21,-0.13,-1.40,0.88,-27.34,-15.07,-1.74,-1.00
11771.00,-8.75,-0.27,-5.48,-0.24,-1.38,0.68,-27.34,-15.07,-1.74,-1.00
11785.00,-8.75,-0.27,-5.48,-0.24,-1.38,0.68,-27.34,-15.07,-1.74,-1.00
11797.00,-8.25,-0.30,-5.58,-0.24,-1.44,0.52,-27.34,-15.07,-1.74,-1.00
11809.00,-8.26,-0.20,-5.28,-0.22,-1.48,0.44,-27.34,-15.07,-1.74,-1.00
11821.00,-8.26,-0.20,-5.28,-0.22,-1.48,0.44,-27.34,-15.07,-1.74,-1.00
11835.00,-8.20,-0.23,-5.29,-0.21,-1.43,0.41,-26.50,-13.99,0.94,-1.00
11847.00,-7.86,-0.15,-5.81,-0.16,-1.35,0.33,-26.50,-13.99,0.94,-1.00
11859.00,-7.86,-0.15,-5.81,-0.16,-1.35,0.33,-26.50,-13.99,0.94,-1.00
11873.00,-7.74,-0.93,-6.21,-0.09,-1.31,0.35,-26.50,-13.99,0.94,-1.00
11885.00,-7.74,-0.93,-6.21,-0.09,-1.31,0.35,-26.50,-13.99,0.94,-1.00
11897.00,-7.77,-0.14,-6.01,-0.14,-1.29,0.60,-26.50,-13.99,0.94,-1.00
11909.00,-8.11,0.00,-5.71,-0.13,-1.26,0.73,-26.50,-13.99,0.94,-1.00
11923.00,-8.11,0.00,-5.71,-0.13,-1.26,0.73,-26.50,-13.99,0.94,-1.00
11935.00,-8.00,0.61,-6.08,-0.12,-1.11,0.83,-26.50,-13.99,0.94,-1.00
11947.00,-7.96,0.68,-6.83,-0.06,-1.06,0.85,-26.22,-15.43,1.38,-1.00
11959.00,-7.96,0.68,-6.83,-0.06,-1.06,0.85,-26.22,-15.43,1.38,-1.00
11973.00,-8.30,0.69,-6.41,0.03,-1.12,0.88,-26.22,-15.43,1.38,-1.00
11985.00,-8.30,0.69,-6.41,0.03,-1.12,0.88,-26.22,-15.43,1.38,-1.00
11997.00,-8.62,0.34,-5.23,0.11,-1.21,0.86,-26.22,-15.43,1.38,-1.00
12012.00,-8.71,-0.09,-4.75,0.14,-1.18,0.82,-26.22,-15.43,1.38,-1.00
12023.00,-8.71,-0.09,-4.75,0.14,-1.18,0.82,-26.22,-15.43,1.38,-1.00
12035.00,-8.38,-0.45,-5.44,0.11,-1.10,0.85,-26.22,-15.43,1.38,-1.00
12047.00,-8.10,0.19,-5.86,0.03,-1.09,0.96,-26.22,-15.43,1.38,-1.00
12061.00,-8.10,0.19,-5.86,0.03,-1.09,0.96,-26.22,-15.43,1.38,-1.00
12073.00,-7.95,-0.50,-6.26,0.03,-1.06,1.03,-24.55,-16.51,-0.40,-1.00
12085.00,-7.95,-0.50,-6.26,0.03,-1.06,1.03,-24.55,-16.51,-0.40,-1.00
12097.00,-8.43,0.10,-6.20,-0.06,-1.04,1.20,-24.55,-16.51,-0.40,-1.00
12111.00,-8.22,-0.40,-5.86,-0.06,-1.13,1.23,-24.55,-16.51,-0.40,-1.00
12123.00,-8.22,-0.40,-5.86,-0.06,-1.13,1.23,-24.55,-16.51,-0.40,-1.00
12135.00,-7.93,-0.67,-5.59,-0.09,-1.11,1.40,-24.55,-16.51,-0.40,-1.00
12149.00,-8.44,0.15,-5.29,-0.16,-0.99,1.59,-24.55,-16.51,-0.40,-1.00
12162.00,-8.44,0.15,-5.29,-0.16,-0.99,1.59,-24.55,-16.51,-0.40,-1.00
12173.00,-9.10,0.95,-6.68,-0.23,-0.95,1.59,-24.55,-16.51,-0.40,-1.00
12185.00,-9.10,0.95,-6.68,-0.23,-0.95,1.59,-24.55,-16.51,-0.40,-1.00
12200.00,-9.16,0.68,-5.28,-0.12,-1.07,1.51,-24.55,-16.51,-0.40,-1.00
12211.00,-8.71,0.46,-6.23,0.05,-1.17,1.55,-27.62,-12.55,-1.29,-1.00
12223.00,-8.71,0.46,-6.23,0.05,-1.17,1.55,-27.62,-12.55,-1.29,-1.00
12235.00,-8.82,1.34,-6.49,0.10,-1.17,1.60,-27.62,-12.55,-1.29,-1.00
12249.00,-8.72,0.84,-6.13,0.14,-1.29,1.45,-27.62,-12.55,-1.29,-1.00
12261.00,-8.72,0.84,-6.13,0.14,-1.29,1.45,-27.62,-12.55,-1.29,-1.00
12273.00,-8.60,0.50,-5.92,0.10,-1.47,1.27,-27.62,-12.55,-1.29,-1.00
12287.00,-8.48,-0.01,-4.48,0.11,-1.50,1.16,-27.62,-12.55,-1.29,-1.00
12299.00,-8.48,-0.01,-4.48,0.11,-1.50,1.16,-27.62,-12.55,-1.29,-1.00
12311.00,-9.04,0.55,-4.05,0.07,-1.42,1.03,-27.62,-12.55,-1.29,-1.00
12323.00,-9.04,0.55,-4.05,0.07,-1.42,1.03,-27.62,-12.55,-1.29,-1.00
12337.00,-7.81,-1.03,-5.96,0.04,-1.02,0.89,-26.50,-10.76,-1.29,-1.00
12349.00,-8.53,0.62,-5.51,-0.06,-1.20,1.15,-26.50,-10.76,-1.29,-1.00
12361.00,-8.53,0.62,-5.51,-0.06,-1.20,1.15,-26.50,-10.76,-1.29,-1.00
12373.00,-8.21,0.96,-6.28,-0.15,-1.12,1.01,-26.50,-10.76,-1.29,-1.00
12387.00,-8.21,0.96,-6.28,-0.15,-1.12,1.01,-26.50,-10.76,-1.29,-1.00
12399.00,-7.86,0.46,-6.84,-0.08,-1.15,0.85,-26.50,-10.76,-1.29,-1.00
12411.00,-8.18,-0.29,-5.63,0.06,-1.27,0.81,-26.50,-10.76,-1.29,-1.00
12425.00,-8.18,-0.29,-5.63,0.06,-1.27,0.81,-26.50,-10.76,-1.29,-1.00
12437.00,-8.30,-0.33,-4.48,0.10,-1.22,0.89,-26.50,-10.76,-1.29,-1.00
12449.00,-8.55,0.53,-3.52,0.05,-1.04,1.03,-28.32,-12.02,-3.30,-1.00
12461.00,-8.55,0.53,-3.52,0.05,-1.04,1.03,-28.32,-12.02,-3.30,-1.00
12476.00,-8.45,1.25,-3.69,0.05,-0.63,1.06,-28.32,-12.02,-3.30,-1.00
12487.00,-8.45,1.25,-3.69,0.05,-0.63,1.06,-28.32,-12.02,-3.30,-1.00
12499.00,-8.08,0.26,-5.43,0.01,-0.26,0.97,-28.32,-12.02,-3.30,-1.00
12511.00,-8.19,0.97,-10.65,-0.22,-0.09,1.03,-28.32,-12.02,-3.30,-1.00
12525.00,-8.19,0.97,-10.65,-0.22,-0.09,1.03,-28.32,-12.02,-3.30,-1.00
12537.00,-7.36,2.19,-10.08,-0.27,-0.66,1.06,-28.32,-12.02,-3.30,-1.00
12549.00,-8.03,-0.61,-3.54,-0.12,-1.60,0.67,-28.32,-12.02,-3.30,-1.00
12563.00,-8.03,-0.61,-3.54,-0.12,-1.60,0.67,-28.32,-12.02,-3.30,-1.00
12575.00,-8.10,-0.09,-4.97,-0.45,-1.59,0.70,-28.32,-12.02,-3.30,-1.00
12587.00,-8.10,-0.09,-4.97,-0.45,-1.59,0.70,-28.32,-12.02,-3.30,-1.00
12599.00,-8.19,0.46,-5.32,-0.02,-1.34,0.92,-27.20,-10.94,-2.86,-1.00
12613.00,-8.08,0.37,-6.10,-0.06,-1.18,0.98,-27.20,-10.94,-2.86,-1.00
12625.00,-8.08,0.37,-6.10,-0.06,-1.18,0.98,-27.20,-10.94,-2.86,-1.00
12637.00,-8.14,0.61,-6.06,-0.18,-1.16,1.01,-27.20,-10.94,-2.86,-1.00
12649.00,-8.10,0.95,-5.91,-0.22,-1.15,1.01,-27.20,-10.94,-2.86,-1.00
12663.00,-8.10,0.95,-5.91,-0.22,-1.15,1.01,-27.20,-10.94,-2.86,-1.00
12675.00,-8.05,0.83,-5.96,-0.15,-1.12,1.00,-27.20,-10.94,-2.86,-1.00
12687.00,-8.05,0.83,-5.96,-0.15,-1.12,1.00,-27.20,-10.94,-2.86,-1.00
12701.00,-7.97,0.79,-6.29,-0.06,-1.10,1.00,-27.20,-10.94,-2.86,-1.00
12713.00,-7.96,0.81,-6.51,-0.03,-1.11,1.01,-28.04,-9.86,-5.98,-1.00
12725.00,-7.96,0.81,-6.51,-0.03,-1.11,1.01,-28.04,-9.86,-5.98,-1.00
12737.00,-8.04,1.15,-6.75,-0.08,-1.17,1.00,-28.04,-9.86,-5.98,-1.00
12752.00,-8.39,0.73,-5.89,-0.13,-1.29,0.94,-28.04,-9.86,-5.98,-1.00
12763.00,-8.39,0.73,-5.89,-0.13,-1.29,0.94,-28.04,-9.86,-5.98,-1.00
12775.00,-9.15,2.12,-5.22,-0.25,-1.35,0.89,-28.04,-9.86,-5.98,-1.00
12787.00,-9.15,2.12,-5.22,-0.25,-1.35,0.89,-28.04,-9.86,-5.98,-1.00
12801.00,-8.85,1.52,-5.60,-0.31,-1.41,0.56,-28.04,-9.86,-5.98,-1.00
12813.00,-8.13,0.51,-5.60,-0.35,-1.43,0.33,-28.04,-9.86,-5.98,-1.00
12825.00,-8.13,0.51,-5.60,-0.35,-1.43,0.33,-28.04,-9.86,-5.98,-1.00
12839.00,-8.36,0.79,-5.20,-0.50,-1.42,0.24,-27.76,-9.14,-7.77,-1.00
12851.00,-8.47,0.47,-5.21,-0.52,-1.37,0.12,-27.76,-9.14,-7.77,-1.00
12863.00,-8.47,0.47,-5.21,-0.52,-1.37,0.12,-27.76,-9.14,-7.77,-1.00
12875.00,-8.02,1.36,-5.91,-0.53,-1.34,-0.11,-27.76,-9.14,-7.77,-1.00
12889.00,-8.24,0.51,-6.14,-0.22,-1.34,-0.58,-27.76,-9.14,-7.77,-1.00
12977.00,-7.76,0.29,-7.70,-0.12,-1.07,0.57,-24.69,-17.05,-6.43,-1.00
13067.00,-7.30,-2.14,-5.73,0.16,-1.03,1.57,-24.69,-17.05,-6.43,-1.00
13155.00,-14.21,1.05,-7.50,-0.03,-1.36,1.96,-26.36,-16.33,-4.20,-1.00
13169.00,-8.31,1.73,-6.78,-0.19,-1.55,1.68,-26.36,-16.33,-4.20,-1.00
13181.00,-8.31,1.73,-6.78,-0.19,-1.55,1.68,-26.36,-16.33,-4.20,-1.00
13193.00,-8.15,0.78,-5.07,0.12,-1.71,1.36,-26.36,-16.33,-4.20,-1.00
13207.00,-8.15,0.78,-5.07,0.12,-1.71,1.36,-26.36,-16.33,-4.20,-1.00
13219.00,-8.46,0.28,-4.78,0.06,-1.66,1.08,-27.90,-11.48,-6.20,-1.00
13231.00,-8.26,0.52,-4.96,0.00,-1.46,1.10,-27.90,-11.48,-6.20,-1.00
13243.00,-8.26,0.52,-4.96,0.00,-1.46,1.10,-27.90,-11.48,-6.20,-1.00
13257.00,-8.53,1.13,-4.25,-0.06,-1.35,1.19,-27.90,-11.48,-6.20,-1.00
13269.00,-8.24,0.90,-5.23,-0.10,-1.10,1.08,-27.90,-11.48,-6.20,-1.00
13281.00,-8.24,0.90,-5.23,-0.10,-1.10,1.08,-27.90,-11.48,-6.20,-1.00
13293.00,-8.21,0.54,-6.64,-0.12,-0.93,0.98,-27.90,-11.48,-6.20,-1.00
13307.00,-8.21,0.54,-6.64,-0.12,-0.93,0.98,-27.90,-11.48,-6.20,-1.00
13319.00,-8.42,0.70,-4.88,-0.13,-1.01,1.00,-27.90,-11.48,-6.20,-1.00
13331.00,-8.80,1.15,-5.19,-0.01,-0.91,1.04,-27.48,-9.14,-4.64,-1.00
13343.00,-8.80,1.15,-5.19,-0.01,-0.91,1.04,-27.48,-9.14,-4.64,-1.00
13357.00,-10.35,1.69,-4.99,0.19,-0.72,1.02,-27.48,-9.14,-4.64,-1.00
13369.00,-9.87,1.44,-4.72,0.27,-0.28,0.88,-27.48,-9.14,-4.64,-1.00
13381.00,-9.87,1.44,-4.72,0.27,-0.28,0.88,-27.48,-9.14,-4.64,-1.00
13395.00,-8.44,0.84,-4.77,0.13,0.16,0.88,-27.48,-9.14,-4.64,-1.00
13407.00,-8.44,0.84,-4.77,0.13,0.16,0.88,-27.48,-9.14,-4.64,-1.00
13419.00,-8.63,1.18,-5.38,-0.04,0.36,0.90,-27.48,-9.14,-4.64,-1.00
13431.00,-7.35,0.51,-5.97,-0.02,0.69,0.93,-27.48,-9.14,-4.64,-1.00
13445.00,-7.35,0.51,-5.97,-0.02,0.69,0.93,-27.48,-9.14,-4.64,-1.00
13457.00,-5.55,0.26,-6.76,-0.10,0.86,1.04,-25.52,-10.58,-14.02,-1.00
13469.00,-5.44,1.11,-8.05,-0.37,0.62,1.25,-25.52,-10.58,-14.02,-1.00
13481.00,-5.44,1.11,-8.05,-0.37,0.62,1.25,-25.52,-10.58,-14.02,-1.00
13496.00,-5.87,0.89,-8.08,-0.34,0.13,1.20,-25.52,-10.58,-14.02,-1.00
13507.00,-5.87,0.89,-8.08,-0.34,0.13,1.20,-25.52,-10.58,-14.02,-1.00
13519.00,-5.43,0.38,-8.76,-0.26,0.03,1.35,-25.52,-10.58,-14.02,-1.00
13533.00,-6.66,2.24,-8.04,-0.24,-0.17,1.72,-25.52,-10.58,-14.02,-1.00
13545.00,-6.66,2.24,-8.04,-0.24,-0.17,1.72,-25.52,-10.58,-14.02,-1.00
13557.00,-6.49,2.82,-8.08,-0.14,-0.19,1.80,-25.52,-10.58,-14.02,-1.00
13569.00,-6.08,1.90,-8.20,-0.02,-0.25,1.51,-25.52,-10.58,-14.02,-1.00
13583.00,-6.08,1.90,-8.20,-0.02,-0.25,1.51,-25.52,-10.58,-14.02,-1.00
13595.00,-5.37,0.51,-8.02,-0.02,-0.20,1.47,-22.87,-5.01,-21.83,-1.00
13607.00,-5.37,0.51,-8.02,-0.02,-0.20,1.47,-22.87,-5.01,-21.83,-1.00
13619.00,-3.70,0.18,-8.33,-0.17,0.06,1.85,-22.87,-5.01,-21.83,-1.00
13633.00,-3.19,0.86,-8.81,-0.34,0.30,2.43,-22.87,-5.01,-21.83,-1.00
13645.00,-3.19,0.86,-8.81,-0.34,0.30,2.43,-22.87,-5.01,-21.83,-1.00
13657.00,-4.32,3.40,-10.12,-0.70,0.31,2.90,-22.87,-5.01,-21.83,-1.00
13672.00,-3.96,4.71,-10.55,-0.70,-0.12,2.77,-22.87,-5.01,-21.83,-1.00
13683.00,-3.96,4.71,-10.55,-0.70,-0.12,2.77,-22.87,-5.01,-21.83,-1.00
13695.00,-4.48,2.90,-8.23,-0.41,-0.75,2.17,-22.87,-5.01,-21.83,-1.00
13707.00,-4.48,2.90,-8.23,-0.41,-0.75,2.17,-22.87,-5.01,-21.83,-1.00
13721.00,-4.03,3.75,-10.19,-0.84,-1.29,1.79,-22.17,4.16,-29.19,-1.00
13733.00,-4.08,2.78,-9.70,-0.06,-1.67,1.67,-22.17,4.16,-29.19,-1.00
13745.00,-4.08,2.78,-9.70,-0.06,-1.67,1.67,-22.17,4.16,-29.19,-1.00
13757.00,-4.40,2.47,-9.45,0.16,-1.84,1.62,-22.17,4.16,-29.19,-1.00
13771.00,-4.95,2.53,-9.10,0.17,-1.85,1.73,-22.17,4.16,-29.19,-1.00
13783.00,-4.95,2.53,-9.10,0.17,-1.85,1.73,-22.17,4.16,-29.19,-1.00
13795.00,-5.23,2.14,-8.62,0.24,-1.74,1.81,-22.17,4.16,-29.19,-1.00
13809.00,-4.99,1.34,-8.97,0.15,-1.61,1.81,-22.17,4.16,-29.19,-1.00
13821.00,-4.99,1.34,-8.97,0.15,-1.61,1.81,-22.17,4.16,-29.19,-1.00
13833.00,-3.15,1.34,-8.28,0.17,-1.30,2.41,-24.41,8.11,-24.73,-1.00
13845.00,-3.15,1.34,-8.28,0.17,-1.30,2.41,-24.41,8.11,-24.73,-1.00
13859.00,-3.99,3.95,-10.15,-0.71,-0.95,2.91,-24.41,8.11,-24.73,-1.00
13871.00,-4.08,5.09,-9.51,-0.61,-0.89,2.85,-24.41,8.11,-24.73,-1.00
13883.00,-4.08,5.09,-9.51,-0.61,-0.89,2.85,-24.41,8.11,-24.73,-1.00
13895.00,-3.77,5.23,-9.72,-0.53,-0.97,2.40,-24.41,8.11,-24.73,-1.00
13909.00,-3.00,4.72,-9.06,-0.60,-1.36,1.81,-24.41,8.11,-24.73,-1.00
13921.00,-3.00,4.72,-9.06,-0.60,-1.36,1.81,-24.41,8.11,-24.73,-1.00
13933.00,-3.20,4.01,-11.71,-1.04,-1.75,1.11,-24.41,8.11,-24.73,-1.00
13945.00,-3.20,4.01,-11.71,-1.04,-1.75,1.11,-24.41,8.11,-24.73,-1.00
13959.00,-2.71,3.46,-9.77,-0.27,-2.01,1.06,-23.99,17.28,-24.06,-1.00
13971.00,-3.97,3.73,-9.78,0.51,-1.88,1.15,-23.99,17.28,-24.06,-1.00
13983.00,-3.97,3.73,-9.78,0.51,-1.88,1.15,-23.99,17.28,-24.06,-1.00
13997.00,-3.96,3.29,-9.97,0.87,-1.73,1.24,-23.99,17.28,-24.06,-1.00
14009.00,-4.20,3.42,-9.62,0.62,-1.88,1.32,-23.99,17.28,-24.06,-1.00
14021.00,-4.20,3.42,-9.62,0.62,-1.88,1.32,-23.99,17.28,-24.06,-1.00
14033.00,-4.25,3.73,-8.33,0.59,-1.99,1.36,-23.99,17.28,-24.06,-1.00
14047.00,-4.25,3.73,-8.33,0.59,-1.99,1.36,-23.99,17.28,-24.06,-1.00
14059.00,-3.83,3.20,-7.60,0.83,-1.85,1.26,-23.99,17.28,-24.06,-1.00
14071.00,-2.93,1.66,-7.61,1.06,-1.61,1.25,-23.99,17.28,-24.06,-1.00
14083.00,-2.93,1.66,-7.61,1.06,-1.61,1.25,-23.99,17.28,-24.06,-1.00
14098.00,-3.41,1.41,-8.25,0.80,-1.55,1.41,-25.38,11.53,-22.72,-1.00
14109.00,-3.41,1.41,-8.25,0.80,-1.55,1.41,-25.38,11.53,-22.72,-1.00
14121.00,-4.79,2.67,-8.40,0.26,-1.73,1.69,-25.38,11.53,-22.72,-1.00
14136.00,-5.23,3.80,-7.64,-0.09,-2.01,1.70,-25.38,11.53,-22.72,-1.00
14147.00,-5.23,3.80,-7.64,-0.09,-2.01,1.70,-25.38,11.53,-22.72,-1.00
14159.00,-4.08,2.61,-7.08,0.31,-1.92,1.58,-25.38,11.53,-22.72,-1.00
14171.00,-2.87,1.88,-8.55,0.35,-1.71,1.59,-25.38,11.53,-22.72,-1.00
14185.00,-2.87,1.88,-8.55,0.35,-1.71,1.59,-25.38,11.53,-22.72,-1.00
14197.00,-3.12,3.05,-9.24,0.11,-1.87,1.66,-25.38,11.53,-22.72,-1.00
14209.00,-3.12,3.05,-9.24,0.11,-1.87,1.66,-25.38,11.53,-22.72,-1.00
14221.00,-4.39,3.21,-8.44,0.06,-1.99,1.70,-24.83,12.96,-14.69,-1.00
14235.00,-5.09,3.13,-8.02,0.11,-1.85,1.82,-24.83,12.96,-14.69,-1.00
14247.00,-5.09,3.13,-8.02,0.11,-1.85,1.82,-24.83,12.96,-14.69,-1.00
14259.00,-4.12,2.07,-7.88,0.16,-1.77,2.10,-24.83,12.96,-14.69,-1.00
14273.00,-3.57,2.66,-7.15,-0.15,-1.80,2.59,-24.83,12.96,-14.69,-1.00
14285.00,-3.57,2.66,-7.15,-0.15,-1.80,2.59,-24.83,12.96,-14.69,-1.00
14297.00,-3.45,3.57,-6.91,-0.66,-1.96,2.85,-24.83,12.96,-14.69,-1.00
14309.00,-3.45,3.57,-6.91,-0.66,-1.96,2.85,-24.83,12.96,-14.69,-1.00
14323.00,-4.41,4.05,-6.78,-0.80,-2.17,3.06,-24.83,12.96,-14.69,-1.00
14335.00,-3.76,3.63,-5.77,-0.51,-2.02,3.29,-26.08,21.05,-5.54,-1.00
14347.00,-3.76,3.63,-5.77,-0.51,-2.02,3.29,-26.08,21.05,-5.54,-1.00
14359.00,-2.20,4.53,-6.00,-1.20,-1.88,3.58,-26.08,21.05,-5.54,-1.00
14373.00,-1.88,3.91,-3.93,-2.40,-2.17,3.80,-26.08,21.05,-5.54,-1.00
14385.00,-1.88,3.91,-3.93,-2.40,-2.17,3.80,-26.08,21.05,-5.54,-1.00
14397.00,-4.08,7.37,-7.26,-5.02,-3.07,3.87,-26.08,21.05,-5.54,-1.00
14412.00,-4.71,8.50,-6.65,-3.90,-3.72,4.07,-26.08,21.05,-5.54,-1.00
14423.00,-4.71,8.50,-6.65,-3.90,-3.72,4.07,-26.08,21.05,-5.54,-1.00
14435.00,-3.41,7.06,1.28,-0.78,-3.36,4.22,-26.08,21.05,-5.54,-1.00
14447.00,-3.41,7.06,1.28,-0.78,-3.36,4.22,-26.08,21.05,-5.54,-1.00
14461.00,-2.36,6.95,-2.12,-2.63,-2.84,4.52,-26.08,21.05,-5.54,-1.00
14473.00,-0.67,7.49,-3.05,-2.41,-2.60,5.10,-22.31,43.87,16.12,-1.00
14485.00,-0.67,7.49,-3.05,-2.41,-2.60,5.10,-22.31,43.87,16.12,-1.00
14497.00,0.88,8.95,-0.57,-1.83,-2.21,5.23,-22.31,43.87,16.12,-1.00
14511.00,-1.08,11.60,-1.85,-4.99,-2.33,4.51,-22.31,43.87,16.12,-1.00
14523.00,-1.08,11.60,-1.85,-4.99,-2.33,4.51,-22.31,43.87,16.12,-1.00
14535.00,-1.87,13.16,-3.32,-8.89,-3.58,3.32,-22.31,43.87,16.12,-1.00
14547.00,-1.87,13.16,-3.32,-8.89,-3.58,3.32,-22.31,43.87,16.12,-1.00
14562.00,-0.07,10.62,4.08,-6.78,-4.41,2.31,-22.31,43.87,16.12,-1.00
14573.00,0.31,9.66,7.58,-3.60,-3.39,2.19,-22.31,43.87,16.12,-1.00
14586.00,0.31,9.66,7.58,-3.60,-3.39,2.19,-22.31,43.87,16.12,-1.00
14599.00,-0.79,9.70,5.03,-1.68,-1.88,2.29,-10.16,48.00,56.51,-1.00
14611.00,-1.93,13.36,6.18,-1.78,-1.47,2.05,-10.16,48.00,56.51,-1.00
14623.00,-1.93,13.36,6.18,-1.78,-1.47,2.05,-10.16,48.00,56.51,-1.00
14635.00,-1.51,11.73,7.24,-1.73,-1.25,1.14,-10.16,48.00,56.51,-1.00
14649.00,-1.51,11.73,7.24,-1.73,-1.25,1.14,-10.16,48.00,56.51,-1.00
14661.00,1.24,7.44,3.83,-0.94,-0.71,0.64,-10.16,48.00,56.51,-1.00
14673.00,2.71,6.41,0.71,-0.84,-0.66,1.12,-10.16,48.00,56.51,-1.00
14685.00,2.71,6.41,0.71,-0.84,-0.66,1.12,-10.16,48.00,56.51,-1.00
14699.00,2.22,7.72,2.32,-1.66,-1.26,1.80,-10.16,48.00,56.51,-1.00
14711.00,0.78,10.82,5.65,-2.51,-1.67,2.02,-7.09,42.97,65.89,-1.00
14723.00,0.78,10.82,5.65,-2.51,-1.67,2.02,-7.09,42.97,65.89,-1.00
14735.00,-0.12,12.16,7.19,-2.35,-1.53,1.81,-7.09,42.97,65.89,-1.00
14750.00,-0.12,12.16,7.19,-2.35,-1.53,1.81,-7.09,42.97,65.89,-1.00
14761.00,0.12,12.12,9.74,-1.42,-1.08,1.43,-7.09,42.97,65.89,-1.00
14773.00,0.22,11.57,6.06,-1.84,-0.95,1.08,-7.09,42.97,65.89,-1.00
14787.00,0.22,11.57,6.06,-1.84,-0.95,1.08,-7.09,42.97,65.89,-1.00
14799.00,1.31,6.72,3.74,-0.72,-0.67,0.87,-7.09,42.97,65.89,-1.00
14811.00,2.41,6.61,3.87,-0.75,-0.78,1.12,-7.09,42.97,65.89,-1.00
14823.00,2.41,6.61,3.87,-0.75,-0.78,1.12,-7.09,42.97,65.89,-1.00
14837.00,1.57,7.69,4.75,-1.50,-1.10,1.23,-4.71,34.53,71.91,-1.00
14849.00,1.57,7.69,4.75,-1.50,-1.10,1.23,-4.71,34.53,71.91,-1.00
14861.00,0.81,8.05,6.32,-1.71,-1.15,1.14,-4.71,34.53,71.91,-1.00
14873.00,0.71,8.72,6.50,-1.63,-1.09,1.06,-4.71,34.53,71.91,-1.00
14887.00,0.71,8.72,6.50,-1.63,-1.09,1.06,-4.71,34.53,71.91,-1.00
14899.00,0.53,8.54,6.23,-1.38,-1.06,1.09,-4.71,34.53,71.91,-1.00
14911.00,0.39,7.93,6.29,-1.05,-1.05,1.07,-4.71,34.53,71.91,-1.00
14923.00,0.39,7.93,6.29,-1.05,-1.05,1.07,-4.71,34.53,71.91,-1.00
14937.00,0.57,7.14,6.25,-0.88,-1.05,0.99,-4.71,34.53,71.91,-1.00
14949.00,0.57,7.14,6.25,-0.88,-1.05,0.99,-4.71,34.53,71.91,-1.00
14961.00,0.60,7.15,6.51,-0.79,-1.07,0.91,-4.71,34.53,71.91,-1.00
14973.00,0.55,8.06,6.65,-0.90,-1.16,0.92,-4.15,29.85,76.38,-1.00
14987.00,0.55,8.06,6.65,-0.90,-1.16,0.92,-4.15,29.85,76.38,-1.00
14999.00,0.17,9.19,6.70,-0.80,-1.22,0.99,-4.15,29.85,76.38,-1.00
15011.00,0.40,6.76,7.09,0.28,-1.07,0.94,-4.15,29.85,76.38,-1.00
15023.00,0.40,6.76,7.09,0.28,-1.07,0.94,-4.15,29.85,76.38,-1.00
15037.00,1.76,6.85,6.69,0.51,-0.98,0.91,-4.15,29.85,76.38,-1.00
15049.00,1.76,6.85,6.69,0.51,-0.98,0.91,-4.15,29.85,76.38,-1.00
15061.00,0.75,7.37,6.34,0.29,-0.86,0.78,-4.15,29.85,76.38,-1.00
15073.00,0.40,7.42,6.46,-0.19,-0.85,0.66,-4.15,29.85,76.38,-1.00
15087.00,0.40,7.42,6.46,-0.19,-0.85,0.66,-4.15,29.85,76.38,-1.00
15099.00,0.29,7.46,6.50,-0.36,-0.90,0.71,-5.13,29.31,76.60,-1.00
15111.00,-0.08,7.39,6.51,-0.43,-0.92,0.83,-5.13,29.31,76.60,-1.00
15123.00,-0.08,7.39,6.51,-0.43,-0.92,0.83,-5.13,29.31,76.60,-1.00
15137.00,0.49,7.20,6.59,-0.43,-0.91,0.86,-5.13,29.31,76.60,-1.00
15149.00,0.49,7.20,6.59,-0.43,-0.91,0.86,-5.13,29.31,76.60,-1.00
15161.00,0.14,7.11,6.72,-0.57,-0.85,0.87,-5.13,29.31,76.60,-1.00
15173.00,0.05,7.14,6.83,-0.35,-0.84,0.86,-5.13,29.31,76.60,-1.00
15188.00,0.05,7.14,6.83,-0.35,-0.84,0.86,-5.13,29.31,76.60,-1.00
15199.00,0.07,7.03,6.70,-0.25,-0.95,0.88,-5.13,29.31,76.60,-1.00
15211.00,0.00,7.04,6.80,-0.49,-1.05,0.84,-5.97,26.44,77.49,-1.00
15225.00,0.00,7.04,6.80,-0.49,-1.05,0.84,-5.97,26.44,77.49,-1.00
15237.00,-0.03,6.99,6.84,-0.40,-1.04,0.83,-5.97,26.44,77.49,-1.00
15249.00,-0.03,6.99,6.84,-0.40,-1.04,0.83,-5.97,26.44,77.49,-1.00
15261.00,-0.09,7.03,7.04,-0.30,-1.02,0.84,-5.97,26.44,77.49,-1.00
15276.00,-0.13,6.89,6.99,-0.24,-1.06,0.88,-5.97,26.44,77.49,-1.00
15364.00,-0.33,6.85,7.04,-0.30,-0.96,0.95,-7.92,25.00,77.94,-1.00
15453.00,-0.43,6.65,7.14,0.06,-1.10,0.91,-7.92,25.00,77.94,-1.00
15541.00,-0.65,6.87,6.96,1.14,-0.87,0.72,-7.92,23.92,77.49,-1.00
15555.00,-0.74,7.11,6.73,1.41,-0.80,0.71,-7.92,23.92,77.49,-1.00
15567.00,-0.74,7.11,6.73,1.41,-0.80,0.71,-7.92,23.92,77.49,-1.00
15580.00,-0.65,7.64,6.60,1.32,-0.91,0.70,-7.92,23.92,77.49,-1.00
15591.00,-0.90,7.47,6.30,0.69,-1.07,0.55,-9.46,28.06,73.70,-1.00
15605.00,-0.90,7.47,6.30,0.69,-1.07,0.55,-9.46,28.06,73.70,-1.00
15617.00,-1.00,7.37,6.54,0.23,-0.90,0.34,-9.46,28.06,73.70,-1.00
15629.00,-1.00,7.37,6.54,0.23,-0.90,0.34,-9.46,28.06,73.70,-1.00
15641.00,-0.61,7.27,5.95,0.65,-0.69,0.38,-9.46,28.06,73.70,-1.00
15655.00,-1.30,7.54,6.04,1.13,-1.09,0.94,-9.46,28.06,73.70,-1.00
15667.00,-1.30,7.54,6.04,1.13,-1.09,0.94,-9.46,28.06,73.70,-1.00
15679.00,-1.20,7.65,5.96,0.62,-1.20,0.97,-9.46,28.06,73.70,-1.00
15691.00,-1.22,7.64,5.97,0.02,-1.22,0.95,-9.46,28.06,73.70,-1.00
15705.00,-1.22,7.64,5.97,0.02,-1.22,0.95,-9.46,28.06,73.70,-1.00
15717.00,-1.21,7.62,6.07,-0.27,-1.24,0.94,-9.46,28.78,72.36,-1.00
15729.00,-1.21,7.62,6.07,-0.27,-1.24,0.94,-9.46,28.78,72.36,-1.00
15741.00,-1.19,7.63,6.14,-0.16,-1.23,0.95,-9.46,28.78,72.36,-1.00
15755.00,-1.15,7.64,6.09,0.08,-1.21,0.96,-9.46,28.78,72.36,-1.00
15767.00,-1.15,7.64,6.09,0.08,-1.21,0.96,-9.46,28.78,72.36,-1.00
15779.00,-1.15,7.64,6.01,0.18,-1.20,0.97,-9.46,28.78,72.36,-1.00
15793.00,-1.15,7.66,5.99,0.10,-1.21,0.96,-9.46,28.78,72.36,-1.00
15805.00,-1.15,7.66,5.99,0.10,-1.21,0.96,-9.46,28.78,72.36,-1.00
15817.00,-1.16,7.65,6.03,-0.03,-1.22,0.95,-9.46,28.78,72.36,-1.00
15829.00,-1.16,7.65,6.03,-0.03,-1.22,0.95,-9.46,28.78,72.36,-1.00
15843.00,-1.19,7.64,6.07,-0.08,-1.22,0.95,-10.02,29.49,71.91,-1.00
15855.00,-1.19,7.61,6.06,-0.01,-1.21,0.95,-10.02,29.49,71.91,-1.00
15867.00,-1.19,7.61,6.06,-0.01,-1.21,0.95,-10.02,29.49,71.91,-1.00
15879.00,-1.20,7.63,6.06,0.06,-1.21,0.96,-10.02,29.49,71.91,-1.00
15894.00,-1.18,7.63,6.06,0.05,-1.21,0.96,-10.02,29.49,71.91,-1.00
15905.00,-1.18,7.63,6.06,0.05,-1.21,0.96,-10.02,29.49,71.91,-1.00
15917.00,-1.23,7.64,6.05,-0.00,-1.22,0.96,-10.02,29.49,71.91,-1.00
15929.00,-1.23,7.64,6.05,-0.00,-1.22,0.96,-10.02,29.49,71.91,-1.00
15943.00,-1.21,7.68,6.05,0.01,-1.21,0.96,-10.02,29.49,71.91,-1.00
15955.00,-1.17,7.68,6.01,0.05,-1.21,0.96,-10.02,29.49,71.91,-1.00
15967.00,-1.17,7.68,6.01,0.05,-1.21,0.96,-10.02,29.49,71.91,-1.00
15979.00,-1.12,7.68,5.96,0.05,-1.21,0.96,-11.84,29.67,72.14,-1.00
15993.00,-1.10,7.71,5.99,0.02,-1.21,0.96,-11.84,29.67,72.14,-1.00
16005.00,-1.10,7.71,5.99,0.02,-1.21,0.96,-11.84,29.67,72.14,-1.00
16017.00,-1.12,7.67,6.00,-0.01,-1.21,0.95,-11.84,29.67,72.14,-1.00
16031.00,-1.12,7.67,6.00,-0.01,-1.21,0.95,-11.84,29.67,72.14,-1.00
16043.00,-1.16,7.66,6.02,-0.01,-1.21,0.95,-11.84,29.67,72.14,-1.00
16055.00,-1.20,7.63,6.06,-0.00,-1.21,0.95,-11.84,29.67,72.14,-1.00
16067.00,-1.20,7.63,6.06,-0.00,-1.21,0.95,-11.84,29.67,72.14,-1.00
16081.00,-1.23,7.63,6.07,0.00,-1.21,0.95,-11.84,29.67,72.14,-1.00
16093.00,-1.25,7.62,6.06,0.01,-1.21,0.95,-10.16,30.03,71.69,-1.00
16105.00,-1.25,7.62,6.06,0.01,-1.21,0.95,-10.16,30.03,71.69,-1.00
16117.00,-1.24,7.64,6.06,0.02,-1.21,0.95,-10.16,30.03,71.69,-1.00
16131.00,-1.24,7.64,6.06,0.02,-1.21,0.95,-10.16,30.03,71.69,-1.00
16143.00,-1.20,7.69,6.02,0.03,-1.21,0.96,-10.16,30.03,71.69,-1.00
16155.00,-1.15,7.69,6.00,0.04,-1.21,0.96,-10.16,30.03,71.69,-1.00
16167.00,-1.15,7.69,6.00,0.04,-1.21,0.96,-10.16,30.03,71.69,-1.00
16181.00,-1.12,7.71,5.98,0.03,-1.21,0.96,-10.16,30.03,71.69,-1.00
16193.00,-1.10,7.70,5.99,0.02,-1.21,0.96,-10.16,30.03,71.69,-1.00
16205.00,-1.10,7.70,5.99,0.02,-1.21,0.96,-10.16,30.03,71.69,-1.00
16217.00,-1.12,7.71,5.96,0.01,-1.21,0.95,-10.16,29.31,70.80,-1.00
16232.00,-1.12,7.71,5.96,0.01,-1.21,0.95,-10.16,29.31,70.80,-1.00
16243.00,-1.15,7.64,5.97,0.01,-1.21,0.95,-10.16,29.31,70.80,-1.00
16255.00,-1.16,7.67,5.99,0.02,-1.21,0.95,-10.16,29.31,70.80,-1.00
16269.00,-1.16,7.67,5.99,0.02,-1.21,0.95,-10.16,29.31,70.80,-1.00
16281.00,-1.18,7.70,6.02,0.02,-1.21,0.95,-10.16,29.31,70.80,-1.00
16293.00,-1.23,7.76,6.06,-0.01,-1.21,0.95,-10.16,29.31,70.80,-1.00
16305.00,-1.23,7.76,6.06,-0.01,-1.21,0.95,-10.16,29.31,70.80,-1.00
16319.00,-1.25,7.64,6.02,-0.02,-1.21,0.95,-10.16,29.31,70.80,-1.00
16331.00,-1.25,7.64,6.02,-0.02,-1.21,0.95,-10.16,29.31,70.80,-1.00
16343.00,-1.22,7.62,5.97,0.04,-1.21,0.95,-11.00,30.03,71.69,-1.00
16355.00,-1.22,7.74,6.08,0.03,-1.21,0.96,-11.00,30.03,71.69,-1.00
16369.00,-1.22,7.74,6.08,0.03,-1.21,0.96,-11.00,30.03,71.69,-1.00
16381.00,-1.18,7.61,6.02,-0.04,-1.22,0.95,-11.00,30.03,71.69,-1.00
16393.00,-1.18,7.64,6.00,0.02,-1.21,0.96,-11.00,30.03,71.69,-1.00
16405.00,-1.18,7.64,6.00,0.02,-1.21,0.96,-11.00,30.03,71.69,-1.00
16419.00,-1.15,7.68,6.03,0.06,-1.21,0.96,-11.00,30.03,71.69,-1.00
16431.00,-1.15,7.68,6.03,0.06,-1.21,0.96,-11.00,30.03,71.69,-1.00
16443.00,-1.12,7.68,5.98,0.02,-1.21,0.95,-11.00,30.03,71.69,-1.00
16455.00,-1.15,7.72,5.99,0.01,-1.21,0.95,-11.00,30.03,71.69,-1.00
16469.00,-1.15,7.72,5.99,0.01,-1.21,0.95,-11.00,30.03,71.69,-1.00
16481.00,-1.21,7.75,5.96,0.02,-1.21,0.95,-10.30,29.85,71.91,-1.00
16493.00,-1.20,7.70,5.92,0.04,-1.21,0.95,-10.30,29.85,71.91,-1.00
16508.00,-1.20,7.70,5.92,0.04,-1.21,0.95,-10.30,29.85,71.91,-1.00
16519.00,-1.21,7.78,6.00,0.03,-1.21,0.95,-10.30,29.85,71.91,-1.00
16531.00,-1.21,7.78,6.00,0.03,-1.21,0.95,-10.30,29.85,71.91,-1.00
16543.00,-1.18,7.67,5.99,-0.03,-1.22,0.95,-10.30,29.85,71.91,-1.00
16557.00,-1.18,7.66,6.03,-0.02,-1.22,0.95,-10.30,29.85,71.91,-1.00
16569.00,-1.18,7.66,6.03,-0.02,-1.22,0.95,-10.30,29.85,71.91,-1.00
16581.00,-1.18,7.71,6.07,0.02,-1.21,0.96,-10.30,29.85,71.91,-1.00
16593.00,-1.19,7.65,5.98,0.02,-1.21,0.96,-10.02,30.21,71.02,-1.00
16607.00,-1.19,7.65,5.98,0.02,-1.21,0.96,-10.02,30.21,71.02,-1.00
16619.00,-1.19,7.65,5.95,0.03,-1.21,0.96,-10.02,30.21,71.02,-1.00
16631.00,-1.19,7.65,5.95,0.03,-1.21,0.96,-10.02,30.21,71.02,-1.00
16643.00,-1.19,7.73,6.01,0.02,-1.21,0.95,-10.02,30.21,71.02,-1.00
16659.00,-1.17,7.69,6.01,-0.01,-1.22,0.95,-10.02,30.21,71.02,-1.00
16670.00,-1.17,7.69,6.01,-0.01,-1.22,0.95,-10.02,30.21,71.02,-1.00
16682.00,-1.18,7.69,5.96,0.02,-1.21,0.96,-10.02,30.21,71.02,-1.00
16694.00,-1.19,7.76,5.98,0.05,-1.21,0.96,-10.02,30.21,71.02,-1.00
16708.00,-1.19,7.76,5.98,0.05,-1.21,0.96,-10.02,30.21,71.02,-1.00
16720.00,-1.15,7.74,5.95,0.02,-1.21,0.95,-10.02,28.42,71.91,-1.00
16732.00,-1.16,7.71,5.96,0.00,-1.21,0.95,-10.02,28.42,71.91,-1.00
16744.00,-1.16,7.71,5.96,0.00,-1.21,0.95,-10.02,28.42,71.91,-1.00
16758.00,-1.20,7.69,5.99,-0.01,-1.22,0.95,-10.02,28.42,71.91,-1.00
16770.00,-1.20,7.69,5.99,-0.01,-1.22,0.95,-10.02,28.42,71.91,-1.00
16782.00,-1.19,7.67,5.99,-0.00,-1.21,0.95,-10.02,28.42,71.91,-1.00
16796.00,-1.20,7.72,6.02,0.01,-1.21,0.96,-10.02,28.42,71.91,-1.00
16808.00,-1.20,7.72,6.02,0.01,-1.21,0.96,-10.02,28.42,71.91,-1.00
16820.00,-1.16,7.68,6.00,-0.26,-1.23,0.97,-10.02,28.42,71.91,-1.00
16833.00,-1.19,7.56,6.17,-0.49,-1.25,0.92,-10.02,28.42,71.91,-1.00
16847.00,-1.19,7.56,6.17,-0.49,-1.25,0.92,-10.02,28.42,71.91,-1.00
16859.00,-1.19,7.59,6.09,-0.22,-1.18,0.98,-10.58,28.78,71.91,-1.00
16871.00,-1.19,7.59,6.09,-0.22,-1.18,0.98,-10.58,28.78,71.91,-1.00
16883.00,-1.17,7.55,6.05,-0.44,-1.15,1.01,-10.58,28.78,71.91,-1.00
16897.00,-1.17,7.46,6.29,-0.87,-1.17,1.00,-10.58,28.78,71.91,-1.00
16909.00,-1.17,7.46,6.29,-0.87,-1.17,1.00,-10.58,28.78,71.91,-1.00
16921.00,-1.35,7.02,7.29,-0.29,-1.15,1.06,-10.58,28.78,71.91,-1.00
16933.00,-2.86,7.71,5.73,3.05,-0.69,1.64,-10.58,28.78,71.91,-1.00
16947.00,-2.86,7.71,5.73,3.05,-0.69,1.64,-10.58,28.78,71.91,-1.00
17036.00,-1.81,10.62,4.38,3.01,-0.59,1.15,-12.12,36.86,63.21,-1.00
17125.00,1.67,7.76,-0.22,6.16,-1.62,1.57,-14.49,48.18,49.15,-1.00
17139.00,-5.49,14.26,0.83,4.27,-1.64,1.98,-14.49,48.18,49.15,-1.00
17151.00,-5.49,14.26,0.83,4.27,-1.64,1.98,-14.49,48.18,49.15,-1.00
17163.00,-1.70,10.42,-0.78,1.76,-0.84,1.41,-14.49,48.18,49.15,-1.00
17175.00,-0.63,10.24,-1.87,1.60,-0.40,0.94,-14.49,48.18,49.15,-1.00
17189.00,-0.63,10.24,-1.87,1.60,-0.40,0.94,-14.49,48.18,49.15,-1.00
17201.00,-0.96,10.22,-2.62,2.05,-0.34,1.31,-14.49,48.18,49.15,-1.00
17213.00,-0.85,9.36,-2.04,2.19,-0.32,1.40,-11.98,53.93,26.83,-1.00
17225.00,-0.85,9.36,-2.04,2.19,-0.32,1.40,-11.98,53.93,26.83,-1.00
17239.00,-0.31,9.33,-3.72,1.81,-0.31,1.15,-11.98,53.93,26.83,-1.00
17251.00,-0.31,9.33,-3.72,1.81,-0.31,1.15,-11.98,53.93,26.83,-1.00
17263.00,0.30,8.76,-3.80,1.61,-0.47,1.13,-11.98,53.93,26.83,-1.00
17275.00,-0.06,8.63,-3.28,0.78,-0.71,1.14,-11.98,53.93,26.83,-1.00
17289.00,-0.06,8.63,-3.28,0.78,-0.71,1.14,-11.98,53.93,26.83,-1.00
17301.00,-2.00,9.07,-3.07,-0.24,-1.07,0.86,-11.98,53.93,26.83,-1.00
17313.00,-1.42,8.28,-2.55,-0.96,-0.89,0.68,-11.98,53.93,26.83,-1.00
17327.00,-1.42,8.28,-2.55,-0.96,-0.89,0.68,-11.98,53.93,26.83,-1.00
17339.00,0.11,9.75,-3.59,-0.89,-0.45,0.87,-11.98,53.93,26.83,-1.00
17351.00,0.11,9.75,-3.59,-0.89,-0.45,0.87,-11.98,53.93,26.83,-1.00
17363.00,-0.64,11.18,-4.30,-0.05,-0.79,0.81,-12.25,53.21,22.81,-1.00
17377.00,0.07,9.75,-3.55,1.60,-1.22,1.11,-12.25,53.21,22.81,-1.00
17389.00,0.07,9.75,-3.55,1.60,-1.22,1.11,-12.25,53.21,22.81,-1.00
17402.00,-0.24,9.36,-3.92,2.56,-1.54,1.14,-12.25,53.21,22.81,-1.00
17414.00,0.04,9.00,-3.41,2.49,-1.50,0.98,-12.25,53.21,22.81,-1.00
17428.00,0.04,9.00,-3.41,2.49,-1.50,0.98,-12.25,53.21,22.81,-1.00
17440.00,-0.62,8.80,-4.57,0.14,-0.90,0.94,-12.25,53.21,22.81,-1.00
17452.00,-0.62,8.80,-4.57,0.14,-0.90,0.94,-12.25,53.21,22.81,-1.00
17464.00,-0.37,8.71,-5.25,-0.54,-0.98,1.00,-12.25,53.21,22.81,-1.00
17478.00,0.05,9.04,-4.44,-0.25,-0.70,0.56,-11.84,53.03,17.23,-1.00
17490.00,0.05,9.04,-4.44,-0.25,-0.70,0.56,-11.84,53.03,17.23,-1.00
17502.00,-1.11,9.46,-4.00,-0.17,-0.56,0.34,-11.84,53.03,17.23,-1.00
17516.00,1.64,9.34,-3.75,1.47,-1.25,1.10,-11.84,53.03,17.23,-1.00
17528.00,1.64,9.34,-3.75,1.47,-1.25,1.10,-11.84,53.03,17.23,-1.00
17540.00,-0.08,8.93,-5.07,2.52,-2.14,1.82,-11.84,53.03,17.23,-1.00
17552.00,-0.08,8.93,-5.07,2.52,-2.14,1.82,-11.84,53.03,17.23,-1.00
17567.00,-2.00,8.02,-5.82,3.73,-2.56,1.88,-11.84,53.03,17.23,-1.00
17578.00,-0.68,7.32,-6.76,2.12,-1.58,1.42,-11.84,53.03,17.23,-1.00
17590.00,-0.68,7.32,-6.76,2.12,-1.58,1.42,-11.84,53.03,17.23,-1.00
17602.00,-1.25,7.91,-6.23,-0.49,-0.82,0.75,-12.39,51.60,10.09,-1.00
17616.00,0.49,8.98,-5.13,-1.29,-0.71,0.54,-12.39,51.60,10.09,-1.00
17628.00,0.49,8.98,-5.13,-1.29,-0.71,0.54,-12.39,51.60,10.09,-1.00
17640.00,-0.27,8.01,-5.95,-0.14,-0.78,0.58,-12.39,51.60,10.09,-1.00
17652.00,-0.27,8.01,-5.95,-0.14,-0.78,0.58,-12.39,51.60,10.09,-1.00
17666.00,-0.29,8.37,-5.64,-0.02,-1.06,0.84,-12.39,51.60,10.09,-1.00
17678.00,-0.34,8.47,-5.48,0.24,-1.20,0.94,-12.39,51.60,10.09,-1.00
17690.00,-0.34,8.47,-5.48,0.24,-1.20,0.94,-12.39,51.60,10.09,-1.00
17704.00,-0.31,8.30,-5.69,0.84,-1.29,1.08,-12.39,51.60,10.09,-1.00
17716.00,-0.28,8.05,-6.02,1.14,-1.25,1.08,-12.39,52.32,7.41,-1.00
17728.00,-0.28,8.05,-6.02,1.14,-1.25,1.08,-12.39,52.32,7.41,-1.00
17740.00,-0.23,7.80,-6.27,0.85,-1.18,1.03,-12.39,52.32,7.41,-1.00
17754.00,-0.30,7.84,-6.29,0.20,-1.17,0.99,-12.39,52.32,7.41,-1.00
17766.00,-0.30,7.84,-6.29,0.20,-1.17,0.99,-12.39,52.32,7.41,-1.00
17778.00,-0.27,7.94,-6.28,-0.23,-1.17,1.01,-12.39,52.32,7.41,-1.00
17790.00,-0.27,7.94,-6.28,-0.23,-1.17,1.01,-12.39,52.32,7.41,-1.00
17804.00,-0.22,7.97,-6.41,-0.20,-1.10,0.96,-12.39,52.32,7.41,-1.00
17894.00,-0.24,7.45,-6.87,0.57,-1.32,1.06,-11.56,50.16,2.05,-1.00
17982.00,-0.27,7.41,-6.96,0.06,-1.23,0.95,-12.39,48.36,-0.62,-1.00
18071.00,-0.17,7.59,-6.76,-0.19,-1.25,1.00,-12.39,48.36,-0.62,-1.00
18085.00,-0.14,7.57,-6.77,0.09,-1.25,0.99,-12.39,48.36,-0.62,-1.00
18097.00,-0.20,7.41,-6.94,0.35,-1.25,0.94,-12.53,49.62,-2.63,-1.00
18109.00,-0.20,7.41,-6.94,0.35,-1.25,0.94,-12.53,49.62,-2.63,-1.00
18121.00,-0.23,7.38,-6.93,0.26,-1.23,0.94,-12.53,49.62,-2.63,-1.00
18135.00,-0.19,7.41,-6.91,0.08,-1.23,1.00,-12.53,49.62,-2.63,-1.00
18147.00,-0.19,7.41,-6.91,0.08,-1.23,1.00,-12.53,49.62,-2.63,-1.00
18159.00,-0.21,7.47,-6.86,0.02,-1.23,1.00,-12.53,49.62,-2.63,-1.00
18173.00,-0.21,7.47,-6.86,0.02,-1.23,1.00,-12.53,49.62,-2.63,-1.00
18185.00,-0.21,7.48,-6.87,0.07,-1.21,0.92,-12.53,49.62,-2.63,-1.00
18197.00,-0.27,7.46,-6.85,0.06,-1.19,0.75,-12.53,49.62,-2.63,-1.00
18209.00,-0.27,7.46,-6.85,0.06,-1.19,0.75,-12.53,49.62,-2.63,-1.00
18223.00,-0.29,7.39,-6.96,0.24,-1.19,0.79,-13.23,47.64,-9.55,-1.00
18235.00,-0.30,7.28,-7.06,0.26,-1.22,0.88,-13.23,47.64,-9.55,-1.00
18247.00,-0.30,7.28,-7.06,0.26,-1.22,0.88,-13.23,47.64,-9.55,-1.00
18259.00,-0.32,7.28,-7.04,0.10,-1.23,0.97,-13.23,47.64,-9.55,-1.00
18273.00,-0.32,7.28,-7.04,0.10,-1.23,0.97,-13.23,47.64,-9.55,-1.00
18285.00,-0.28,7.20,-7.10,0.00,-1.19,1.06,-13.23,47.64,-9.55,-1.00
18297.00,-0.19,7.36,-7.03,-0.27,-1.19,1.10,-13.23,47.64,-9.55,-1.00
18309.00,-0.19,7.36,-7.03,-0.27,-1.19,1.10,-13.23,47.64,-9.55,-1.00
18323.00,-0.17,7.52,-6.80,-0.53,-1.21,1.04,-13.23,47.64,-9.55,-1.00
18335.00,-0.07,7.58,-6.67,-0.17,-1.23,0.96,-13.23,47.64,-9.55,-1.00
18347.00,-0.07,7.58,-6.67,-0.17,-1.23,0.96,-13.23,47.64,-9.55,-1.00
18361.00,1.01,7.50,-6.81,0.36,-1.23,0.76,-11.56,48.72,-3.75,-1.00
18373.00,1.01,7.50,-6.81,0.36,-1.23,0.76,-11.56,48.72,-3.75,-1.00
18385.00,-0.11,7.48,-6.83,0.86,-0.84,0.20,-11.56,48.72,-3.75,-1.00
18397.00,-0.03,7.02,-7.40,1.16,-0.47,-0.06,-11.56,48.72,-3.75,-1.00
18411.00,-0.03,7.02,-7.40,1.16,-0.47,-0.06,-11.56,48.72,-3.75,-1.00
