time,ax,ay,az,gx,gy,gz,mx,my,mz,pressure
1.00,-0.39,7.33,-6.98,-0.01,-1.22,0.95,-11.42,49.26,2.72,-1.00
13.00,-0.40,7.31,-7.00,0.00,-1.21,0.95,-11.42,49.26,2.72,-1.00
25.00,-0.40,7.31,-7.00,0.00,-1.21,0.95,-11.42,49.26,2.72,-1.00
37.00,-0.40,7.33,-7.00,-0.04,-1.22,0.95,-11.42,49.26,2.72,-1.00
101.00,-0.35,7.27,-7.03,-0.01,-1.21,0.95,-11.42,49.26,2.72,-1.00
113.00,-0.35,7.29,-7.03,-0.02,-1.21,0.95,-11.42,49.26,2.72,-1.00
125.00,-0.35,7.29,-7.03,-0.02,-1.21,0.95,-11.42,49.26,2.72,-1.00
137.00,-0.34,7.30,-6.99,-0.03,-1.22,0.95,-11.42,49.26,2.72,-1.00
151.00,-0.37,7.32,-6.98,-0.04,-1.22,0.95,-11.56,49.80,3.84,-1.00
163.00,-0.37,7.32,-6.98,-0.04,-1.22,0.95,-11.56,49.80,3.84,-1.00
175.00,-0.38,7.35,-6.97,-0.04,-1.22,0.95,-11.56,49.80,3.84,-1.00
189.00,-0.39,7.36,-6.94,-0.04,-1.22,0.95,-11.56,49.80,3.84,-1.00
201.00,-0.39,7.36,-6.94,-0.04,-1.22,0.95,-11.56,49.80,3.84,-1.00
213.00,-0.41,7.37,-6.92,-0.03,-1.22,0.95,-11.56,49.80,3.84,-1.00
225.00,-0.41,7.37,-6.92,-0.03,-1.22,0.95,-11.56,49.80,3.84,-1.00
239.00,-0.41,7.38,-6.93,-0.02,-1.22,0.95,-11.56,49.80,3.84,-1.00
251.00,-0.40,7.34,-6.95,-0.01,-1.21,0.96,-11.56,49.80,3.84,-1.00
263.00,-0.40,7.34,-6.95,-0.01,-1.21,0.96,-11.56,49.80,3.84,-1.00
275.00,-0.38,7.35,-6.97,-0.01,-1.21,0.95,-12.25,49.62,4.06,-1.00
289.00,-0.36,7.35,-6.96,-0.01,-1.21,0.95,-12.25,49.62,4.06,-1.00
301.00,-0.36,7.35,-6.96,-0.01,-1.21,0.95,-12.25,49.62,4.06,-1.00
313.00,-0.34,7.34,-6.94,-0.01,-1.21,0.95,-12.25,49.62,4.06,-1.00
325.00,-0.34,7.34,-6.94,-0.01,-1.21,0.95,-12.25,49.62,4.06,-1.00
339.00,-0.37,7.34,-6.97,-0.01,-1.21,0.95,-12.25,49.62,4.06,-1.00
351.00,-0.34,7.34,-6.95,-0.01,-1.21,0.95,-12.25,49.62,4.06,-1.00
363.00,-0.34,7.34,-6.95,-0.01,-1.21,0.95,-12.25,49.62,4.06,-1.00
375.00,-0.35,7.35,-6.95,-0.01,-1.21,0.95,-12.25,49.62,4.06,-1.00
389.00,-0.44,7.29,-6.94,-0.02,-1.22,0.95,-11.98,50.70,3.62,-1.00
479.00,-0.35,7.40,-6.88,-0.03,-1.22,0.95,-11.98,50.70,3.62,-1.00
567.00,-0.42,7.39,-6.87,-0.03,-1.22,0.95,-12.12,50.16,3.84,-1.00
657.00,-1.54,9.54,-2.63,-2.31,-1.61,1.64,-12.39,52.32,9.20,-1.00
670.00,0.90,12.49,0.43,-4.60,-1.22,2.60,-12.39,52.32,9.20,-1.00
682.00,0.90,12.49,0.43,-4.60,-1.22,2.60,-12.39,52.32,9.20,-1.00
694.00,1.21,12.78,-5.77,-6.25,-0.71,2.46,-12.39,52.32,9.20,-1.00
706.00,1.21,12.78,-5.77,-6.25,-0.71,2.46,-12.39,52.32,9.20,-1.00
720.00,-0.38,13.71,-6.76,-3.61,-0.56,1.50,-12.39,52.32,9.20,-1.00
732.00,0.08,14.26,-5.15,-1.72,-0.70,0.33,-12.39,52.32,9.20,-1.00
744.00,0.08,14.26,-5.15,-1.72,-0.70,0.33,-12.39,52.32,9.20,-1.00
756.00,1.01,12.13,-3.97,-1.30,-1.06,-0.45,-12.39,52.32,9.20,-1.00
770.00,0.11,8.83,-3.28,-1.39,-1.46,-1.05,-12.53,54.65,26.83,-1.00
782.00,0.11,8.83,-3.28,-1.39,-1.46,-1.05,-12.53,54.65,26.83,-1.00
794.00,-1.31,6.96,-3.24,-0.11,-1.51,-1.12,-12.53,54.65,26.83,-1.00
808.00,-1.31,6.96,-3.24,-0.11,-1.51,-1.12,-12.53,54.65,26.83,-1.00
820.00,-2.14,8.60,-1.19,1.98,-1.35,-0.54,-12.53,54.65,26.83,-1.00
832.00,-1.73,11.96,0.64,2.30,-1.27,0.22,-12.53,54.65,26.83,-1.00
844.00,-1.73,11.96,0.64,2.30,-1.27,0.22,-12.53,54.65,26.83,-1.00
858.00,0.16,11.28,1.78,2.25,-1.00,0.38,-12.53,54.65,26.83,-1.00
870.00,-1.60,9.29,-2.57,2.15,-0.56,-0.61,-12.53,54.65,26.83,-1.00
882.00,-1.60,9.29,-2.57,2.15,-0.56,-0.61,-12.53,54.65,26.83,-1.00
894.00,-1.78,8.31,-3.76,4.19,-0.20,-1.40,-18.68,48.90,12.54,-1.00
909.00,-1.78,8.31,-3.76,4.19,-0.20,-1.40,-18.68,48.90,12.54,-1.00
920.00,-2.23,9.07,-4.52,6.01,-0.19,-1.40,-18.68,48.90,12.54,-1.00
932.00,-2.33,8.10,-4.81,7.07,-0.16,-1.22,-18.68,48.90,12.54,-1.00
944.00,-2.33,8.10,-4.81,7.07,-0.16,-1.22,-18.68,48.90,12.54,-1.00
958.00,-1.74,5.61,-8.07,6.79,-0.00,-1.39,-18.68,48.90,12.54,-1.00
970.00,-2.24,3.70,-7.88,7.85,-0.03,-1.42,-18.68,48.90,12.54,-1.00
982.00,-2.24,3.70,-7.88,7.85,-0.03,-1.42,-18.68,48.90,12.54,-1.00
994.00,-2.38,1.81,-8.03,8.50,-0.30,-1.44,-18.68,48.90,12.54,-1.00
1008.00,-2.38,1.81,-8.03,8.50,-0.30,-1.44,-18.68,48.90,12.54,-1.00
1020.00,-2.67,-0.73,-9.33,8.13,-0.50,-1.20,-18.68,48.90,12.54,-1.00
1032.00,-2.83,-4.07,-8.93,6.44,-0.82,-0.89,-17.56,10.45,-15.58,-1.00
1046.00,-2.83,-4.07,-8.93,6.44,-0.82,-0.89,-17.56,10.45,-15.58,-1.00
1059.00,-1.42,-3.30,-10.36,3.35,-1.60,-0.23,-17.56,10.45,-15.58,-1.00
1070.00,-4.44,-1.76,-8.40,2.32,-1.93,0.55,-17.56,10.45,-15.58,-1.00
1082.00,-4.44,-1.76,-8.40,2.32,-1.93,0.55,-17.56,10.45,-15.58,-1.00
1096.00,-7.63,-0.47,-10.98,1.07,-1.97,0.87,-17.56,10.45,-15.58,-1.00
1108.00,-7.63,-0.47,-10.98,1.07,-1.97,0.87,-17.56,10.45,-15.58,-1.00
1120.00,-2.98,1.49,-9.00,0.10,-1.87,0.99,-17.56,10.45,-15.58,-1.00
1132.00,-3.28,2.97,-9.44,-0.50,-1.99,0.59,-17.56,10.45,-15.58,-1.00
1146.00,-3.28,2.97,-9.44,-0.50,-1.99,0.59,-17.56,10.45,-15.58,-1.00
1158.00,-3.33,3.20,-10.07,0.05,-2.29,-0.25,-19.10,-1.59,-11.78,-1.00
1170.00,-3.67,2.40,-10.07,1.22,-2.62,-1.06,-19.10,-1.59,-11.78,-1.00
1185.00,-3.67,2.40,-10.07,1.22,-2.62,-1.06,-19.10,-1.59,-11.78,-1.00
1196.00,-3.54,1.89,-10.51,1.93,-3.09,-1.80,-19.10,-1.59,-11.78,-1.00
1208.00,-3.54,1.89,-10.51,1.93,-3.09,-1.80,-19.10,-1.59,-11.78,-1.00
1220.00,-3.32,0.52,-8.51,2.76,-3.71,-2.54,-19.10,-1.59,-11.78,-1.00
1234.00,-3.09,-1.33,-5.83,4.72,-3.82,-2.90,-19.10,-1.59,-11.78,-1.00
1246.00,-3.09,-1.33,-5.83,4.72,-3.82,-2.90,-19.10,-1.59,-11.78,-1.00
1258.00,-2.08,-3.55,-5.23,5.18,-3.75,-3.17,-19.10,-1.59,-11.78,-1.00
1270.00,-0.19,-5.51,-5.49,4.98,-3.89,-3.19,-13.37,-29.80,12.99,-1.00
1284.00,-0.19,-5.51,-5.49,4.98,-3.89,-3.19,-13.37,-29.80,12.99,-1.00
1296.00,0.93,-6.21,-4.68,4.87,-4.35,-2.82,-13.37,-29.80,12.99,-1.00
1308.00,0.93,-6.21,-4.68,4.87,-4.35,-2.82,-13.37,-29.80,12.99,-1.00
1322.00,0.93,-8.89,-3.07,4.74,-4.76,-2.06,-13.37,-29.80,12.99,-1.00
1412.00,1.46,-10.18,-0.47,2.22,-3.91,1.49,-3.59,-39.51,49.60,-1.00
1500.00,-5.57,-9.38,2.93,0.53,-1.59,2.77,-3.59,-39.51,49.60,-1.00
1590.00,-5.63,-9.21,1.99,-0.35,-0.86,1.12,-8.06,-31.60,60.75,-1.00
1604.00,-5.63,-9.21,1.99,-0.35,-0.86,1.12,-8.06,-31.60,60.75,-1.00
1616.00,-5.54,-8.37,1.98,-1.25,-1.15,1.11,-8.06,-31.60,60.75,-1.00
1628.00,-5.54,-8.37,1.98,-1.25,-1.15,1.11,-8.06,-31.60,60.75,-1.00
1640.00,-5.74,-6.30,-2.31,-1.70,-1.20,1.12,-8.06,-31.60,60.75,-1.00
1655.00,-6.01,-6.96,-0.17,-0.21,-0.81,1.38,-9.46,-31.60,55.84,-1.00
1667.00,-6.01,-6.96,-0.17,-0.21,-0.81,1.38,-9.46,-31.60,55.84,-1.00
1679.00,-7.19,-8.10,-0.30,-0.17,-0.45,1.41,-9.46,-31.60,55.84,-1.00
1691.00,-7.24,-9.27,1.32,-0.73,-0.25,1.55,-9.46,-31.60,55.84,-1.00
1705.00,-7.24,-9.27,1.32,-0.73,-0.25,1.55,-9.46,-31.60,55.84,-1.00
1717.00,-5.98,-6.97,-0.03,-2.87,-0.25,1.68,-9.46,-31.60,55.84,-1.00
1729.00,-5.98,-6.97,-0.03,-2.87,-0.25,1.68,-9.46,-31.60,55.84,-1.00
1743.00,-6.39,-6.06,-0.76,-4.26,-0.18,1.42,-9.46,-31.60,55.84,-1.00
1755.00,-5.31,-7.26,-3.93,-4.75,0.15,1.05,-9.46,-31.60,55.84,-1.00
1767.00,-5.31,-7.26,-3.93,-4.75,0.15,1.05,-9.46,-31.60,55.84,-1.00
1779.00,-4.97,-7.37,-4.68,-4.16,0.13,1.43,-11.14,-32.32,37.10,-1.00
1793.00,-5.26,-5.25,-6.75,-3.82,-0.20,1.93,-11.14,-32.32,37.10,-1.00
1805.00,-5.26,-5.25,-6.75,-3.82,-0.20,1.93,-11.14,-32.32,37.10,-1.00
1817.00,-6.24,-4.74,-7.87,-2.76,-0.62,2.04,-11.14,-32.32,37.10,-1.00
1829.00,-6.24,-4.74,-7.87,-2.76,-0.62,2.04,-11.14,-32.32,37.10,-1.00
1843.00,-7.15,-4.49,-6.86,-1.97,-1.13,1.91,-11.14,-32.32,37.10,-1.00
1855.00,-7.22,-4.96,-6.04,-1.88,-1.33,1.74,-11.14,-32.32,37.10,-1.00
1867.00,-7.22,-4.96,-6.04,-1.88,-1.33,1.74,-11.14,-32.32,37.10,-1.00
1881.00,-6.63,-4.31,-7.08,-2.00,-1.32,1.60,-11.14,-32.32,37.10,-1.00
1893.00,-6.65,-3.03,-6.90,-1.37,-1.27,1.49,-14.49,-29.45,22.81,-1.00
1905.00,-6.65,-3.03,-6.90,-1.37,-1.27,1.49,-14.49,-29.45,22.81,-1.00
1917.00,-6.82,-2.62,-5.85,-0.46,-1.39,1.14,-14.49,-29.45,22.81,-1.00
1931.00,-5.76,-3.94,-5.41,-0.01,-1.48,0.65,-14.49,-29.45,22.81,-1.00
1943.00,-5.76,-3.94,-5.41,-0.01,-1.48,0.65,-14.49,-29.45,22.81,-1.00
1955.00,-5.04,-4.36,-5.77,-0.23,-1.62,0.64,-14.49,-29.45,22.81,-1.00
1967.00,-5.04,-4.36,-5.77,-0.23,-1.62,0.64,-14.49,-29.45,22.81,-1.00
1981.00,-5.99,-3.83,-6.10,-0.11,-1.77,0.94,-14.49,-29.45,22.81,-1.00
1993.00,-8.92,-4.98,-7.33,0.39,-1.95,1.12,-14.49,-29.45,22.81,-1.00
2005.00,-8.92,-4.98,-7.33,0.39,-1.95,1.12,-14.49,-29.45,22.81,-1.00
2019.00,-8.33,-4.64,-4.71,0.53,-2.05,1.12,-14.49,-29.45,22.81,-1.00
2031.00,-6.73,-4.31,-3.98,0.64,-1.87,1.06,-15.75,-27.47,25.71,-1.00
2043.00,-6.73,-4.31,-3.98,0.64,-1.87,1.06,-15.75,-27.47,25.71,-1.00
2055.00,-7.26,-6.00,-4.36,0.69,-1.57,1.10,-15.75,-27.47,25.71,-1.00
2069.00,-7.26,-6.00,-4.36,0.69,-1.57,1.10,-15.75,-27.47,25.71,-1.00
2081.00,-7.43,-5.76,-4.53,0.23,-1.51,1.23,-15.75,-27.47,25.71,-1.00
2093.00,-7.29,-5.25,-4.87,0.04,-1.49,1.28,-15.75,-27.47,25.71,-1.00
2105.00,-7.29,-5.25,-4.87,0.04,-1.49,1.28,-15.75,-27.47,25.71,-1.00
2119.00,-7.57,-4.72,-4.86,0.18,-1.52,1.25,-15.75,-27.47,25.71,-1.00
2131.00,-7.34,-4.47,-4.81,0.25,-1.56,1.15,-15.75,-27.47,25.71,-1.00
2143.00,-7.34,-4.47,-4.81,0.25,-1.56,1.15,-15.75,-27.47,25.71,-1.00
2155.00,-7.55,-4.54,-4.66,0.34,-1.62,1.10,-17.00,-27.29,29.06,-1.00
2169.00,-7.55,-4.54,-4.66,0.34,-1.62,1.10,-17.00,-27.29,29.06,-1.00
2181.00,-7.29,-4.85,-4.79,0.38,-1.57,1.05,-17.00,-27.29,29.06,-1.00
2193.00,-6.83,-5.11,-4.82,0.35,-1.52,1.10,-17.00,-27.29,29.06,-1.00
2207.00,-6.83,-5.11,-4.82,0.35,-1.52,1.10,-17.00,-27.29,29.06,-1.00
2219.00,-8.17,-4.78,-3.48,0.17,-1.52,1.09,-17.00,-27.29,29.06,-1.00
2231.00,-7.63,-5.21,-3.61,-0.08,-1.35,0.92,-17.00,-27.29,29.06,-1.00
2243.00,-7.63,-5.21,-3.61,-0.08,-1.35,0.92,-17.00,-27.29,29.06,-1.00
2257.00,-7.48,-5.00,-4.23,-0.27,-1.16,0.94,-17.00,-27.29,29.06,-1.00
2269.00,-7.48,-5.00,-4.23,-0.27,-1.16,0.94,-17.00,-27.29,29.06,-1.00
2281.00,-7.46,-4.49,-4.97,-0.34,-1.11,0.96,-16.86,-26.39,31.52,-1.00
2293.00,-7.11,-4.56,-6.05,-0.09,-1.15,1.01,-16.86,-26.39,31.52,-1.00
2307.00,-7.11,-4.56,-6.05,-0.09,-1.15,1.01,-16.86,-26.39,31.52,-1.00
2319.00,-7.43,-3.51,-5.90,0.22,-1.35,1.19,-16.86,-26.39,31.52,-1.00
2331.00,-7.84,-6.51,-2.07,0.58,-1.62,0.94,-16.86,-26.39,31.52,-1.00
2345.00,-7.84,-6.51,-2.07,0.58,-1.62,0.94,-16.86,-26.39,31.52,-1.00
2357.00,-7.94,-6.09,-3.47,-0.36,-1.46,0.99,-16.86,-26.39,31.52,-1.00
2369.00,-7.94,-6.09,-3.47,-0.36,-1.46,0.99,-16.86,-26.39,31.52,-1.00
2381.00,-7.81,-4.70,-3.72,-0.54,-0.93,1.50,-16.86,-26.39,31.52,-1.00
2396.00,-7.64,-4.57,-4.92,-0.59,-0.86,1.46,-16.86,-26.39,31.52,-1.00
2407.00,-7.64,-4.57,-4.92,-0.59,-0.86,1.46,-16.86,-26.39,31.52,-1.00
2419.00,-8.07,-4.39,-4.74,-0.61,-0.97,1.41,-16.58,-23.16,27.05,-1.00
2431.00,-8.04,-4.99,-4.33,-0.90,-1.07,1.34,-16.58,-23.16,27.05,-1.00
2445.00,-8.04,-4.99,-4.33,-0.90,-1.07,1.34,-16.58,-23.16,27.05,-1.00
2457.00,-7.66,-4.63,-4.33,-1.53,-1.19,1.37,-16.58,-23.16,27.05,-1.00
2469.00,-7.66,-4.63,-4.33,-1.53,-1.19,1.37,-16.58,-23.16,27.05,-1.00
2483.00,-7.60,-3.63,-4.54,-1.69,-1.14,1.50,-16.58,-23.16,27.05,-1.00
2495.00,-8.32,-3.21,-5.32,-1.12,-1.01,1.52,-16.58,-23.16,27.05,-1.00
2507.00,-8.32,-3.21,-5.32,-1.12,-1.01,1.52,-16.58,-23.16,27.05,-1.00
2519.00,-7.06,-3.21,-5.81,-0.80,-1.08,1.37,-16.58,-23.16,27.05,-1.00
2533.00,-6.92,-2.83,-6.20,-0.72,-1.30,1.20,-19.52,-23.34,23.70,-1.00
2546.00,-6.92,-2.83,-6.20,-0.72,-1.30,1.20,-19.52,-23.34,23.70,-1.00
2558.00,-7.59,-2.07,-6.53,-0.59,-1.51,0.87,-19.52,-23.34,23.70,-1.00
2570.00,-7.59,-2.07,-6.53,-0.59,-1.51,0.87,-19.52,-23.34,23.70,-1.00
2584.00,-7.36,-3.19,-5.33,-0.25,-1.62,0.53,-19.52,-23.34,23.70,-1.00
2596.00,-7.52,-4.09,-5.62,-0.28,-1.51,0.40,-19.52,-23.34,23.70,-1.00
2608.00,-7.52,-4.09,-5.62,-0.28,-1.51,0.40,-19.52,-23.34,23.70,-1.00
2622.00,-7.87,-3.77,-4.73,-0.33,-1.39,0.64,-19.52,-23.34,23.70,-1.00
2634.00,-7.81,-3.90,-4.66,-0.20,-1.27,0.87,-19.52,-23.34,23.70,-1.00
2646.00,-7.81,-3.90,-4.66,-0.20,-1.27,0.87,-19.52,-23.34,23.70,-1.00
2658.00,-7.77,-3.64,-5.32,-0.19,-1.10,1.00,-18.96,-24.41,22.81,-1.00
2673.00,-7.69,-3.43,-6.24,-0.21,-1.05,1.05,-18.96,-24.41,22.81,-1.00
2684.00,-7.69,-3.43,-6.24,-0.21,-1.05,1.05,-18.96,-24.41,22.81,-1.00
2696.00,-7.67,-2.87,-6.18,-0.25,-1.23,1.03,-18.96,-24.41,22.81,-1.00
2708.00,-7.67,-2.87,-6.18,-0.25,-1.23,1.03,-18.96,-24.41,22.81,-1.00
2722.00,-7.86,-3.08,-5.26,-0.12,-1.39,0.91,-18.96,-24.41,22.81,-1.00
2734.00,-7.81,-3.64,-4.64,-0.06,-1.39,0.81,-18.96,-24.41,22.81,-1.00
2746.00,-7.81,-3.64,-4.64,-0.06,-1.39,0.81,-18.96,-24.41,22.81,-1.00
2760.00,-7.63,-3.69,-4.91,-0.12,-1.25,0.83,-18.96,-24.41,22.81,-1.00
2772.00,-7.57,-2.76,-5.94,-0.08,-1.13,0.86,-17.70,-22.80,22.59,-1.00
2784.00,-7.57,-2.76,-5.94,-0.08,-1.13,0.86,-17.70,-22.80,22.59,-1.00
2796.00,-7.89,-3.00,-5.80,0.32,-1.10,0.79,-17.70,-22.80,22.59,-1.00
2810.00,-7.89,-3.00,-5.80,0.32,-1.10,0.79,-17.70,-22.80,22.59,-1.00
2822.00,-8.22,-3.43,-5.28,0.40,-1.22,0.72,-17.70,-22.80,22.59,-1.00
2834.00,-7.99,-3.05,-5.13,0.35,-1.22,0.78,-17.70,-22.80,22.59,-1.00
2846.00,-7.99,-3.05,-5.13,0.35,-1.22,0.78,-17.70,-22.80,22.59,-1.00
2861.00,-7.55,-4.03,-5.74,0.44,-1.10,0.82,-17.70,-22.80,22.59,-1.00
2872.00,-7.25,-4.70,-7.46,0.00,-1.01,0.96,-17.70,-22.80,22.59,-1.00
2884.00,-7.25,-4.70,-7.46,0.00,-1.01,0.96,-17.70,-22.80,22.59,-1.00
2898.00,-6.91,-4.43,-4.83,-0.22,-0.89,1.46,-17.70,-22.80,22.59,-1.00
2910.00,-6.91,-4.43,-4.83,-0.22,-0.89,1.46,-17.70,-22.80,22.59,-1.00
2922.00,-8.47,-2.80,-4.85,-0.30,-0.87,1.66,-17.28,-25.13,21.03,-1.00
2934.00,-7.99,-3.54,-4.43,-0.18,-0.88,1.58,-17.28,-25.13,21.03,-1.00
2948.00,-7.99,-3.54,-4.43,-0.18,-0.88,1.58,-17.28,-25.13,21.03,-1.00
2960.00,-8.05,-3.11,-5.65,-0.24,-0.81,1.54,-17.28,-25.13,21.03,-1.00
2972.00,-7.72,-3.42,-5.62,-0.36,-0.81,1.57,-17.28,-25.13,21.03,-1.00
2984.00,-7.72,-3.42,-5.62,-0.36,-0.81,1.57,-17.28,-25.13,21.03,-1.00
2998.00,-7.58,-2.30,-6.26,-0.38,-0.90,1.61,-17.28,-25.13,21.03,-1.00
3086.00,-7.72,-2.59,-6.14,0.12,-1.23,0.90,-19.52,-20.46,20.58,-1.00
3176.00,-7.60,-2.66,-6.54,0.03,-1.13,1.07,-20.22,-19.56,20.80,-1.00
3190.00,-7.60,-2.66,-6.54,0.03,-1.13,1.07,-20.22,-19.56,20.80,-1.00
3202.00,-7.80,-2.57,-5.62,0.03,-1.27,0.96,-20.22,-19.56,20.80,-1.00
3214.00,-7.83,-2.84,-5.43,0.13,-1.27,0.90,-20.22,-19.56,20.80,-1.00
3226.00,-7.83,-2.84,-5.43,0.13,-1.27,0.90,-20.22,-19.56,20.80,-1.00
3240.00,-7.73,-3.29,-5.63,0.16,-1.18,0.91,-20.22,-19.56,20.80,-1.00
3252.00,-7.72,-2.90,-6.02,0.10,-1.17,0.98,-20.22,-19.56,20.80,-1.00
3264.00,-7.72,-2.90,-6.02,0.10,-1.17,0.98,-20.22,-19.56,20.80,-1.00
3276.00,-7.83,-2.53,-5.70,0.04,-1.22,0.98,-19.80,-20.82,19.69,-1.00
3291.00,-7.83,-2.53,-5.70,0.04,-1.22,0.98,-19.80,-20.82,19.69,-1.00
3302.00,-7.74,-3.42,-5.37,0.04,-1.23,0.92,-19.80,-20.82,19.69,-1.00
3314.00,-7.78,-3.74,-5.60,-0.15,-1.19,1.02,-19.80,-20.82,19.69,-1.00
3328.00,-7.78,-3.74,-5.60,-0.15,-1.19,1.02,-19.80,-20.82,19.69,-1.00
3340.00,-7.60,-2.99,-6.22,-0.35,-1.08,1.30,-19.80,-20.82,19.69,-1.00
3352.00,-7.53,-2.04,-6.60,-0.13,-1.04,1.43,-19.80,-20.82,19.69,-1.00
3364.00,-7.53,-2.04,-6.60,-0.13,-1.04,1.43,-19.80,-20.82,19.69,-1.00
3378.00,-7.33,-2.04,-5.45,0.07,-1.28,1.24,-19.80,-20.82,19.69,-1.00
3390.00,-7.33,-2.04,-5.45,0.07,-1.28,1.24,-19.80,-20.82,19.69,-1.00
3402.00,-7.77,-1.67,-5.28,0.07,-1.17,0.93,-19.80,-20.82,19.69,-1.00
3414.00,-7.50,-3.15,-5.61,0.02,-0.96,0.64,-20.50,-19.56,20.36,-1.00
3428.00,-7.50,-3.15,-5.61,0.02,-0.96,0.64,-20.50,-19.56,20.36,-1.00
3440.00,-7.99,-3.15,-6.77,-0.29,-1.01,0.43,-20.50,-19.56,20.36,-1.00
3452.00,-8.35,-2.88,-5.92,-0.17,-1.14,0.42,-20.50,-19.56,20.36,-1.00
3465.00,-8.35,-2.88,-5.92,-0.17,-1.14,0.42,-20.50,-19.56,20.36,-1.00
3479.00,-8.29,-4.03,-4.11,-0.28,-1.36,0.43,-20.50,-19.56,20.36,-1.00
3491.00,-8.29,-4.03,-4.11,-0.28,-1.36,0.43,-20.50,-19.56,20.36,-1.00
3503.00,-7.71,-4.20,-5.02,-0.70,-1.25,0.68,-20.50,-19.56,20.36,-1.00
3517.00,-7.68,-3.00,-6.93,-0.58,-0.93,1.07,-20.50,-19.56,20.36,-1.00
3529.00,-7.68,-3.00,-6.93,-0.58,-0.93,1.07,-20.50,-19.56,20.36,-1.00
3541.00,-8.18,-1.57,-6.10,-0.55,-1.43,0.87,-19.52,-22.62,17.01,-1.00
3553.00,-7.08,-2.54,-6.24,-0.34,-1.57,0.61,-19.52,-22.62,17.01,-1.00
3567.00,-7.08,-2.54,-6.24,-0.34,-1.57,0.61,-19.52,-22.62,17.01,-1.00
3579.00,-7.57,-1.68,-6.38,-0.10,-1.18,0.84,-19.52,-22.62,17.01,-1.00
3591.00,-7.57,-1.68,-6.38,-0.10,-1.18,0.84,-19.52,-22.62,17.01,-1.00
3605.00,-8.90,-4.75,-5.39,0.28,-1.20,0.80,-19.52,-22.62,17.01,-1.00
3618.00,-8.15,-4.58,-4.16,-0.28,-1.45,0.90,-19.52,-22.62,17.01,-1.00
3629.00,-8.15,-4.58,-4.16,-0.28,-1.45,0.90,-19.52,-22.62,17.01,-1.00
3641.00,-8.66,-3.12,-5.51,-0.61,-1.02,1.47,-19.52,-22.62,17.01,-1.00
3655.00,-9.46,-0.76,-5.49,-0.76,-0.93,1.82,-20.50,-20.64,16.34,-1.00
3667.00,-9.46,-0.76,-5.49,-0.76,-0.93,1.82,-20.50,-20.64,16.34,-1.00
3679.00,-14.03,-0.95,-4.94,-1.41,-1.19,1.57,-20.50,-20.64,16.34,-1.00
3691.00,-14.03,-0.95,-4.94,-1.41,-1.19,1.57,-20.50,-20.64,16.34,-1.00
3705.00,-7.36,0.25,-4.39,-1.56,-0.99,0.97,-20.50,-20.64,16.34,-1.00
3717.00,-6.25,-0.21,-7.98,-0.59,-0.25,0.28,-20.50,-20.64,16.34,-1.00
3729.00,-6.25,-0.21,-7.98,-0.59,-0.25,0.28,-20.50,-20.64,16.34,-1.00
3744.00,-3.59,-1.69,-8.55,0.17,-0.05,-0.45,-20.50,-20.64,16.34,-1.00
3755.00,-1.93,-3.42,-10.96,0.03,-0.22,-0.97,-20.50,-20.64,16.34,-1.00
3767.00,-1.93,-3.42,-10.96,0.03,-0.22,-0.97,-20.50,-20.64,16.34,-1.00
3779.00,-2.24,-5.46,-10.77,-0.11,-1.10,-0.48,-15.75,-23.52,9.20,-1.00
3793.00,-5.85,-3.17,-7.58,0.07,-2.08,0.84,-15.75,-23.52,9.20,-1.00
3805.00,-5.85,-3.17,-7.58,0.07,-2.08,0.84,-15.75,-23.52,9.20,-1.00
3817.00,-8.65,-2.87,-5.91,0.47,-2.36,1.38,-15.75,-23.52,9.20,-1.00
3829.00,-8.65,-2.87,-5.91,0.47,-2.36,1.38,-15.75,-23.52,9.20,-1.00
3843.00,-8.16,-3.68,-3.63,0.58,-2.56,1.49,-15.75,-23.52,9.20,-1.00
3933.00,-8.39,-0.75,-5.39,0.09,-1.70,0.87,-19.52,-20.10,16.56,-1.00
4021.00,-10.44,-3.06,-2.02,-0.40,0.39,0.36,-19.52,-20.10,16.56,-1.00
4110.00,-2.77,-2.20,-11.46,-1.54,2.02,0.68,-16.58,-21.36,13.21,-1.00
4124.00,-3.48,-1.59,-11.14,-0.76,1.37,1.06,-16.58,-21.36,13.21,-1.00
4136.00,-4.35,-1.18,-9.76,0.20,0.97,1.27,-16.58,-21.36,13.21,-1.00
4148.00,-4.35,-1.18,-9.76,0.20,0.97,1.27,-16.58,-21.36,13.21,-1.00
4162.00,-3.77,-2.00,-9.55,0.90,0.95,1.27,-10.02,-24.05,-5.76,-1.00
4174.00,-3.21,-2.58,-8.16,1.08,0.93,1.21,-10.02,-24.05,-5.76,-1.00
4186.00,-3.21,-2.58,-8.16,1.08,0.93,1.21,-10.02,-24.05,-5.76,-1.00
4198.00,-2.97,-2.10,-7.20,1.89,1.30,1.15,-10.02,-24.05,-5.76,-1.00
4212.00,-2.97,-2.10,-7.20,1.89,1.30,1.15,-10.02,-24.05,-5.76,-1.00
4224.00,0.30,-2.79,-10.51,2.72,2.13,1.06,-10.02,-24.05,-5.76,-1.00
4236.00,0.41,-3.86,-12.59,1.47,1.96,0.96,-10.02,-24.05,-5.76,-1.00
4248.00,0.41,-3.86,-12.59,1.47,1.96,0.96,-10.02,-24.05,-5.76,-1.00
4262.00,-1.98,-2.59,-11.93,0.45,0.84,1.14,-10.02,-24.05,-5.76,-1.00
4274.00,-2.10,-2.69,-11.16,1.51,0.29,1.25,-4.01,-32.50,-4.64,-1.00
4286.00,-2.10,-2.69,-11.16,1.51,0.29,1.25,-4.01,-32.50,-4.64,-1.00
4300.00,-0.66,-4.60,-10.39,3.07,0.15,1.33,-4.01,-32.50,-4.64,-1.00
4312.00,-0.66,-4.60,-10.39,3.07,0.15,1.33,-4.01,-32.50,-4.64,-1.00
4324.00,-1.20,-5.46,-11.29,3.39,-0.09,1.43,-4.01,-32.50,-4.64,-1.00
4338.00,-1.46,-5.04,-11.49,2.92,-0.65,1.58,-4.01,-32.50,-4.64,-1.00
4351.00,-1.46,-5.04,-11.49,2.92,-0.65,1.58,-4.01,-32.50,-4.64,-1.00
4363.00,-2.06,-4.26,-8.90,3.12,-1.20,1.60,-4.01,-32.50,-4.64,-1.00
4375.00,-1.08,-5.26,-6.80,3.50,-1.26,1.33,-4.01,-32.50,-4.64,-1.00
4387.00,-1.08,-5.26,-6.80,3.50,-1.26,1.33,-4.01,-32.50,-4.64,-1.00
4401.00,-0.75,-6.60,-6.41,3.00,-1.27,1.16,-4.01,-32.50,-4.64,-1.00
4413.00,-2.58,-7.41,-5.76,2.15,-1.49,1.36,-4.29,-36.81,13.66,-1.00
4425.00,-2.58,-7.41,-5.76,2.15,-1.49,1.36,-4.29,-36.81,13.66,-1.00
4437.00,-3.27,-6.74,-4.58,0.90,-1.80,1.58,-4.29,-36.81,13.66,-1.00
4451.00,-3.27,-6.74,-4.58,0.90,-1.80,1.58,-4.29,-36.81,13.66,-1.00
4463.00,-2.71,-5.86,-4.07,0.02,-1.93,1.62,-4.29,-36.81,13.66,-1.00
4475.00,-9.54,-6.91,-2.17,-0.00,-1.84,1.56,-4.29,-36.81,13.66,-1.00
4490.00,-9.54,-6.91,-2.17,-0.00,-1.84,1.56,-4.29,-36.81,13.66,-1.00
4501.00,-8.03,-3.24,-7.33,0.30,-0.48,0.78,-4.29,-36.81,13.66,-1.00
4513.00,-2.48,-6.93,-5.36,2.07,-0.43,0.08,-4.29,-36.81,13.66,-1.00
4525.00,-2.48,-6.93,-5.36,2.07,-0.43,0.08,-4.29,-36.81,13.66,-1.00
4539.00,0.18,-7.72,-5.36,1.34,-0.77,0.11,-5.13,-36.09,20.80,-1.00
4551.00,0.18,-7.72,-5.36,1.34,-0.77,0.11,-5.13,-36.09,20.80,-1.00
4563.00,1.51,-8.63,-3.00,0.32,-1.17,0.04,-5.13,-36.09,20.80,-1.00
4575.00,-0.45,-8.34,-6.28,-2.61,-1.29,-0.27,-5.13,-36.09,20.80,-1.00
4589.00,-0.45,-8.34,-6.28,-2.61,-1.29,-0.27,-5.13,-36.09,20.80,-1.00
4601.00,-1.08,-9.66,-9.79,-3.47,-1.37,-0.02,-5.13,-36.09,20.80,-1.00
4613.00,-2.51,-11.05,-9.34,-3.30,-1.88,0.84,-5.13,-36.09,20.80,-1.00
4625.00,-2.51,-11.05,-9.34,-3.30,-1.88,0.84,-5.13,-36.09,20.80,-1.00
4639.00,-1.10,-5.59,-7.72,-2.60,-2.12,1.90,-5.13,-36.09,20.80,-1.00
4651.00,-1.10,-5.59,-7.72,-2.60,-2.12,1.90,-5.13,-36.09,20.80,-1.00
4663.00,-2.65,-5.13,-6.93,-2.81,-2.18,1.92,-6.53,-31.06,4.73,-1.00
4677.00,-6.32,1.35,-3.89,-2.47,-2.03,1.75,-6.53,-31.06,4.73,-1.00
4689.00,-6.32,1.35,-3.89,-2.47,-2.03,1.75,-6.53,-31.06,4.73,-1.00
4701.00,-5.48,-3.60,-9.62,-0.99,-0.72,1.34,-6.53,-31.06,4.73,-1.00
4713.00,-2.65,-6.11,-11.24,-1.32,-0.80,0.96,-6.53,-31.06,4.73,-1.00
4727.00,-2.65,-6.11,-11.24,-1.32,-0.80,0.96,-6.53,-31.06,4.73,-1.00
4739.00,-3.06,-4.36,-9.73,-2.85,-1.84,1.36,-6.53,-31.06,4.73,-1.00
4751.00,-3.06,-4.36,-9.73,-2.85,-1.84,1.36,-6.53,-31.06,4.73,-1.00
4763.00,-2.64,-3.91,-10.81,-4.36,-2.17,0.95,-6.53,-31.06,4.73,-1.00
4777.00,-3.04,-4.79,-7.90,-4.26,-2.38,0.66,-6.53,-31.06,4.73,-1.00
4789.00,-3.04,-4.79,-7.90,-4.26,-2.38,0.66,-6.53,-31.06,4.73,-1.00
4801.00,-2.09,-4.44,-5.35,-3.72,-2.06,0.99,-8.34,-22.26,-9.33,-1.00
4813.00,-2.88,-0.34,-8.87,-4.45,-1.62,1.21,-8.34,-22.26,-9.33,-1.00
4827.00,-2.88,-0.34,-8.87,-4.45,-1.62,1.21,-8.34,-22.26,-9.33,-1.00
4839.00,-2.47,0.05,-9.99,-2.66,-1.10,1.11,-8.34,-22.26,-9.33,-1.00
4851.00,-2.47,0.05,-9.99,-2.66,-1.10,1.11,-8.34,-22.26,-9.33,-1.00
4865.00,-3.07,0.67,-10.43,-1.39,-0.76,1.11,-8.34,-22.26,-9.33,-1.00
4877.00,-2.65,0.94,-11.02,-0.74,-0.83,1.01,-8.34,-22.26,-9.33,-1.00
4889.00,-2.65,0.94,-11.02,-0.74,-0.83,1.01,-8.34,-22.26,-9.33,-1.00
4901.00,-3.39,0.83,-10.67,0.04,-1.14,0.70,-8.34,-22.26,-9.33,-1.00
4916.00,-3.18,-0.62,-9.37,0.44,-1.29,0.51,-10.58,-14.71,-15.58,-1.00
4927.00,-3.18,-0.62,-9.37,0.44,-1.29,0.51,-10.58,-14.71,-15.58,-1.00
4939.00,-2.72,-0.78,-8.98,0.30,-1.33,0.64,-10.58,-14.71,-15.58,-1.00
4951.00,-2.72,-0.78,-8.98,0.30,-1.33,0.64,-10.58,-14.71,-15.58,-1.00
4965.00,-3.01,-0.12,-9.73,0.29,-1.46,0.73,-10.58,-14.71,-15.58,-1.00
4977.00,-2.80,0.34,-10.83,0.80,-1.67,0.69,-10.58,-14.71,-15.58,-1.00
4989.00,-2.80,0.34,-10.83,0.80,-1.67,0.69,-10.58,-14.71,-15.58,-1.00
5003.00,-3.06,-0.93,-9.00,1.45,-1.83,0.51,-10.58,-14.71,-15.58,-1.00
5015.00,-3.73,-2.56,-7.31,1.30,-1.85,0.56,-10.58,-14.71,-15.58,-1.00
5027.00,-3.73,-2.56,-7.31,1.30,-1.85,0.56,-10.58,-14.71,-15.58,-1.00
5039.00,-3.72,-2.19,-8.11,0.03,-1.71,0.96,-10.58,-17.59,-12.01,-1.00
5053.00,-2.92,-0.46,-10.49,-0.78,-1.36,1.07,-10.58,-17.59,-12.01,-1.00
5065.00,-2.92,-0.46,-10.49,-0.78,-1.36,1.07,-10.58,-17.59,-12.01,-1.00
5077.00,-3.47,-1.33,-10.07,-0.11,-1.18,0.76,-10.58,-17.59,-12.01,-1.00
5089.00,-3.47,-1.33,-10.07,-0.11,-1.18,0.76,-10.58,-17.59,-12.01,-1.00
5104.00,-4.16,-2.65,-8.27,0.12,-1.30,0.95,-10.58,-17.59,-12.01,-1.00
5115.00,-4.09,-1.95,-9.30,-0.44,-1.16,1.47,-10.58,-17.59,-12.01,-1.00
5127.00,-4.09,-1.95,-9.30,-0.44,-1.16,1.47,-10.58,-17.59,-12.01,-1.00
5141.00,-3.07,-1.03,-10.54,-0.63,-0.99,1.75,-10.58,-17.59,-12.01,-1.00
5153.00,-3.07,-1.03,-10.54,-0.63,-0.99,1.75,-10.58,-17.59,-12.01,-1.00
5165.00,-3.23,-0.82,-9.84,-0.36,-1.19,1.63,-11.42,-16.51,-12.90,-1.00
5177.00,-3.27,-0.48,-9.65,-0.13,-1.41,1.39,-11.42,-16.51,-12.90,-1.00
5192.00,-3.27,-0.48,-9.65,-0.13,-1.41,1.39,-11.42,-16.51,-12.90,-1.00
5204.00,-2.40,-2.71,-4.16,-0.91,-1.26,0.90,-11.42,-16.51,-12.90,-1.00
5216.00,-1.67,5.84,-17.07,-6.65,0.30,1.45,-11.42,-16.51,-12.90,-1.00
5231.00,-1.67,5.84,-17.07,-6.65,0.30,1.45,-11.42,-16.51,-12.90,-1.00
5242.00,-1.43,2.34,-9.86,-3.17,-1.07,1.96,-11.42,-16.51,-12.90,-1.00
5254.00,-1.19,2.76,-10.88,-1.38,-1.91,1.78,-11.42,-16.51,-12.90,-1.00
5266.00,-1.19,2.76,-10.88,-1.38,-1.91,1.78,-11.42,-16.51,-12.90,-1.00
5280.00,-2.14,2.80,-10.56,-0.93,-2.71,1.63,-11.42,-16.51,-12.90,-1.00
5292.00,-2.14,2.80,-10.56,-0.93,-2.71,1.63,-11.42,-16.51,-12.90,-1.00
5304.00,-5.09,1.42,-6.87,-0.44,-3.89,1.30,-14.07,-4.11,-18.48,-1.00
5316.00,-9.28,2.30,-7.68,-0.48,-4.02,0.61,-14.07,-4.11,-18.48,-1.00
5330.00,-9.28,2.30,-7.68,-0.48,-4.02,0.61,-14.07,-4.11,-18.48,-1.00
5342.00,-6.63,1.32,-7.31,0.50,-3.13,0.28,-14.07,-4.11,-18.48,-1.00
5354.00,-8.16,0.51,-8.55,1.88,-1.14,0.51,-14.07,-4.11,-18.48,-1.00
5368.00,-8.16,0.51,-8.55,1.88,-1.14,0.51,-14.07,-4.11,-18.48,-1.00
5380.00,-6.11,1.96,-7.97,0.78,-0.70,1.39,-14.07,-4.11,-18.48,-1.00
5392.00,-6.11,1.96,-7.97,0.78,-0.70,1.39,-14.07,-4.11,-18.48,-1.00
5404.00,-5.52,2.07,-8.85,0.19,-0.85,1.10,-14.07,-4.11,-18.48,-1.00
5418.00,-4.82,1.91,-10.62,0.14,-1.00,0.64,-17.28,-3.93,-15.13,-1.00
5430.00,-4.82,1.91,-10.62,0.14,-1.00,0.64,-17.28,-3.93,-15.13,-1.00
5442.00,-4.41,1.47,-10.35,1.31,-0.71,0.84,-17.28,-3.93,-15.13,-1.00
5454.00,-1.30,2.20,-9.37,1.86,-0.65,0.92,-17.28,-3.93,-15.13,-1.00
5468.00,-1.30,2.20,-9.37,1.86,-0.65,0.92,-17.28,-3.93,-15.13,-1.00
5557.00,-5.84,-0.35,-9.75,0.28,-0.80,0.34,-15.89,-12.91,-7.10,-1.00
5645.00,-5.57,-0.31,-10.32,-0.31,-0.16,0.47,-15.89,-12.91,-7.10,-1.00
5735.00,-4.14,-1.22,-8.94,0.23,-1.27,0.58,-13.09,-13.99,-9.33,-1.00
5749.00,-4.14,-1.22,-8.94,0.23,-1.27,0.58,-13.09,-13.99,-9.33,-1.00
5761.00,-3.98,-0.79,-8.82,0.53,-1.22,0.87,-13.09,-13.99,-9.33,-1.00
5773.00,-3.98,-0.79,-8.82,0.53,-1.22,0.87,-13.09,-13.99,-9.33,-1.00
5787.00,-3.93,-1.48,-8.56,0.90,-1.19,1.25,-13.09,-13.99,-9.33,-1.00
5799.00,-3.89,-2.02,-7.18,0.49,-0.83,1.93,-12.25,-17.23,-9.78,-1.00
5811.00,-3.89,-2.02,-7.18,0.49,-0.83,1.93,-12.25,-17.23,-9.78,-1.00
5823.00,-4.05,-1.40,-7.58,-1.26,-0.36,2.49,-12.25,-17.23,-9.78,-1.00
5837.00,-3.25,1.21,-11.05,-2.29,-0.13,2.68,-12.25,-17.23,-9.78,-1.00
5849.00,-3.25,1.21,-11.05,-2.29,-0.13,2.68,-12.25,-17.23,-9.78,-1.00
5861.00,-0.78,1.98,-11.72,-2.29,-0.58,2.06,-12.25,-17.23,-9.78,-1.00
5873.00,-0.78,1.98,-11.72,-2.29,-0.58,2.06,-12.25,-17.23,-9.78,-1.00
5887.00,-1.06,2.46,-11.27,-0.60,-2.35,1.40,-12.25,-17.23,-9.78,-1.00
5899.00,-2.53,0.22,-9.71,1.41,-2.15,0.85,-12.25,-17.23,-9.78,-1.00
5911.00,-2.53,0.22,-9.71,1.41,-2.15,0.85,-12.25,-17.23,-9.78,-1.00
5925.00,-0.40,-2.40,-9.89,1.25,-1.65,0.99,-14.07,-10.94,-11.78,-1.00
5937.00,-9.46,0.19,-8.33,-0.33,-2.75,2.80,-14.07,-10.94,-11.78,-1.00
5949.00,-9.46,0.19,-8.33,-0.33,-2.75,2.80,-14.07,-10.94,-11.78,-1.00
5961.00,-10.73,1.16,-7.36,-0.08,-2.85,1.76,-14.07,-10.94,-11.78,-1.00
5975.00,-5.54,0.39,-9.23,1.33,-1.59,-0.17,-14.07,-10.94,-11.78,-1.00
5987.00,-5.54,0.39,-9.23,1.33,-1.59,-0.17,-14.07,-10.94,-11.78,-1.00
5999.00,-4.82,-0.75,-8.43,2.14,-1.52,-0.70,-14.07,-10.94,-11.78,-1.00
6011.00,-4.82,-0.75,-8.43,2.14,-1.52,-0.70,-14.07,-10.94,-11.78,-1.00
6026.00,-9.26,-0.99,-7.26,3.16,-1.45,-0.96,-14.07,-10.94,-11.78,-1.00
6037.00,-5.50,-4.90,-7.83,3.45,0.17,-1.07,-12.67,-17.77,-5.09,-1.00
6049.00,-5.50,-4.90,-7.83,3.45,0.17,-1.07,-12.67,-17.77,-5.09,-1.00
6063.00,-2.34,-1.94,-11.98,-0.47,0.69,0.58,-12.67,-17.77,-5.09,-1.00
6075.00,-3.32,-0.34,-11.17,-2.18,-0.03,1.42,-12.67,-17.77,-5.09,-1.00
6087.00,-3.32,-0.34,-11.17,-2.18,-0.03,1.42,-12.67,-17.77,-5.09,-1.00
6099.00,-2.49,0.45,-9.85,-1.54,-0.65,1.02,-12.67,-17.77,-5.09,-1.00
6113.00,-2.49,0.45,-9.85,-1.54,-0.65,1.02,-12.67,-17.77,-5.09,-1.00
6125.00,-2.13,0.31,-8.09,-0.70,-1.04,0.68,-12.67,-17.77,-5.09,-1.00
6137.00,-3.42,0.14,-8.17,-0.17,-1.15,0.47,-12.67,-17.77,-5.09,-1.00
6149.00,-3.42,0.14,-8.17,-0.17,-1.15,0.47,-12.67,-17.77,-5.09,-1.00
6164.00,-4.65,-0.48,-9.14,0.34,-1.12,0.30,-11.28,-17.41,-10.45,-1.00
6175.00,-3.94,-0.86,-10.44,0.45,-1.29,0.48,-11.28,-17.41,-10.45,-1.00
6187.00,-3.94,-0.86,-10.44,0.45,-1.29,0.48,-11.28,-17.41,-10.45,-1.00
6201.00,-4.18,-1.65,-9.22,0.39,-2.08,0.76,-11.28,-17.41,-10.45,-1.00
6213.00,-4.18,-1.65,-9.22,0.39,-2.08,0.76,-11.28,-17.41,-10.45,-1.00
6225.00,-4.89,-2.23,-7.81,-0.24,-2.47,0.74,-11.28,-17.41,-10.45,-1.00
6237.00,-4.16,-2.20,-8.40,-0.71,-2.19,0.57,-11.28,-17.41,-10.45,-1.00
6251.00,-4.16,-2.20,-8.40,-0.71,-2.19,0.57,-11.28,-17.41,-10.45,-1.00
6263.00,-5.07,-2.08,-8.09,-1.04,-1.88,0.58,-11.28,-17.41,-10.45,-1.00
6275.00,-5.31,-2.63,-7.17,-1.77,-1.20,1.02,-11.28,-17.41,-10.45,-1.00
6287.00,-5.31,-2.63,-7.17,-1.77,-1.20,1.02,-11.28,-17.41,-10.45,-1.00
6302.00,-3.79,-0.87,-9.24,-2.82,-0.24,1.91,-12.81,-15.07,-11.12,-1.00
6313.00,-3.79,-0.87,-9.24,-2.82,-0.24,1.91,-12.81,-15.07,-11.12,-1.00
6325.00,-4.25,1.32,-9.63,-2.78,-0.44,2.16,-12.81,-15.07,-11.12,-1.00
6339.00,-10.42,2.97,-14.67,-1.87,0.15,1.83,-12.81,-15.07,-11.12,-1.00
6351.00,-10.42,2.97,-14.67,-1.87,0.15,1.83,-12.81,-15.07,-11.12,-1.00
6363.00,-4.57,-0.22,-8.67,-0.02,0.51,1.33,-12.81,-15.07,-11.12,-1.00
6375.00,-7.71,0.23,-8.53,-0.08,-0.32,1.06,-12.81,-15.07,-11.12,-1.00
6389.00,-7.71,0.23,-8.53,-0.08,-0.32,1.06,-12.81,-15.07,-11.12,-1.00
6401.00,-5.51,-0.33,-7.42,0.24,-0.23,1.00,-12.81,-15.07,-11.12,-1.00
6413.00,-5.51,-0.33,-7.42,0.24,-0.23,1.00,-12.81,-15.07,-11.12,-1.00
6425.00,-3.94,-0.40,-8.37,0.25,0.68,1.40,-9.60,-9.50,-18.03,-1.00
6440.00,-0.72,-0.17,-9.39,0.01,1.19,1.94,-9.60,-9.50,-18.03,-1.00
6451.00,-0.72,-0.17,-9.39,0.01,1.19,1.94,-9.60,-9.50,-18.03,-1.00
6463.00,3.31,1.01,-10.64,-0.33,1.10,2.13,-9.60,-9.50,-18.03,-1.00
6477.00,0.86,1.32,-11.97,-0.39,-0.07,1.53,-9.60,-9.50,-18.03,-1.00
6489.00,0.86,1.32,-11.97,-0.39,-0.07,1.53,-9.60,-9.50,-18.03,-1.00
6501.00,0.15,1.06,-10.90,0.14,-0.67,1.06,-9.60,-9.50,-18.03,-1.00
6513.00,0.15,1.06,-10.90,0.14,-0.67,1.06,-9.60,-9.50,-18.03,-1.00
6527.00,1.30,-0.48,-9.56,0.41,-0.61,1.02,-9.60,-9.50,-18.03,-1.00
6539.00,0.57,0.97,-10.32,-0.16,-0.54,1.90,-5.27,-10.04,-22.72,-1.00
6551.00,0.57,0.97,-10.32,-0.16,-0.54,1.90,-5.27,-10.04,-22.72,-1.00
6563.00,-0.95,1.48,-9.09,-0.29,-0.60,2.32,-5.27,-10.04,-22.72,-1.00
6577.00,-2.18,2.40,-10.58,-0.58,-0.61,2.05,-5.27,-10.04,-22.72,-1.00
6589.00,-2.18,2.40,-10.58,-0.58,-0.61,2.05,-5.27,-10.04,-22.72,-1.00
6601.00,-1.53,2.71,-10.94,-0.26,-0.67,1.50,-5.27,-10.04,-22.72,-1.00
6613.00,-1.53,2.71,-10.94,-0.26,-0.67,1.50,-5.27,-10.04,-22.72,-1.00
6627.00,-0.50,1.61,-10.55,0.54,-0.70,0.78,-5.27,-10.04,-22.72,-1.00
6639.00,-0.57,0.69,-9.74,0.99,-0.53,0.54,-5.27,-10.04,-22.72,-1.00
6651.00,-0.57,0.69,-9.74,0.99,-0.53,0.54,-5.27,-10.04,-22.72,-1.00
6665.00,-0.65,0.39,-9.53,0.92,-0.33,0.69,-5.27,-10.04,-22.72,-1.00
6677.00,-1.01,0.20,-8.96,0.88,-0.19,0.91,-3.59,-9.32,-25.40,-1.00
6689.00,-1.01,0.20,-8.96,0.88,-0.19,0.91,-3.59,-9.32,-25.40,-1.00
6701.00,0.68,-0.34,-9.47,0.91,0.44,1.17,-3.59,-9.32,-25.40,-1.00
6716.00,1.70,0.17,-11.59,0.48,0.57,1.43,-3.59,-9.32,-25.40,-1.00
6727.00,1.70,0.17,-11.59,0.48,0.57,1.43,-3.59,-9.32,-25.40,-1.00
6739.00,1.24,0.27,-11.22,0.32,-0.43,1.37,-3.59,-9.32,-25.40,-1.00
6751.00,1.24,0.27,-11.22,0.32,-0.43,1.37,-3.59,-9.32,-25.40,-1.00
6765.00,-0.34,0.45,-10.80,0.31,-1.50,1.16,-3.59,-9.32,-25.40,-1.00
6777.00,-0.30,-0.03,-10.77,0.47,-1.71,0.99,-3.59,-9.32,-25.40,-1.00
6789.00,-0.30,-0.03,-10.77,0.47,-1.71,0.99,-3.59,-9.32,-25.40,-1.00
6801.00,0.14,-0.10,-11.08,0.73,-1.13,1.14,-0.52,-12.55,-23.61,-1.00
6815.00,1.92,0.06,-11.44,1.01,-0.70,1.40,-0.52,-12.55,-23.61,-1.00
6827.00,1.92,0.06,-11.44,1.01,-0.70,1.40,-0.52,-12.55,-23.61,-1.00
6839.00,-0.32,0.33,-10.82,1.72,-1.02,1.41,-0.52,-12.55,-23.61,-1.00
6853.00,-0.32,0.33,-10.82,1.72,-1.02,1.41,-0.52,-12.55,-23.61,-1.00
6865.00,-0.69,-0.20,-10.69,1.74,-1.67,0.89,-0.52,-12.55,-23.61,-1.00
6877.00,-0.25,-0.02,-9.59,1.57,-2.06,0.44,-0.52,-12.55,-23.61,-1.00
6889.00,-0.25,-0.02,-9.59,1.57,-2.06,0.44,-0.52,-12.55,-23.61,-1.00
6903.00,-0.45,-1.14,-9.73,2.47,-2.18,0.29,-0.52,-12.55,-23.61,-1.00
6915.00,-0.45,-1.14,-9.73,2.47,-2.18,0.29,-0.52,-12.55,-23.61,-1.00
6927.00,-0.46,-2.35,-9.18,3.58,-2.24,0.49,-0.52,-22.98,-18.26,-1.00
6939.00,-0.66,-3.32,-9.45,3.52,-2.31,0.96,-0.52,-22.98,-18.26,-1.00
6953.00,-0.66,-3.32,-9.45,3.52,-2.31,0.96,-0.52,-22.98,-18.26,-1.00
6965.00,-0.48,-6.03,-6.06,3.02,-2.20,1.45,-0.52,-22.98,-18.26,-1.00
6977.00,-0.03,-4.59,-10.39,2.33,-1.83,1.81,-0.52,-22.98,-18.26,-1.00
6991.00,-0.03,-4.59,-10.39,2.33,-1.83,1.81,-0.52,-22.98,-18.26,-1.00
7003.00,-1.44,-3.36,-8.30,2.25,-2.01,1.79,-0.52,-22.98,-18.26,-1.00
7015.00,-1.44,-3.36,-8.30,2.25,-2.01,1.79,-0.52,-22.98,-18.26,-1.00
7027.00,-2.18,-5.00,-7.34,1.70,-1.30,1.77,-0.52,-22.98,-18.26,-1.00
7042.00,-1.10,-5.11,-7.72,0.24,-0.74,1.54,-4.85,-31.78,-15.80,-1.00
7053.00,-1.10,-5.11,-7.72,0.24,-0.74,1.54,-4.85,-31.78,-15.80,-1.00
7065.00,0.43,-5.59,-10.96,-0.96,-0.69,1.23,-4.85,-31.78,-15.80,-1.00
7077.00,0.51,-4.90,-10.46,-0.93,-1.04,0.75,-4.85,-31.78,-15.80,-1.00
7091.00,0.51,-4.90,-10.46,-0.93,-1.04,0.75,-4.85,-31.78,-15.80,-1.00
7103.00,2.62,-4.99,-7.93,-0.75,-1.39,0.42,-4.85,-31.78,-15.80,-1.00
7115.00,2.62,-4.99,-7.93,-0.75,-1.39,0.42,-4.85,-31.78,-15.80,-1.00
7127.00,-2.12,-2.64,-7.70,-1.76,-1.66,0.42,-4.85,-31.78,-15.80,-1.00
7141.00,-2.52,-3.47,-11.02,-2.42,-1.87,0.58,-4.85,-31.78,-15.80,-1.00
7153.00,-2.52,-3.47,-11.02,-2.42,-1.87,0.58,-4.85,-31.78,-15.80,-1.00
7165.00,-0.45,-4.66,-11.56,-1.46,-2.17,1.06,-4.85,-31.78,-15.80,-1.00
7179.00,-0.85,-4.30,-10.28,-0.41,-2.49,1.44,-4.99,-26.57,-21.38,-1.00
7191.00,-0.85,-4.30,-10.28,-0.41,-2.49,1.44,-4.99,-26.57,-21.38,-1.00
7203.00,-1.56,-3.20,-9.40,0.59,-2.08,1.68,-4.99,-26.57,-21.38,-1.00
7215.00,-1.56,-3.20,-9.40,0.59,-2.08,1.68,-4.99,-26.57,-21.38,-1.00
7229.00,-1.07,-3.46,-9.85,1.01,-1.53,1.60,-4.99,-26.57,-21.38,-1.00
7241.00,-1.05,-5.00,-8.03,1.37,-1.48,1.48,-4.99,-26.57,-21.38,-1.00
7253.00,-1.05,-5.00,-8.03,1.37,-1.48,1.48,-4.99,-26.57,-21.38,-1.00
7267.00,-2.24,-3.52,-10.23,1.11,-2.34,1.00,-4.99,-26.57,-21.38,-1.00
7279.00,-2.98,-1.41,-8.61,0.84,-2.85,0.81,-4.99,-26.57,-21.38,-1.00
7291.00,-2.98,-1.41,-8.61,0.84,-2.85,0.81,-4.99,-26.57,-21.38,-1.00
7303.00,-2.82,-4.22,-6.16,0.55,-2.94,0.64,-7.65,-26.03,-4.20,-1.00
7318.00,-2.70,-5.87,-8.15,0.68,-2.54,0.61,-7.65,-26.03,-4.20,-1.00
7329.00,-2.70,-5.87,-8.15,0.68,-2.54,0.61,-7.65,-26.03,-4.20,-1.00
7341.00,-3.89,-5.19,-9.51,0.40,-2.47,1.02,-7.65,-26.03,-4.20,-1.00
7353.00,-3.89,-5.19,-9.51,0.40,-2.47,1.02,-7.65,-26.03,-4.20,-1.00
7367.00,-2.71,-5.44,-10.80,0.12,-2.66,1.85,-7.65,-26.03,-4.20,-1.00
7379.00,-1.86,-3.95,-9.67,-0.51,-3.38,2.59,-7.65,-26.03,-4.20,-1.00
7391.00,-1.86,-3.95,-9.67,-0.51,-3.38,2.59,-7.65,-26.03,-4.20,-1.00
7403.00,-4.11,-3.91,-8.17,-0.32,-3.50,2.34,-7.65,-26.03,-4.20,-1.00
7417.00,-4.71,-4.23,-6.78,0.09,-3.41,2.19,-14.07,-24.95,3.39,-1.00
7429.00,-4.71,-4.23,-6.78,0.09,-3.41,2.19,-14.07,-24.95,3.39,-1.00
7441.00,-5.25,-3.17,-7.62,-0.16,-3.05,2.32,-14.07,-24.95,3.39,-1.00
7455.00,-5.25,-3.17,-7.62,-0.16,-3.05,2.32,-14.07,-24.95,3.39,-1.00
7467.00,-7.07,-2.58,-6.44,-0.13,-2.70,1.83,-14.07,-24.95,3.39,-1.00
7479.00,-7.42,-3.47,-3.43,0.49,-1.78,1.11,-14.07,-24.95,3.39,-1.00
7491.00,-7.42,-3.47,-3.43,0.49,-1.78,1.11,-14.07,-24.95,3.39,-1.00
7506.00,-6.69,-2.88,-3.31,0.60,-0.61,0.85,-14.07,-24.95,3.39,-1.00
7517.00,-3.47,-2.38,-7.94,0.47,0.31,0.57,-14.07,-24.95,3.39,-1.00
7529.00,-3.47,-2.38,-7.94,0.47,0.31,0.57,-14.07,-24.95,3.39,-1.00
7541.00,-3.92,-1.87,-8.96,0.63,0.06,0.11,-15.61,-23.34,4.96,-1.00
7555.00,-3.92,-1.87,-8.96,0.63,0.06,0.11,-15.61,-23.34,4.96,-1.00
7567.00,-3.99,-3.88,-8.88,0.94,-0.41,-0.35,-15.61,-23.34,4.96,-1.00
7579.00,-4.46,-5.38,-7.48,0.70,-1.10,0.32,-15.61,-23.34,4.96,-1.00
7591.00,-4.46,-5.38,-7.48,0.70,-1.10,0.32,-15.61,-23.34,4.96,-1.00
7605.00,-4.83,-4.64,-7.68,0.15,-1.43,1.19,-15.61,-23.34,4.96,-1.00
7617.00,-6.65,-4.58,-8.64,0.26,-1.20,1.10,-15.61,-23.34,4.96,-1.00
7629.00,-6.65,-4.58,-8.64,0.26,-1.20,1.10,-15.61,-23.34,4.96,-1.00
7643.00,-6.59,-6.04,-8.75,0.65,-0.73,0.57,-15.61,-23.34,4.96,-1.00
7655.00,-6.59,-6.04,-8.75,0.65,-0.73,0.57,-15.61,-23.34,4.96,-1.00
7667.00,-5.80,-6.72,-9.22,0.06,-0.58,0.47,-15.61,-23.34,4.96,-1.00
7679.00,-4.93,-5.94,-10.10,-0.78,-0.65,0.79,-13.37,-25.49,5.85,-1.00
7693.00,-4.93,-5.94,-10.10,-0.78,-0.65,0.79,-13.37,-25.49,5.85,-1.00
7705.00,-3.68,-5.15,-9.68,-0.97,-0.75,1.04,-13.37,-25.49,5.85,-1.00
7717.00,-2.98,-6.63,-6.76,-1.23,-0.92,0.92,-13.37,-25.49,5.85,-1.00
7729.00,-2.98,-6.63,-6.76,-1.23,-0.92,0.92,-13.37,-25.49,5.85,-1.00
7743.00,-2.28,-3.55,-8.05,-2.74,-1.06,0.98,-13.37,-25.49,5.85,-1.00
7755.00,-2.28,-3.55,-8.05,-2.74,-1.06,0.98,-13.37,-25.49,5.85,-1.00
7767.00,-2.55,-4.50,-8.56,-2.37,-0.96,1.10,-13.37,-25.49,5.85,-1.00
7779.00,-2.83,-7.17,-10.38,-2.29,-1.16,1.09,-13.37,-25.49,5.85,-1.00
7793.00,-2.83,-7.17,-10.38,-2.29,-1.16,1.09,-13.37,-25.49,5.85,-1.00
7805.00,-3.87,-1.92,-9.82,-1.77,-1.59,1.78,-13.65,-21.90,-4.87,-1.00
7817.00,-6.78,6.90,-12.77,-0.02,-1.47,1.72,-13.65,-21.90,-4.87,-1.00
7831.00,-6.78,6.90,-12.77,-0.02,-1.47,1.72,-13.65,-21.90,-4.87,-1.00
7919.00,-6.53,-0.54,-5.74,2.09,-1.06,0.44,-14.77,-28.73,-5.31,-1.00
8009.00,-0.62,-1.25,-13.39,-3.75,-0.24,0.71,-14.77,-28.73,-5.31,-1.00
8097.00,-5.45,-0.96,-6.91,-0.07,-1.55,0.22,-11.56,-17.05,-14.91,-1.00
8111.00,-5.45,-0.96,-6.91,-0.07,-1.55,0.22,-11.56,-17.05,-14.91,-1.00
8124.00,-6.15,-1.69,-8.08,0.12,-0.37,0.01,-11.56,-17.05,-14.91,-1.00
8135.00,-6.15,-1.69,-8.08,0.12,-0.37,0.01,-11.56,-17.05,-14.91,-1.00
8147.00,-5.19,-1.73,-10.16,-0.16,-0.11,0.27,-11.56,-17.05,-14.91,-1.00
8161.00,-3.58,-1.32,-12.18,-0.13,-0.40,0.76,-11.56,-17.05,-14.91,-1.00
8173.00,-3.58,-1.32,-12.18,-0.13,-0.40,0.76,-11.56,-17.05,-14.91,-1.00
8185.00,-2.14,-1.95,-11.71,0.05,-0.82,1.24,-9.46,-18.30,-14.69,-1.00
8199.00,-2.18,-1.93,-11.84,-0.11,-1.46,1.51,-9.46,-18.30,-14.69,-1.00
8211.00,-2.18,-1.93,-11.84,-0.11,-1.46,1.51,-9.46,-18.30,-14.69,-1.00
8223.00,-2.63,-0.97,-12.15,-0.23,-2.28,1.77,-9.46,-18.30,-14.69,-1.00
8235.00,-2.63,-0.97,-12.15,-0.23,-2.28,1.77,-9.46,-18.30,-14.69,-1.00
8250.00,-2.37,-1.30,-11.17,-0.13,-3.10,1.89,-9.46,-18.30,-14.69,-1.00
8261.00,-8.81,4.64,-10.82,-0.14,-3.61,1.94,-9.46,-18.30,-14.69,-1.00
8273.00,-8.81,4.64,-10.82,-0.14,-3.61,1.94,-9.46,-18.30,-14.69,-1.00
8288.00,-5.23,0.16,-6.18,3.17,-2.21,2.10,-9.46,-18.30,-14.69,-1.00
8299.00,-6.04,-0.28,-1.73,1.69,-2.14,1.42,-14.77,-16.15,-6.20,-1.00
8311.00,-6.04,-0.28,-1.73,1.69,-2.14,1.42,-14.77,-16.15,-6.20,-1.00
8323.00,-2.23,-3.62,-3.17,0.77,-0.70,0.43,-14.77,-16.15,-6.20,-1.00
8337.00,-0.74,-1.62,-5.26,-1.17,-0.18,-0.29,-14.77,-16.15,-6.20,-1.00
8349.00,-0.74,-1.62,-5.26,-1.17,-0.18,-0.29,-14.77,-16.15,-6.20,-1.00
8361.00,-3.33,1.03,-7.17,1.93,0.83,-0.54,-14.77,-16.15,-6.20,-1.00
8373.00,-3.33,1.03,-7.17,1.93,0.83,-0.54,-14.77,-16.15,-6.20,-1.00
8387.00,-4.72,-6.59,-16.44,1.32,0.63,-1.03,-14.77,-16.15,-6.20,-1.00
8399.00,-7.93,-11.24,-12.90,-0.14,-1.99,-0.26,-14.77,-16.15,-6.20,-1.00
8411.00,-7.93,-11.24,-12.90,-0.14,-1.99,-0.26,-14.77,-16.15,-6.20,-1.00
8425.00,-4.90,-3.60,-4.75,-0.14,-4.40,0.72,-11.14,-23.34,-7.99,-1.00
8437.00,-5.60,-0.13,-4.45,-0.31,-3.55,0.68,-11.14,-23.34,-7.99,-1.00
8449.00,-5.60,-0.13,-4.45,-0.31,-3.55,0.68,-11.14,-23.34,-7.99,-1.00
8461.00,-3.82,-0.32,-5.85,-0.41,-2.34,-0.09,-11.14,-23.34,-7.99,-1.00
8475.00,-3.82,-0.32,-5.85,-0.41,-2.34,-0.09,-11.14,-23.34,-7.99,-1.00
8487.00,-0.05,-0.52,-8.09,-0.63,-1.18,-0.77,-11.14,-23.34,-7.99,-1.00
8499.00,-4.42,-3.86,-7.08,1.45,-0.70,-0.99,-11.14,-23.34,-7.99,-1.00
8511.00,-4.42,-3.86,-7.08,1.45,-0.70,-0.99,-11.14,-23.34,-7.99,-1.00
8525.00,6.40,-3.47,-20.01,0.89,-0.97,-0.51,-11.14,-23.34,-7.99,-1.00
8537.00,0.92,-2.14,-9.92,5.24,-1.86,1.29,-8.20,-23.34,-7.99,-1.00
8549.00,0.92,-2.14,-9.92,5.24,-1.86,1.29,-8.20,-30.70,1.16,-1.00
8564.00,-4.94,-2.85,-10.07,4.47,-2.93,1.45,-8.20,-30.70,1.16,-1.00
8575.00,-4.94,-2.85,-10.07,4.47,-2.93,1.45,-8.20,-30.70,1.16,-1.00
8587.00,-5.87,-7.11,-5.61,4.91,-2.87,1.47,-8.20,-30.70,1.16,-1.00
8599.00,-7.65,-9.83,-3.42,2.65,-2.59,1.64,-8.20,-30.70,1.16,-1.00
8613.00,-7.65,-9.83,-3.42,2.65,-2.59,1.64,-8.20,-30.70,1.16,-1.00
8625.00,-6.88,-7.14,-3.83,-0.68,-2.41,1.84,-8.20,-30.70,1.16,-1.00
8637.00,-6.88,-7.14,-3.83,-0.68,-2.41,1.84,-8.20,-30.70,1.16,-1.00
8649.00,-7.14,-3.15,-2.74,-0.93,-1.63,1.95,-8.20,-30.70,1.16,-1.00
8663.00,-7.98,-5.61,-4.14,0.11,-0.40,1.65,-8.20,-30.70,1.16,-1.00
8675.00,-7.98,-5.61,-4.14,0.11,-0.40,1.65,-8.20,-30.70,1.16,-1.00
8687.00,-6.48,-6.52,-6.20,1.46,-0.03,1.66,-10.30,-33.40,12.99,-1.00
8699.00,-3.96,-5.50,-9.20,1.26,-0.61,1.85,-10.30,-33.40,12.99,-1.00
8713.00,-3.96,-5.50,-9.20,1.26,-0.61,1.85,-10.30,-33.40,12.99,-1.00
8725.00,-5.00,-4.48,-8.13,1.45,-1.18,2.02,-10.30,-33.40,12.99,-1.00
8737.00,-5.00,-4.48,-8.13,1.45,-1.18,2.02,-10.30,-33.40,12.99,-1.00
8751.00,-5.52,-6.36,-6.46,2.57,-1.21,1.78,-10.30,-33.40,12.99,-1.00
8763.00,-3.63,-8.45,-5.57,1.73,-1.45,1.58,-10.30,-33.40,12.99,-1.00
8775.00,-3.63,-8.45,-5.57,1.73,-1.45,1.58,-10.30,-33.40,12.99,-1.00
8787.00,-5.91,-3.78,-10.41,-1.90,-2.41,1.07,-10.30,-33.40,12.99,-1.00
8801.00,-4.94,-4.06,-6.90,0.52,-2.55,1.06,-12.67,-31.06,22.59,-1.00
8813.00,-4.94,-4.06,-6.90,0.52,-2.55,1.06,-12.67,-31.06,22.59,-1.00
8825.00,-5.84,-7.64,-3.67,2.60,-2.38,1.26,-12.67,-31.06,22.59,-1.00
8837.00,-5.84,-7.64,-3.67,2.60,-2.38,1.26,-12.67,-31.06,22.59,-1.00
8851.00,-6.68,-6.46,-3.24,1.51,-2.29,1.57,-12.67,-31.06,22.59,-1.00
8863.00,-6.45,-4.95,-2.17,0.71,-1.87,1.74,-12.67,-31.06,22.59,-1.00
8875.00,-6.45,-4.95,-2.17,0.71,-1.87,1.74,-12.67,-31.06,22.59,-1.00
8887.00,-6.68,-4.61,-2.74,-0.53,-1.35,1.59,-12.67,-31.06,22.59,-1.00
8901.00,-7.27,-4.37,-6.28,-2.28,-1.20,1.43,-12.67,-31.06,22.59,-1.00
8913.00,-7.27,-4.37,-6.28,-2.28,-1.20,1.43,-12.67,-31.06,22.59,-1.00
8925.00,-8.62,-4.54,-9.96,-3.57,-1.60,1.41,-17.14,-28.91,24.82,-1.00
8939.00,-8.76,-2.65,-7.16,-3.19,-2.05,1.25,-17.14,-28.91,24.82,-1.00
8951.00,-8.76,-2.65,-7.16,-3.19,-2.05,1.25,-17.14,-28.91,24.82,-1.00
8963.00,-6.10,-3.05,-3.30,-2.49,-1.83,0.64,-17.14,-28.91,24.82,-1.00
8975.00,-6.10,-3.05,-3.30,-2.49,-1.83,0.64,-17.14,-28.91,24.82,-1.00
8990.00,-6.63,-5.40,-2.99,-2.32,-1.66,0.28,-17.14,-28.91,24.82,-1.00
9001.00,-7.56,-6.54,-5.09,-2.25,-1.65,0.42,-17.14,-28.91,24.82,-1.00
9013.00,-7.56,-6.54,-5.09,-2.25,-1.65,0.42,-17.14,-28.91,24.82,-1.00
9027.00,-6.26,-4.94,-6.63,-1.90,-1.49,0.77,-17.14,-28.91,24.82,-1.00
9039.00,-6.20,-3.31,-7.87,-1.56,-1.47,1.08,-17.14,-28.91,24.82,-1.00
9051.00,-6.20,-3.31,-7.87,-1.56,-1.47,1.08,-17.14,-28.91,24.82,-1.00
9063.00,-6.49,-2.13,-7.03,-0.89,-1.56,1.16,-15.75,-26.75,14.55,-1.00
9077.00,-6.49,-2.13,-7.03,-0.89,-1.56,1.16,-15.75,-26.75,14.55,-1.00
9089.00,-7.62,-3.73,-6.27,-0.04,-1.58,1.01,-15.75,-26.75,14.55,-1.00
9101.00,-7.30,-3.86,-4.60,0.21,-1.64,0.95,-15.75,-26.75,14.55,-1.00
9113.00,-7.30,-3.86,-4.60,0.21,-1.64,0.95,-15.75,-26.75,14.55,-1.00
9127.00,-8.03,-4.54,-5.29,0.04,-1.49,0.93,-15.75,-26.75,14.55,-1.00
9140.00,-7.28,-3.96,-6.21,-0.25,-1.32,1.02,-15.75,-26.75,14.55,-1.00
9152.00,-7.28,-3.96,-6.21,-0.25,-1.32,1.02,-15.75,-26.75,14.55,-1.00
9166.00,-6.74,-2.92,-7.08,-0.17,-1.29,1.14,-15.75,-26.75,14.55,-1.00
9178.00,-7.72,-2.45,-6.31,0.41,-1.53,1.14,-17.00,-26.21,14.78,-1.00
9190.00,-7.72,-2.45,-6.31,0.41,-1.53,1.14,-17.00,-26.21,14.78,-1.00
9202.00,-8.12,-3.37,-5.32,0.66,-1.61,1.00,-17.00,-26.21,14.78,-1.00
9216.00,-8.12,-3.37,-5.32,0.66,-1.61,1.00,-17.00,-26.21,14.78,-1.00
9228.00,-7.66,-4.06,-5.12,0.59,-1.50,0.93,-17.00,-26.21,14.78,-1.00
9240.00,-7.50,-4.22,-4.90,0.35,-1.40,0.91,-17.00,-26.21,14.78,-1.00
9252.00,-7.50,-4.22,-4.90,0.35,-1.40,0.91,-17.00,-26.21,14.78,-1.00
9267.00,-7.41,-4.29,-5.24,0.08,-1.35,0.88,-17.00,-26.21,14.78,-1.00
9278.00,-6.97,-4.02,-5.76,-0.02,-1.34,0.92,-17.00,-26.21,14.78,-1.00
9290.00,-6.97,-4.02,-5.76,-0.02,-1.34,0.92,-17.00,-26.21,14.78,-1.00
9302.00,-7.02,-3.80,-6.06,-0.00,-1.37,1.03,-17.28,-25.13,17.90,-1.00
9316.00,-7.02,-3.80,-6.06,-0.00,-1.37,1.03,-17.28,-25.13,17.90,-1.00
9328.00,-7.11,-3.56,-6.08,0.06,-1.43,1.11,-17.28,-25.13,17.90,-1.00
9340.00,-7.58,-3.40,-5.59,0.26,-1.52,1.13,-17.28,-25.13,17.90,-1.00
9354.00,-7.58,-3.40,-5.59,0.26,-1.52,1.13,-17.28,-25.13,17.90,-1.00
9366.00,-8.03,-3.62,-4.24,0.35,-1.42,0.98,-17.28,-25.13,17.90,-1.00
9378.00,-7.63,-4.31,-4.93,0.14,-1.21,0.89,-17.28,-25.13,17.90,-1.00
9390.00,-7.63,-4.31,-4.93,0.14,-1.21,0.89,-17.28,-25.13,17.90,-1.00
9404.00,-7.49,-3.83,-5.79,-0.20,-1.16,0.94,-17.28,-25.13,17.90,-1.00
9416.00,-7.49,-3.83,-5.79,-0.20,-1.16,0.94,-17.28,-25.13,17.90,-1.00
9428.00,-7.54,-3.61,-5.76,-0.29,-1.22,0.94,-16.58,-25.67,19.02,-1.00
9440.00,-7.78,-3.92,-4.98,-0.30,-1.25,0.94,-16.58,-25.67,19.02,-1.00
9455.00,-7.78,-3.92,-4.98,-0.30,-1.25,0.94,-16.58,-25.67,19.02,-1.00
9466.00,-7.93,-4.58,-4.86,-0.46,-1.21,0.98,-16.58,-25.67,19.02,-1.00
9478.00,-8.11,-4.76,-5.42,-0.70,-1.24,1.14,-16.58,-25.67,19.02,-1.00
9492.00,-8.11,-4.76,-5.42,-0.70,-1.24,1.14,-16.58,-25.67,19.02,-1.00
9504.00,-7.79,-3.10,-6.04,-0.58,-1.37,1.32,-16.58,-25.67,19.02,-1.00
9516.00,-7.79,-3.10,-6.04,-0.58,-1.37,1.32,-16.58,-25.67,19.02,-1.00
9528.00,-7.67,-2.09,-6.14,-0.11,-1.47,1.23,-16.58,-25.67,19.02,-1.00
9542.00,-7.23,-2.54,-5.76,0.38,-1.49,0.93,-16.58,-25.67,19.02,-1.00
9554.00,-7.23,-2.54,-5.76,0.38,-1.49,0.93,-16.58,-25.67,19.02,-1.00
9566.00,-7.11,-3.29,-5.94,0.43,-1.48,0.65,-17.00,-24.05,18.79,-1.00
9578.00,-7.11,-3.29,-5.94,0.43,-1.48,0.65,-17.00,-24.05,18.79,-1.00
9592.00,-7.24,-3.27,-6.02,0.56,-1.41,0.54,-17.00,-24.05,18.79,-1.00
9604.00,-7.30,-3.70,-5.60,0.67,-1.33,0.42,-17.00,-24.05,18.79,-1.00
9616.00,-7.30,-3.70,-5.60,0.67,-1.33,0.42,-17.00,-24.05,18.79,-1.00
9630.00,-7.38,-4.95,-4.30,0.40,-1.22,0.50,-17.00,-24.05,18.79,-1.00
9642.00,-7.59,-4.63,-4.59,-0.02,-1.05,0.76,-17.00,-24.05,18.79,-1.00
9654.00,-7.59,-4.63,-4.59,-0.02,-1.05,0.76,-17.00,-24.05,18.79,-1.00
9666.00,-7.92,-4.53,-4.93,-0.27,-0.90,1.01,-17.00,-24.05,18.79,-1.00
9680.00,-8.34,-4.83,-4.85,-0.52,-0.83,1.27,-16.58,-26.39,19.91,-1.00
9692.00,-8.34,-4.83,-4.85,-0.52,-0.83,1.27,-16.58,-26.39,19.91,-1.00
9704.00,-7.88,-4.48,-5.97,-0.65,-0.86,1.46,-16.58,-26.39,19.91,-1.00
9716.00,-7.88,-4.48,-5.97,-0.65,-0.86,1.46,-16.58,-26.39,19.91,-1.00
9731.00,-7.52,-3.19,-6.06,-0.47,-1.04,1.51,-16.58,-26.39,19.91,-1.00
9742.00,-8.05,-3.00,-5.83,-0.24,-1.29,1.37,-16.58,-26.39,19.91,-1.00
9754.00,-8.05,-3.00,-5.83,-0.24,-1.29,1.37,-16.58,-26.39,19.91,-1.00
9768.00,-8.17,-1.67,-5.40,-0.14,-1.51,1.18,-16.58,-26.39,19.91,-1.00
9780.00,-11.36,-1.32,-4.73,0.23,-1.59,0.82,-16.58,-26.39,19.91,-1.00
9792.00,-11.36,-1.32,-4.73,0.23,-1.59,0.82,-16.58,-26.39,19.91,-1.00
9804.00,-7.07,-4.79,-2.62,-0.00,-1.04,0.11,-17.70,-26.03,19.02,-1.00
9818.00,-7.07,-4.79,-2.62,-0.00,-1.04,0.11,-17.70,-26.03,19.02,-1.00
9830.00,-4.33,-5.40,-7.17,-0.95,-0.78,0.24,-17.70,-26.03,19.02,-1.00
9842.00,-4.02,-3.59,-8.95,-0.76,-1.18,0.83,-17.70,-26.03,19.02,-1.00
9854.00,-4.02,-3.59,-8.95,-0.76,-1.18,0.83,-17.70,-26.03,19.02,-1.00
9868.00,-5.16,-3.77,-7.43,0.06,-1.73,1.08,-17.70,-26.03,19.02,-1.00
9880.00,-6.71,-3.94,-5.12,0.59,-2.05,1.26,-17.70,-26.03,19.02,-1.00
9892.00,-6.71,-3.94,-5.12,0.59,-2.05,1.26,-17.70,-26.03,19.02,-1.00
9907.00,-9.25,-3.43,-2.51,0.40,-1.67,1.15,-17.70,-26.03,19.02,-1.00
9918.00,-9.25,-3.43,-2.51,0.40,-1.67,1.15,-17.70,-26.03,19.02,-1.00
9930.00,-7.96,-2.52,-5.37,-0.04,-1.04,0.99,-17.70,-26.39,18.12,-1.00
9942.00,-7.49,-2.64,-6.14,0.04,-0.93,0.93,-17.70,-26.39,18.12,-1.00
9956.00,-7.49,-2.64,-6.14,0.04,-0.93,0.93,-17.70,-26.39,18.12,-1.00
9968.00,-7.91,-4.37,-5.21,0.07,-0.95,0.92,-17.70,-26.39,18.12,-1.00
9980.00,-8.24,-4.91,-4.71,-0.02,-0.94,1.20,-17.70,-26.39,18.12,-1.00
9992.00,-8.24,-4.91,-4.71,-0.02,-0.94,1.20,-17.70,-26.39,18.12,-1.00
10006.00,-8.12,-4.33,-4.98,-0.05,-0.93,1.55,-17.70,-26.39,18.12,-1.00
10018.00,-8.12,-4.33,-4.98,-0.05,-0.93,1.55,-17.70,-26.39,18.12,-1.00
10030.00,-7.78,-3.27,-5.60,-0.22,-1.07,1.60,-17.70,-26.39,18.12,-1.00
10044.00,-7.67,-1.35,-6.23,-0.34,-1.30,1.31,-17.70,-26.39,18.12,-1.00
10056.00,-7.67,-1.35,-6.23,-0.34,-1.30,1.31,-17.70,-26.39,18.12,-1.00
10068.00,-7.63,-1.24,-5.59,-0.05,-1.55,0.85,-19.38,-23.87,18.12,-1.00
10080.00,-7.19,-3.08,-6.15,0.41,-1.55,0.37,-19.38,-23.87,18.12,-1.00
10094.00,-7.19,-3.08,-6.15,0.41,-1.55,0.37,-19.38,-23.87,18.12,-1.00
10106.00,-7.51,-4.41,-5.34,0.35,-1.42,0.43,-19.38,-23.87,18.12,-1.00
10118.00,-7.51,-4.41,-5.34,0.35,-1.42,0.43,-19.38,-23.87,18.12,-1.00
10130.00,-7.74,-4.59,-4.28,0.00,-1.23,0.78,-19.38,-23.87,18.12,-1.00
10144.00,-7.33,-4.79,-4.92,-0.20,-0.98,1.10,-19.38,-23.87,18.12,-1.00
10156.00,-7.33,-4.79,-4.92,-0.20,-0.98,1.10,-19.38,-23.87,18.12,-1.00
10168.00,-8.12,-3.09,-6.18,-0.28,-0.82,1.49,-19.38,-23.87,18.12,-1.00
10183.00,-8.16,-3.08,-5.41,-0.04,-0.96,1.50,-17.42,-25.31,17.68,-1.00
10272.00,-7.51,-2.77,-5.77,0.58,-1.62,0.53,-17.42,-25.31,17.68,-1.00
10360.00,-8.15,-2.72,-5.98,-0.83,-0.79,1.61,-17.56,-25.49,22.36,-1.00
10450.00,-7.57,-2.24,-6.35,0.50,-1.63,0.49,-19.52,-23.34,17.90,-1.00
10463.00,-7.56,-4.11,-4.69,1.06,-1.70,0.34,-19.52,-23.34,17.90,-1.00
10475.00,-7.56,-4.11,-4.69,1.06,-1.70,0.34,-19.52,-23.34,17.90,-1.00
10487.00,-7.68,-5.34,-3.68,0.49,-1.49,0.58,-19.52,-23.34,17.90,-1.00
10501.00,-8.14,-4.89,-3.27,-0.32,-1.14,1.00,-19.52,-23.34,17.90,-1.00
10513.00,-8.14,-4.89,-3.27,-0.32,-1.14,1.00,-19.52,-23.34,17.90,-1.00
10525.00,-7.77,-5.44,-3.15,-0.85,-0.74,1.40,-19.52,-23.34,17.90,-1.00
10537.00,-7.77,-5.44,-3.15,-0.85,-0.74,1.40,-19.52,-23.34,17.90,-1.00
10551.00,-8.58,-1.67,-6.20,-1.26,-0.40,1.88,-19.52,-23.34,17.90,-1.00
10563.00,-14.20,2.94,-9.14,-1.38,-0.82,1.68,-17.84,-23.34,15.67,-1.00
10575.00,-14.20,2.94,-9.14,-1.38,-0.82,1.68,-17.84,-23.34,15.67,-1.00
10587.00,-14.15,4.87,-3.13,-1.01,-1.21,0.49,-17.84,-23.34,15.67,-1.00
10601.00,-12.11,-1.02,-3.45,-0.22,-0.57,-1.46,-17.84,-23.34,15.67,-1.00
10613.00,-12.11,-1.02,-3.45,-0.22,-0.57,-1.46,-17.84,-23.34,15.67,-1.00
10625.00,-7.21,-1.67,-4.63,-0.54,-0.65,-2.47,-17.84,-23.34,15.67,-1.00
10639.00,-7.21,-1.67,-4.63,-0.54,-0.65,-2.47,-17.84,-23.34,15.67,-1.00
10651.00,-2.37,-4.56,-2.77,-0.06,-1.17,-2.61,-17.84,-23.34,15.67,-1.00
10663.00,4.07,-9.70,-6.57,0.42,-0.73,-1.68,-17.84,-23.34,15.67,-1.00
10675.00,4.07,-9.70,-6.57,0.42,-0.73,-1.68,-17.84,-23.34,15.67,-1.00
10690.00,4.08,-5.87,-7.58,0.74,-0.44,0.59,-10.58,-32.32,10.31,-1.00
10701.00,-1.47,-6.63,-13.13,1.66,0.16,2.05,-10.58,-32.32,10.31,-1.00
10713.00,-1.47,-6.63,-13.13,1.66,0.16,2.05,-10.58,-32.32,10.31,-1.00
10727.00,-6.54,-6.03,-15.42,2.17,0.14,2.50,-10.58,-32.32,10.31,-1.00
10739.00,-6.54,-6.03,-15.42,2.17,0.14,2.50,-10.58,-32.32,10.31,-1.00
10751.00,-4.96,-1.85,-6.97,2.08,-1.05,2.49,-10.58,-32.32,10.31,-1.00
10763.00,-8.82,-3.73,-5.73,2.71,-1.75,2.13,-10.58,-32.32,10.31,-1.00
10777.00,-8.82,-3.73,-5.73,2.71,-1.75,2.13,-10.58,-32.32,10.31,-1.00
10789.00,-9.63,-3.97,-1.69,2.54,-1.99,1.77,-10.58,-32.32,10.31,-1.00
10801.00,-9.68,-5.90,-2.34,1.74,-1.70,1.44,-16.03,-31.78,23.48,-1.00
10813.00,-9.68,-5.90,-2.34,1.74,-1.70,1.44,-16.03,-31.78,23.48,-1.00
10827.00,-9.00,-4.20,-2.58,0.80,-1.52,1.39,-16.03,-31.78,23.48,-1.00
10839.00,-9.00,-4.20,-2.58,0.80,-1.52,1.39,-16.03,-31.78,23.48,-1.00
10851.00,-8.02,-4.22,-4.57,0.54,-1.31,1.17,-16.03,-31.78,23.48,-1.00
10865.00,-7.38,-5.23,-4.66,0.41,-1.36,0.99,-16.03,-31.78,23.48,-1.00
10877.00,-7.38,-5.23,-4.66,0.41,-1.36,0.99,-16.03,-31.78,23.48,-1.00
10889.00,-7.27,-5.49,-4.86,0.11,-1.45,1.01,-16.03,-31.78,23.48,-1.00
10901.00,-7.02,-5.11,-4.91,-0.08,-1.53,1.11,-16.03,-31.78,23.48,-1.00
10915.00,-7.02,-5.11,-4.91,-0.08,-1.53,1.11,-16.03,-31.78,23.48,-1.00
10927.00,-7.98,-4.77,-4.20,-0.01,-1.57,1.15,-16.03,-31.78,23.48,-1.00
10941.00,-7.39,-5.35,-4.04,-0.01,-1.48,1.05,-16.03,-29.63,27.94,-1.00
10953.00,-7.39,-5.35,-4.04,-0.01,-1.48,1.05,-16.03,-29.63,27.94,-1.00
10967.00,-6.97,-5.21,-4.51,-0.15,-1.43,1.05,-16.03,-29.63,27.94,-1.00
10979.00,-6.97,-5.21,-4.51,-0.15,-1.43,1.05,-16.03,-29.63,27.94,-1.00
10991.00,-8.83,-4.34,-4.31,-0.13,-1.44,1.08,-16.03,-29.63,27.94,-1.00
11005.00,-7.72,-5.03,-4.45,-0.14,-1.28,0.90,-16.03,-29.63,27.94,-1.00
11017.00,-7.72,-5.03,-4.45,-0.14,-1.28,0.90,-16.03,-29.63,27.94,-1.00
11029.00,-7.53,-4.68,-4.57,-0.28,-1.17,0.92,-16.03,-29.63,27.94,-1.00
11041.00,-7.70,-4.93,-4.57,-0.43,-1.09,0.97,-16.03,-29.63,27.94,-1.00
11055.00,-7.70,-4.93,-4.57,-0.43,-1.09,0.97,-16.03,-29.63,27.94,-1.00
11067.00,-7.74,-5.72,-4.38,-0.76,-0.98,1.12,-15.47,-29.63,25.27,-1.00
11079.00,-7.74,-5.72,-4.38,-0.76,-0.98,1.12,-15.47,-29.63,25.27,-1.00
11092.00,-7.66,-5.34,-4.37,-1.12,-0.90,1.41,-15.47,-29.63,25.27,-1.00
11105.00,-7.39,-3.99,-4.99,-1.11,-0.94,1.51,-15.47,-29.63,25.27,-1.00
11117.00,-7.39,-3.99,-4.99,-1.11,-0.94,1.51,-15.47,-29.63,25.27,-1.00
11129.00,-7.10,-4.29,-5.69,-0.68,-1.12,1.31,-15.47,-29.63,25.27,-1.00
11143.00,-7.49,-2.47,-6.48,-0.25,-1.35,1.08,-15.47,-29.63,25.27,-1.00
11155.00,-7.49,-2.47,-6.48,-0.25,-1.35,1.08,-15.47,-29.63,25.27,-1.00
11167.00,-7.48,-2.40,-6.10,0.34,-1.69,0.65,-15.47,-29.63,25.27,-1.00
11179.00,-7.48,-2.40,-6.10,0.34,-1.69,0.65,-15.47,-29.63,25.27,-1.00
11193.00,-7.26,-4.97,-5.10,0.93,-1.82,0.32,-16.17,-28.01,24.60,-1.00
11205.00,-7.43,-5.86,-3.78,0.51,-1.67,0.44,-16.17,-28.01,24.60,-1.00
11217.00,-7.43,-5.86,-3.78,0.51,-1.67,0.44,-16.17,-28.01,24.60,-1.00
11231.00,-10.20,-5.60,-3.10,-0.19,-1.29,0.78,-16.17,-28.01,24.60,-1.00
11244.00,-8.16,-4.67,-2.57,-0.82,-0.51,0.77,-16.17,-28.01,24.60,-1.00
11256.00,-8.16,-4.67,-2.57,-0.82,-0.51,0.77,-16.17,-28.01,24.60,-1.00
11268.00,-4.90,-4.29,-6.91,-1.29,-0.25,0.78,-16.17,-28.01,24.60,-1.00
11282.00,-4.95,-3.91,-7.79,-0.81,-0.72,1.03,-16.17,-28.01,24.60,-1.00
11294.00,-4.95,-3.91,-7.79,-0.81,-0.72,1.03,-16.17,-28.01,24.60,-1.00
11306.00,-5.78,-4.78,-6.15,-0.02,-1.21,1.12,-16.17,-29.45,19.24,-1.00
11318.00,-5.78,-4.78,-6.15,-0.02,-1.21,1.12,-16.17,-29.45,19.24,-1.00
11332.00,-6.91,-5.07,-4.78,0.30,-1.51,1.21,-16.17,-29.45,19.24,-1.00
11344.00,-6.78,-4.82,-5.46,0.36,-1.61,1.36,-16.17,-29.45,19.24,-1.00
11356.00,-6.78,-4.82,-5.46,0.36,-1.61,1.36,-16.17,-29.45,19.24,-1.00
11371.00,-9.91,-3.42,-2.63,0.42,-1.66,1.44,-16.17,-29.45,19.24,-1.00
11382.00,-8.26,-4.79,-4.36,0.01,-1.32,1.04,-16.17,-29.45,19.24,-1.00
11394.00,-8.26,-4.79,-4.36,0.01,-1.32,1.04,-16.17,-29.45,19.24,-1.00
11406.00,-7.74,-4.20,-5.25,-0.32,-1.31,1.05,-16.17,-29.45,19.24,-1.00
11420.00,-7.74,-4.20,-5.25,-0.32,-1.31,1.05,-16.17,-29.45,19.24,-1.00
11432.00,-7.19,-3.74,-5.70,-0.30,-1.42,0.99,-16.17,-29.45,19.24,-1.00
11444.00,-7.03,-3.65,-5.65,-0.24,-1.41,0.88,-16.45,-28.73,21.03,-1.00
11458.00,-7.03,-3.65,-5.65,-0.24,-1.41,0.88,-16.45,-28.73,21.03,-1.00
11470.00,-7.17,-3.73,-5.67,-0.06,-1.38,0.77,-16.45,-28.73,21.03,-1.00
11482.00,-7.36,-4.05,-4.96,0.28,-1.34,0.67,-16.45,-28.73,21.03,-1.00
11494.00,-7.36,-4.05,-4.96,0.28,-1.34,0.67,-16.45,-28.73,21.03,-1.00
11509.00,-7.51,-4.98,-5.10,0.33,-1.19,0.67,-16.45,-28.73,21.03,-1.00
11521.00,-7.69,-5.65,-4.66,0.18,-0.99,0.87,-16.45,-28.73,21.03,-1.00
11533.00,-7.69,-5.65,-4.66,0.18,-0.99,0.87,-16.45,-28.73,21.03,-1.00
11545.00,-8.13,-4.61,-4.91,-0.11,-0.89,1.14,-16.45,-28.73,21.03,-1.00
11560.00,-8.13,-4.61,-4.91,-0.11,-0.89,1.14,-16.45,-28.73,21.03,-1.00
11571.00,-8.21,-4.03,-4.65,-0.25,-0.93,1.28,-17.14,-28.91,23.03,-1.00
11583.00,-7.98,-4.81,-4.53,-0.39,-1.01,1.29,-17.14,-28.91,23.03,-1.00
11597.00,-7.98,-4.81,-4.53,-0.39,-1.01,1.29,-17.14,-28.91,23.03,-1.00
11609.00,-7.83,-4.13,-4.96,-0.58,-1.17,1.29,-17.14,-28.91,23.03,-1.00
11621.00,-7.89,-2.92,-5.58,-0.37,-1.38,1.16,-17.14,-28.91,23.03,-1.00
11633.00,-7.89,-2.92,-5.58,-0.37,-1.38,1.16,-17.14,-28.91,23.03,-1.00
11647.00,-7.31,-3.09,-5.75,-0.02,-1.57,0.86,-17.14,-28.91,23.03,-1.00
11659.00,-7.31,-3.09,-5.75,-0.02,-1.57,0.86,-17.14,-28.91,23.03,-1.00
11671.00,-7.24,-4.36,-5.59,0.03,-1.55,0.68,-17.14,-28.91,23.03,-1.00
11683.00,-7.17,-4.71,-4.96,-0.05,-1.45,0.76,-16.31,-27.83,21.25,-1.00
11697.00,-7.17,-4.71,-4.96,-0.05,-1.45,0.76,-16.31,-27.83,21.25,-1.00
11709.00,-7.53,-4.37,-4.86,-0.12,-1.26,0.93,-16.31,-27.83,21.25,-1.00
11721.00,-7.30,-4.97,-4.76,-0.17,-1.11,1.06,-16.31,-27.83,21.25,-1.00
11735.00,-7.30,-4.97,-4.76,-0.17,-1.11,1.06,-16.31,-27.83,21.25,-1.00
11747.00,-7.31,-4.40,-5.50,-0.32,-0.91,1.27,-16.31,-27.83,21.25,-1.00
11759.00,-7.31,-4.40,-5.50,-0.32,-0.91,1.27,-16.31,-27.83,21.25,-1.00
11771.00,-7.54,-3.55,-5.48,-0.42,-0.88,1.34,-16.31,-27.83,21.25,-1.00
11785.00,-7.87,-3.38,-5.12,-0.35,-0.99,1.22,-16.31,-27.83,21.25,-1.00
11797.00,-7.87,-3.38,-5.12,-0.35,-0.99,1.22,-16.31,-27.83,21.25,-1.00
11809.00,-7.62,-4.10,-5.28,-0.29,-1.13,1.03,-17.28,-26.93,17.90,-1.00
11824.00,-8.04,-3.02,-5.61,-0.38,-1.28,0.90,-17.28,-26.93,17.90,-1.00
11835.00,-8.04,-3.02,-5.61,-0.38,-1.28,0.90,-17.28,-26.93,17.90,-1.00
11847.00,-7.71,-3.00,-5.64,-0.14,-1.48,0.67,-17.28,-26.93,17.90,-1.00
11859.00,-7.71,-3.00,-5.64,-0.14,-1.48,0.67,-17.28,-26.93,17.90,-1.00
11873.00,-7.29,-4.50,-5.22,0.08,-1.54,0.56,-17.28,-26.93,17.90,-1.00
11885.00,-7.45,-4.52,-5.15,-0.08,-1.40,0.75,-17.28,-26.93,17.90,-1.00
11897.00,-7.45,-4.52,-5.15,-0.08,-1.40,0.75,-17.28,-26.93,17.90,-1.00
11909.00,-7.59,-3.86,-5.03,-0.26,-1.27,0.96,-17.28,-26.93,17.90,-1.00
11923.00,-7.59,-3.76,-5.53,-0.42,-1.16,1.08,-17.28,-26.93,17.90,-1.00
11935.00,-7.59,-3.76,-5.53,-0.42,-1.16,1.08,-17.28,-26.93,17.90,-1.00
11947.00,-7.53,-4.19,-5.30,-0.35,-1.06,1.25,-17.14,-27.83,19.46,-1.00
11961.00,-7.78,-3.82,-4.82,-0.29,-0.96,1.39,-17.14,-27.83,19.46,-1.00
11973.00,-7.78,-3.82,-4.82,-0.29,-0.96,1.39,-17.14,-27.83,19.46,-1.00
11985.00,-8.00,-3.17,-5.28,-0.25,-0.96,1.34,-17.14,-27.83,19.46,-1.00
11997.00,-8.00,-3.17,-5.28,-0.25,-0.96,1.34,-17.14,-27.83,19.46,-1.00
12012.00,-8.76,-2.69,-6.17,-0.18,-1.08,1.16,-17.14,-27.83,19.46,-1.00
12023.00,-10.08,-1.80,-3.03,-0.27,-1.12,0.75,-17.14,-27.83,19.46,-1.00
12035.00,-10.08,-1.80,-3.03,-0.27,-1.12,0.75,-17.14,-27.83,19.46,-1.00
12049.00,-5.59,-4.24,-6.53,-0.49,-0.86,0.26,-17.14,-27.83,19.46,-1.00
12061.00,-4.98,-3.86,-8.77,-0.55,-1.28,0.60,-16.17,-27.65,15.22,-1.00
12073.00,-4.98,-3.86,-8.77,-0.55,-1.28,0.60,-16.17,-27.65,15.22,-1.00
12085.00,-4.09,-4.25,-8.61,0.10,-1.68,1.02,-16.17,-27.65,15.22,-1.00
12099.00,-4.09,-4.25,-8.61,0.10,-1.68,1.02,-16.17,-27.65,15.22,-1.00
12111.00,-11.20,-3.54,-1.98,0.60,-2.05,1.23,-16.17,-27.65,15.22,-1.00
12123.00,-8.17,-4.54,-3.88,0.22,-1.40,0.95,-16.17,-27.65,15.22,-1.00
12135.00,-8.17,-4.54,-3.88,0.22,-1.40,0.95,-16.17,-27.65,15.22,-1.00
12149.00,-7.54,-2.00,-6.53,-0.03,-1.07,1.06,-16.17,-27.65,15.22,-1.00
12161.00,-7.37,-3.09,-5.45,0.21,-1.05,0.98,-16.17,-27.65,15.22,-1.00
12173.00,-7.37,-3.09,-5.45,0.21,-1.05,0.98,-16.17,-27.65,15.22,-1.00
12187.00,-7.87,-5.10,-4.44,0.14,-0.98,1.03,-17.28,-26.93,17.01,-1.00
12199.00,-7.87,-5.10,-4.44,0.14,-0.98,1.03,-17.28,-26.93,17.01,-1.00
12211.00,-8.03,-4.11,-4.85,-0.09,-0.96,1.31,-17.28,-26.93,17.01,-1.00
12223.00,-7.67,-3.66,-5.82,-0.08,-1.06,1.36,-17.28,-26.93,17.01,-1.00
12237.00,-7.67,-3.66,-5.82,-0.08,-1.06,1.36,-17.28,-26.93,17.01,-1.00
12249.00,-7.84,-2.80,-5.58,-0.12,-1.26,1.29,-17.28,-26.93,17.01,-1.00
12261.00,-7.84,-2.80,-5.58,-0.12,-1.26,1.29,-17.28,-26.93,17.01,-1.00
12273.00,-7.70,-1.11,-7.23,-0.23,-1.48,1.00,-17.28,-26.93,17.01,-1.00
12288.00,-7.43,-3.12,-5.42,0.18,-1.59,0.64,-17.28,-26.93,17.01,-1.00
12299.00,-7.43,-3.12,-5.42,0.18,-1.59,0.64,-17.28,-26.93,17.01,-1.00
12311.00,-7.54,-4.03,-4.48,0.32,-1.46,0.64,-16.03,-26.39,17.23,-1.00
12325.00,-7.71,-4.57,-4.05,0.18,-1.21,0.81,-16.03,-26.39,17.23,-1.00
12337.00,-7.71,-4.57,-4.05,0.18,-1.21,0.81,-16.03,-26.39,17.23,-1.00
12349.00,-7.51,-4.66,-5.34,-0.12,-0.95,1.07,-16.03,-26.39,17.23,-1.00
12361.00,-7.51,-4.66,-5.34,-0.12,-0.95,1.07,-16.03,-26.39,17.23,-1.00
12375.00,-7.71,-3.46,-5.73,-0.27,-0.91,1.31,-16.03,-26.39,17.23,-1.00
12387.00,-7.97,-2.93,-5.51,-0.21,-1.01,1.30,-16.03,-26.39,17.23,-1.00
12399.00,-7.97,-2.93,-5.51,-0.21,-1.01,1.30,-16.03,-26.39,17.23,-1.00
12413.00,-7.92,-3.71,-5.49,-0.19,-1.14,1.14,-16.03,-26.39,17.23,-1.00
12425.00,-7.78,-2.15,-6.66,-0.20,-1.29,1.02,-16.03,-26.39,17.23,-1.00
12437.00,-7.78,-2.15,-6.66,-0.20,-1.29,1.02,-16.03,-26.39,17.23,-1.00
12449.00,-7.74,-2.72,-5.90,0.21,-1.47,0.83,-17.70,-25.31,17.23,-1.00
12464.00,-7.45,-3.37,-5.16,0.35,-1.47,0.75,-17.70,-25.31,17.23,-1.00
12552.00,-7.92,-3.13,-5.50,-0.20,-0.99,1.43,-17.70,-25.31,17.23,-1.00
12643.00,-7.06,-1.76,-6.12,-0.20,-1.66,0.23,-18.96,-25.85,17.45,-1.00
12730.00,-7.73,-6.69,-4.24,-0.72,-0.99,1.16,-16.86,-27.47,17.68,-1.00
12745.00,-7.33,-6.26,-3.34,-1.41,-0.69,1.91,-16.86,-27.47,17.68,-1.00
12756.00,-7.33,-6.26,-3.34,-1.41,-0.69,1.91,-16.86,-27.47,17.68,-1.00
12769.00,-7.76,-2.54,-4.63,-2.25,-0.48,2.49,-16.86,-27.47,17.68,-1.00
12783.00,-7.74,0.91,-7.84,-2.13,-0.71,2.35,-16.86,-27.47,17.68,-1.00
12795.00,-7.74,0.91,-7.84,-2.13,-0.71,2.35,-16.86,-27.47,17.68,-1.00
12807.00,-8.28,2.44,-9.40,-1.03,-1.15,1.34,-18.68,-23.70,11.65,-1.00
12819.00,-8.28,2.44,-9.40,-1.03,-1.15,1.34,-18.68,-23.70,11.65,-1.00
12833.00,-10.53,0.85,-3.68,0.87,-1.38,0.28,-18.68,-23.70,11.65,-1.00
12845.00,-6.65,-2.32,-6.20,1.78,-0.86,-0.68,-18.68,-23.70,11.65,-1.00
12857.00,-6.65,-2.32,-6.20,1.78,-0.86,-0.68,-18.68,-23.70,11.65,-1.00
12869.00,-3.63,-6.36,-5.70,2.23,-1.07,-0.59,-18.68,-23.70,11.65,-1.00
12883.00,-4.39,-8.00,-6.69,0.95,-1.51,0.30,-18.68,-23.70,11.65,-1.00
12895.00,-4.39,-8.00,-6.69,0.95,-1.51,0.30,-18.68,-23.70,11.65,-1.00
12907.00,-7.23,-5.13,-5.04,0.13,-1.93,1.47,-18.68,-23.70,11.65,-1.00
12922.00,-7.23,-5.13,-5.04,0.13,-1.93,1.47,-18.68,-23.70,11.65,-1.00
12934.00,-10.40,-3.54,-1.94,-0.39,-1.98,1.76,-18.68,-23.70,11.65,-1.00
12946.00,-7.95,-3.57,-4.60,-0.79,-1.44,1.67,-17.42,-25.31,15.45,-1.00
12958.00,-7.95,-3.57,-4.60,-0.79,-1.44,1.67,-17.42,-25.31,15.45,-1.00
12972.00,-7.19,-0.64,-7.03,-0.81,-1.29,1.81,-17.42,-25.31,15.45,-1.00
12984.00,-9.44,1.29,-6.46,-0.41,-1.34,1.33,-17.42,-25.31,15.45,-1.00
12996.00,-9.44,1.29,-6.46,-0.41,-1.34,1.33,-17.42,-25.31,15.45,-1.00
13010.00,-9.97,-0.40,-2.44,0.26,-0.98,0.27,-17.42,-25.31,15.45,-1.00
13022.00,-7.74,-3.38,-5.38,0.17,-0.35,-0.57,-17.42,-25.31,15.45,-1.00
13034.00,-7.74,-3.38,-5.38,0.17,-0.35,-0.57,-17.42,-25.31,15.45,-1.00
13046.00,-3.58,-3.98,-5.95,0.36,-0.12,-0.73,-17.42,-25.31,15.45,-1.00
13060.00,-3.58,-3.98,-5.95,0.36,-0.12,-0.73,-17.42,-25.31,15.45,-1.00
13072.00,0.14,-8.33,-10.13,0.60,-0.58,-0.27,-16.03,-28.19,14.55,-1.00
13084.00,-3.48,-4.72,-8.72,0.79,-1.92,1.25,-16.03,-28.19,14.55,-1.00
13096.00,-3.48,-4.72,-8.72,0.79,-1.92,1.25,-16.03,-28.19,14.55,-1.00
13110.00,-23.31,-1.73,-2.94,1.54,-2.84,1.88,-16.03,-28.19,14.55,-1.00
13122.00,-10.58,-4.76,0.50,0.70,-2.12,1.06,-16.03,-28.19,14.55,-1.00
13134.00,-10.58,-4.76,0.50,0.70,-2.12,1.06,-16.03,-28.19,14.55,-1.00
13148.00,-9.57,-2.31,-6.58,-0.25,-1.32,1.03,-16.03,-28.19,14.55,-1.00
13160.00,-9.57,-2.31,-6.58,-0.25,-1.32,1.03,-16.03,-28.19,14.55,-1.00
13172.00,-17.13,0.25,-2.46,-0.45,-1.48,0.82,-16.03,-28.19,14.55,-1.00
13184.00,-13.79,-1.10,-2.52,-1.08,-0.85,-0.49,-15.47,-28.19,18.12,-1.00
13198.00,-13.79,-1.10,-2.52,-1.08,-0.85,-0.49,-15.47,-28.19,18.12,-1.00
13210.00,-7.16,-2.48,0.31,-1.06,-0.55,-1.37,-15.47,-28.19,18.12,-1.00
13222.00,-7.16,-2.48,0.31,-1.06,-0.55,-1.37,-15.47,-28.19,18.12,-1.00
13236.00,-5.42,-5.41,-2.49,-0.98,-0.08,-1.33,-15.47,-28.19,18.12,-1.00
13248.00,0.60,-6.20,-6.89,-1.10,-0.02,-0.46,-15.47,-28.19,18.12,-1.00
13260.00,0.60,-6.20,-6.89,-1.10,-0.02,-0.46,-15.47,-28.19,18.12,-1.00
13272.00,1.32,-3.91,-8.24,-0.52,-0.26,0.99,-15.47,-28.19,18.12,-1.00
13286.00,-3.23,-4.39,-12.99,0.98,-0.34,1.76,-15.47,-28.19,18.12,-1.00
13298.00,-3.23,-4.39,-12.99,0.98,-0.34,1.76,-15.47,-28.19,18.12,-1.00
13310.00,-4.69,-4.98,-15.52,2.45,-0.42,1.83,-15.47,-28.19,18.12,-1.00
13322.00,-4.69,-4.98,-15.52,2.45,-0.42,1.83,-15.47,-28.19,18.12,-1.00
13337.00,-3.12,-4.50,-8.00,3.01,-1.38,1.71,-13.09,-33.40,13.88,-1.00
13348.00,-6.15,-7.45,-4.09,3.39,-1.92,1.59,-13.09,-33.40,13.88,-1.00
13360.00,-6.15,-7.45,-4.09,3.39,-1.92,1.59,-13.09,-33.40,13.88,-1.00
13374.00,-9.40,-6.59,-1.06,2.79,-2.05,1.71,-13.09,-33.40,13.88,-1.00
13386.00,-9.79,-5.09,-1.71,1.64,-1.80,1.66,-13.09,-33.40,13.88,-1.00
13398.00,-9.79,-5.09,-1.71,1.64,-1.80,1.66,-13.09,-33.40,13.88,-1.00
13410.00,-8.69,-4.33,-3.70,0.76,-1.44,1.48,-13.09,-33.40,13.88,-1.00
13424.00,-7.53,-4.21,-4.33,0.20,-1.34,1.33,-13.09,-33.40,13.88,-1.00
13436.00,-7.53,-4.21,-4.33,0.20,-1.34,1.33,-13.09,-33.40,13.88,-1.00
13448.00,-7.62,-5.34,-3.60,0.04,-1.51,1.27,-14.21,-31.24,25.94,-1.00
13460.00,-7.62,-5.34,-3.60,0.04,-1.51,1.27,-14.21,-31.24,25.94,-1.00
13474.00,-9.24,-5.40,-1.45,-0.23,-1.47,1.17,-14.21,-31.24,25.94,-1.00
13486.00,-7.95,-5.77,-4.26,-0.69,-1.19,1.04,-14.21,-31.24,25.94,-1.00
13498.00,-7.95,-5.77,-4.26,-0.69,-1.19,1.04,-14.21,-31.24,25.94,-1.00
13512.00,-7.09,-3.61,-5.87,-0.68,-1.40,1.09,-14.21,-31.24,25.94,-1.00
13524.00,-6.59,-4.36,-5.80,0.07,-1.60,0.83,-14.21,-31.24,25.94,-1.00
13536.00,-6.59,-4.36,-5.80,0.07,-1.60,0.83,-14.21,-31.24,25.94,-1.00
13548.00,-6.78,-5.13,-4.61,0.64,-1.67,0.63,-14.21,-31.24,25.94,-1.00
13562.00,-6.78,-5.13,-4.61,0.64,-1.67,0.63,-14.21,-31.24,25.94,-1.00
13574.00,-7.31,-5.57,-3.54,0.84,-1.50,0.64,-13.93,-32.32,26.38,-1.00
13586.00,-8.13,-5.96,-2.98,0.47,-1.28,0.71,-13.93,-32.32,26.38,-1.00
13598.00,-8.13,-5.96,-2.98,0.47,-1.28,0.71,-13.93,-32.32,26.38,-1.00
13613.00,-8.05,-5.81,-3.35,-0.14,-1.10,0.90,-13.93,-32.32,26.38,-1.00
13624.00,-8.31,-5.73,-4.11,-0.65,-1.01,1.14,-13.93,-32.32,26.38,-1.00
13636.00,-8.31,-5.73,-4.11,-0.65,-1.01,1.14,-13.93,-32.32,26.38,-1.00
13650.00,-7.35,-5.50,-3.28,-1.06,-1.08,1.36,-13.93,-32.32,26.38,-1.00
13662.00,-7.35,-5.50,-3.28,-1.06,-1.08,1.36,-13.93,-32.32,26.38,-1.00
13674.00,-7.06,-5.11,-4.73,-1.40,-1.06,1.47,-13.93,-32.32,26.38,-1.00
13686.00,-6.67,-3.62,-5.51,-1.33,-1.01,1.46,-16.03,-31.06,22.59,-1.00
13700.00,-6.67,-3.62,-5.51,-1.33,-1.01,1.46,-16.03,-31.06,22.59,-1.00
13712.00,-6.82,-3.45,-5.32,-0.65,-1.01,1.19,-16.03,-31.06,22.59,-1.00
13724.00,-7.22,-3.69,-5.55,0.22,-1.01,0.91,-16.03,-31.06,22.59,-1.00
13738.00,-7.22,-3.69,-5.55,0.22,-1.01,0.91,-16.03,-31.06,22.59,-1.00
13750.00,-7.94,-3.96,-4.74,0.79,-1.17,0.71,-16.03,-31.06,22.59,-1.00
13762.00,-7.94,-3.96,-4.74,0.79,-1.17,0.71,-16.03,-31.06,22.59,-1.00
13774.00,-8.90,-4.50,-4.15,0.93,-1.36,0.57,-16.03,-31.06,22.59,-1.00
13789.00,-9.59,-5.29,-1.44,0.47,-1.42,0.38,-16.03,-31.06,22.59,-1.00
13800.00,-9.59,-5.29,-1.44,0.47,-1.42,0.38,-16.03,-31.06,22.59,-1.00
13812.00,-6.13,-6.32,-4.84,-0.33,-1.19,0.35,-16.03,-31.06,22.59,-1.00
13824.00,-5.37,-5.60,-6.14,-0.61,-1.39,0.79,-14.07,-31.42,23.93,-1.00
13838.00,-5.37,-5.60,-6.14,-0.61,-1.39,0.79,-14.07,-31.42,23.93,-1.00
13850.00,-5.43,-5.63,-5.66,-0.46,-1.60,1.20,-14.07,-31.42,23.93,-1.00
13862.00,-5.43,-5.63,-5.66,-0.46,-1.60,1.20,-14.07,-31.42,23.93,-1.00
13876.00,-9.08,-4.17,-2.71,-0.24,-1.56,1.43,-14.07,-31.42,23.93,-1.00
13888.00,-7.90,-4.88,-3.69,-0.28,-1.14,1.13,-14.07,-31.42,23.93,-1.00
13900.00,-7.90,-4.88,-3.69,-0.28,-1.14,1.13,-14.07,-31.42,23.93,-1.00
13912.00,-7.33,-5.04,-5.20,-0.46,-0.91,1.12,-14.07,-31.42,23.93,-1.00
13926.00,-7.53,-4.43,-4.89,-0.51,-0.88,1.17,-14.07,-31.42,23.93,-1.00
13938.00,-7.53,-4.43,-4.89,-0.51,-0.88,1.17,-14.07,-31.42,23.93,-1.00
13950.00,-7.84,-4.38,-4.69,-0.44,-1.01,1.12,-16.03,-30.34,23.48,-1.00
13964.00,-7.76,-4.80,-5.21,-0.27,-1.15,1.12,-16.03,-30.34,23.48,-1.00
13976.00,-7.76,-4.80,-5.21,-0.27,-1.15,1.12,-16.03,-30.34,23.48,-1.00
13988.00,-7.78,-4.21,-4.81,-0.10,-1.35,1.14,-16.03,-30.34,23.48,-1.00
14000.00,-7.78,-4.21,-4.81,-0.10,-1.35,1.14,-16.03,-30.34,23.48,-1.00
14014.00,-7.48,-3.19,-5.04,-0.01,-1.53,0.99,-16.03,-30.34,23.48,-1.00
14026.00,-7.17,-4.45,-4.67,0.16,-1.58,0.72,-16.03,-30.34,23.48,-1.00
14038.00,-7.17,-4.45,-4.67,0.16,-1.58,0.72,-16.03,-30.34,23.48,-1.00
14050.00,-7.37,-4.97,-4.70,0.12,-1.39,0.74,-16.03,-30.34,23.48,-1.00
14065.00,-7.64,-4.62,-4.16,-0.06,-1.20,0.89,-15.05,-30.52,22.36,-1.00
14076.00,-7.64,-4.62,-4.16,-0.06,-1.20,0.89,-15.05,-30.52,22.36,-1.00
14088.00,-7.66,-5.02,-4.49,-0.19,-1.01,1.01,-15.05,-30.52,22.36,-1.00
14103.00,-7.66,-5.02,-4.49,-0.19,-1.01,1.01,-15.05,-30.52,22.36,-1.00
14190.00,-7.41,-4.00,-4.83,-0.04,-1.39,0.90,-16.45,-30.16,21.03,-1.00
14280.00,-7.98,-4.40,-4.90,-0.38,-1.28,0.89,-16.45,-30.16,21.03,-1.00
14368.00,-7.80,-4.65,-4.87,-0.73,-0.88,1.29,-16.72,-31.24,20.13,-1.00
14383.00,-7.80,-4.65,-4.87,-0.73,-0.88,1.29,-16.72,-31.24,20.13,-1.00
14394.00,-7.88,-3.63,-5.15,-0.80,-0.92,1.32,-16.72,-31.24,20.13,-1.00
14407.00,-8.76,-3.39,-6.21,-0.51,-1.13,1.20,-16.72,-31.24,20.13,-1.00
14419.00,-8.76,-3.39,-6.21,-0.51,-1.13,1.20,-16.72,-31.24,20.13,-1.00
14433.00,-14.84,-0.37,-4.84,-0.33,-1.58,0.98,-16.72,-31.24,20.13,-1.00
14445.00,-10.19,-0.92,-4.68,-0.52,-1.36,0.04,-16.45,-28.73,16.56,-1.00
14457.00,-10.19,-0.92,-4.68,-0.52,-1.36,0.04,-16.45,-28.73,16.56,-1.00
14471.00,-9.34,-2.12,1.75,-0.39,-1.45,-0.74,-16.45,-28.73,16.56,-1.00
14483.00,-9.34,-2.12,1.75,-0.39,-1.45,-0.74,-16.45,-28.73,16.56,-1.00
14495.00,-2.44,-5.67,-4.52,-0.40,-0.63,-1.26,-16.45,-28.73,16.56,-1.00
14507.00,-0.52,-6.77,-6.48,-0.53,-0.76,-0.37,-16.45,-28.73,16.56,-1.00
14521.00,-0.52,-6.77,-6.48,-0.53,-0.76,-0.37,-16.45,-28.73,16.56,-1.00
14533.00,-1.46,-6.35,-7.84,-0.24,-0.59,0.82,-16.45,-28.73,16.56,-1.00
14545.00,-1.71,-5.70,-13.59,0.54,-0.23,1.59,-16.45,-28.73,16.56,-1.00
14560.00,-1.71,-5.70,-13.59,0.54,-0.23,1.59,-16.45,-28.73,16.56,-1.00
14572.00,-6.14,-2.85,-10.87,1.65,-1.05,1.99,-13.65,-33.40,13.44,-1.00
14584.00,-6.57,-4.52,-6.09,2.57,-1.61,1.61,-13.65,-33.40,13.44,-1.00
14596.00,-6.57,-4.52,-6.09,2.57,-1.61,1.61,-13.65,-33.40,13.44,-1.00
14610.00,-9.58,-5.40,-2.05,2.38,-1.80,1.57,-13.65,-33.40,13.44,-1.00
14622.00,-9.58,-5.40,-2.05,2.38,-1.80,1.57,-13.65,-33.40,13.44,-1.00
14634.00,-10.36,-4.64,-0.83,1.51,-1.61,1.52,-13.65,-33.40,13.44,-1.00
14646.00,-8.70,-4.99,-3.36,0.55,-1.30,1.29,-13.65,-33.40,13.44,-1.00
14660.00,-8.70,-4.99,-3.36,0.55,-1.30,1.29,-13.65,-33.40,13.44,-1.00
14672.00,-7.48,-4.44,-5.11,-0.17,-1.25,1.25,-13.65,-33.40,13.44,-1.00
14684.00,-8.13,-4.13,-4.68,-0.35,-1.27,1.17,-15.33,-31.60,21.47,-1.00
14698.00,-8.13,-4.13,-4.68,-0.35,-1.27,1.17,-15.33,-31.60,21.47,-1.00
14710.00,-8.85,-4.66,-3.26,-0.32,-1.32,0.99,-15.33,-31.60,21.47,-1.00
14722.00,-8.85,-4.66,-3.26,-0.32,-1.32,0.99,-15.33,-31.60,21.47,-1.00
14734.00,-8.23,-6.14,-3.66,-0.48,-1.26,0.95,-15.33,-31.60,21.47,-1.00
14748.00,-7.84,-4.80,-4.36,-0.67,-1.35,1.13,-15.33,-31.60,21.47,-1.00
14760.00,-7.84,-4.80,-4.36,-0.67,-1.35,1.13,-15.33,-31.60,21.47,-1.00
14772.00,-7.40,-3.39,-5.37,-0.40,-1.57,1.01,-15.33,-31.60,21.47,-1.00
14786.00,-7.36,-3.65,-5.56,-0.06,-1.79,0.62,-15.33,-31.60,21.47,-1.00
14798.00,-7.36,-3.65,-5.56,-0.06,-1.79,0.62,-15.33,-31.60,21.47,-1.00
14810.00,-6.55,-4.29,-5.16,0.39,-1.83,0.43,-15.33,-31.60,21.47,-1.00
14822.00,-6.55,-4.29,-5.16,0.39,-1.83,0.43,-15.33,-31.60,21.47,-1.00
14837.00,-6.68,-4.25,-4.46,0.68,-1.66,0.45,-16.17,-32.32,21.92,-1.00
14848.00,-7.53,-5.44,-3.89,0.49,-1.48,0.42,-16.17,-32.32,21.92,-1.00
14860.00,-7.53,-5.44,-3.89,0.49,-1.48,0.42,-16.17,-32.32,21.92,-1.00
14872.00,-7.94,-5.95,-3.42,0.07,-1.25,0.63,-16.17,-32.32,21.92,-1.00
14886.00,-7.64,-5.59,-3.64,-0.36,-1.06,0.87,-16.17,-32.32,21.92,-1.00
14898.00,-7.64,-5.59,-3.64,-0.36,-1.06,0.87,-16.17,-32.32,21.92,-1.00
14910.00,-7.29,-6.32,-3.65,-0.78,-0.78,1.17,-16.17,-32.32,21.92,-1.00
14924.00,-7.72,-5.56,-4.80,-1.47,-0.58,1.56,-16.17,-32.32,21.92,-1.00
14936.00,-7.72,-5.56,-4.80,-1.47,-0.58,1.56,-16.17,-32.32,21.92,-1.00
14948.00,-7.44,-4.22,-4.71,-1.76,-0.69,1.73,-14.63,-32.86,17.23,-1.00
14960.00,-7.44,-4.22,-4.71,-1.76,-0.69,1.73,-14.63,-32.86,17.23,-1.00
14974.00,-7.68,-3.48,-5.19,-1.16,-0.95,1.55,-14.63,-32.86,17.23,-1.00
14987.00,-7.59,-4.42,-5.57,-0.48,-1.18,1.34,-14.63,-32.86,17.23,-1.00
14998.00,-7.59,-4.42,-5.57,-0.48,-1.18,1.34,-14.63,-32.86,17.23,-1.00
15012.00,-7.38,-2.98,-5.71,-0.20,-1.40,1.28,-14.63,-32.86,17.23,-1.00
15101.00,-7.56,-5.27,-4.10,0.05,-1.12,0.77,-16.03,-32.14,17.68,-1.00
15191.00,-7.61,-3.24,-5.05,-0.29,-1.35,1.24,-16.03,-32.14,17.68,-1.00
15278.00,-7.57,-4.70,-5.47,0.12,-1.28,0.68,-16.17,-29.80,14.33,-1.00
15292.00,-7.84,-4.21,-4.50,-0.04,-1.21,0.89,-16.17,-29.80,14.33,-1.00
15304.00,-7.84,-4.21,-4.50,-0.04,-1.21,0.89,-16.17,-29.80,14.33,-1.00
15316.00,-8.21,-4.52,-5.28,-0.06,-1.15,1.01,-16.17,-29.80,14.33,-1.00
15328.00,-8.01,-5.20,-4.49,-0.34,-1.25,1.20,-15.89,-30.52,15.67,-1.00
15342.00,-8.01,-5.20,-4.49,-0.34,-1.25,1.20,-15.89,-30.52,15.67,-1.00
15354.00,-7.56,-4.98,-4.36,-0.81,-1.22,1.46,-15.89,-30.52,15.67,-1.00
15366.00,-7.37,-2.65,-5.21,-1.00,-1.12,1.58,-15.89,-30.52,15.67,-1.00
15380.00,-7.37,-2.65,-5.21,-1.00,-1.12,1.58,-15.89,-30.52,15.67,-1.00
15392.00,-7.19,-2.11,-6.33,-0.78,-1.04,1.32,-15.89,-30.52,15.67,-1.00
15404.00,-7.19,-2.11,-6.33,-0.78,-1.04,1.32,-15.89,-30.52,15.67,-1.00
15416.00,-7.04,-2.32,-6.91,-0.31,-1.06,1.02,-15.89,-30.52,15.67,-1.00
15430.00,-7.34,-2.46,-5.57,0.52,-1.04,0.80,-15.89,-30.52,15.67,-1.00
15442.00,-7.34,-2.46,-5.57,0.52,-1.04,0.80,-15.89,-30.52,15.67,-1.00
15454.00,-8.38,-2.55,-5.98,0.90,-1.05,0.51,-18.12,-29.80,12.99,-1.00
15466.00,-16.79,-2.12,-3.07,1.30,-1.25,0.27,-18.12,-29.80,12.99,-1.00
15480.00,-16.79,-2.12,-3.07,1.30,-1.25,0.27,-18.12,-29.80,12.99,-1.00
15492.00,-10.48,-3.46,-0.88,0.40,-0.85,-0.59,-18.12,-29.80,12.99,-1.00
15504.00,-10.48,-3.46,-0.88,0.40,-0.85,-0.59,-18.12,-29.80,12.99,-1.00
15518.00,-8.11,-5.19,-2.08,-0.41,-0.57,-1.01,-18.12,-29.80,12.99,-1.00
15530.00,-4.13,-5.41,-3.77,-1.05,-0.73,-0.86,-18.12,-29.80,12.99,-1.00
15542.00,-4.13,-5.41,-3.77,-1.05,-0.73,-0.86,-18.12,-29.80,12.99,-1.00
15554.00,-1.62,-6.72,-4.40,-1.39,-0.94,-0.18,-18.12,-29.80,12.99,-1.00
15568.00,-1.65,-5.12,-8.32,-1.27,-0.67,1.00,-12.39,-33.22,6.52,-1.00
15580.00,-1.65,-5.12,-8.32,-1.27,-0.67,1.00,-12.39,-33.22,6.52,-1.00
15592.00,-1.92,-3.88,-12.35,-0.43,-0.53,1.86,-12.39,-33.22,6.52,-1.00
15606.00,-4.57,-3.34,-13.50,0.69,-0.97,2.15,-12.39,-33.22,6.52,-1.00
15618.00,-4.57,-3.34,-13.50,0.69,-0.97,2.15,-12.39,-33.22,6.52,-1.00
15630.00,-7.63,-2.97,-6.83,1.58,-1.75,2.10,-12.39,-33.22,6.52,-1.00
15642.00,-7.63,-2.97,-6.83,1.58,-1.75,2.10,-12.39,-33.22,6.52,-1.00
15656.00,-9.00,-4.98,-3.57,1.88,-1.85,1.65,-12.39,-33.22,6.52,-1.00
15668.00,-10.18,-5.00,-1.20,1.48,-1.74,1.47,-12.39,-33.22,6.52,-1.00
15680.00,-10.18,-5.00,-1.20,1.48,-1.74,1.47,-12.39,-33.22,6.52,-1.00
15692.00,-8.77,-4.58,-3.69,0.50,-1.38,1.31,-12.39,-33.22,6.52,-1.00
15707.00,-7.37,-3.49,-5.46,-0.17,-1.39,1.18,-17.28,-31.60,14.33,-1.00
15718.00,-7.37,-3.49,-5.46,-0.17,-1.39,1.18,-17.28,-31.60,14.33,-1.00
15730.00,-6.46,-3.84,-6.40,-0.24,-1.57,1.01,-17.28,-31.60,14.33,-1.00
15744.00,-6.46,-3.84,-6.40,-0.24,-1.57,1.01,-17.28,-31.60,14.33,-1.00
15756.00,-8.35,-4.79,-4.10,-0.11,-1.74,0.95,-17.28,-31.60,14.33,-1.00
15768.00,-8.85,-4.30,-4.45,-0.36,-1.58,0.89,-17.28,-31.60,14.33,-1.00
15780.00,-8.85,-4.30,-4.45,-0.36,-1.58,0.89,-17.28,-31.60,14.33,-1.00
15794.00,-7.18,-4.26,-5.81,-0.38,-1.36,0.86,-17.28,-31.60,14.33,-1.00
15806.00,-6.98,-3.19,-5.82,-0.13,-1.26,0.90,-17.28,-31.60,14.33,-1.00
15818.00,-6.98,-3.19,-5.82,-0.13,-1.26,0.90,-17.28,-31.60,14.33,-1.00
15832.00,-7.38,-4.83,-4.74,0.22,-1.18,0.81,-14.49,-33.40,16.12,-1.00
15844.00,-7.38,-4.83,-4.74,0.22,-1.18,0.81,-14.49,-33.40,16.12,-1.00
15856.00,-7.71,-6.00,-4.34,-0.09,-0.97,0.97,-14.49,-33.40,16.12,-1.00
15868.00,-8.27,-4.01,-4.86,-0.60,-0.87,1.26,-14.49,-33.40,16.12,-1.00
15883.00,-8.27,-4.01,-4.86,-0.60,-0.87,1.26,-14.49,-33.40,16.12,-1.00
15894.00,-8.03,-4.33,-5.22,-0.64,-0.96,1.32,-14.49,-33.40,16.12,-1.00
15906.00,-8.34,-4.09,-5.64,-0.77,-1.15,1.36,-14.49,-33.40,16.12,-1.00
15918.00,-8.34,-4.09,-5.64,-0.77,-1.15,1.36,-14.49,-33.40,16.12,-1.00
15932.00,-9.10,-2.28,-5.38,-0.65,-1.47,1.25,-14.49,-33.40,16.12,-1.00
15944.00,-9.10,-2.28,-5.38,-0.65,-1.47,1.25,-14.49,-33.40,16.12,-1.00
15956.00,-6.02,-2.66,-5.15,-0.31,-1.54,0.76,-16.03,-31.06,12.32,-1.00
15970.00,-5.20,-5.37,-6.25,-0.13,-1.55,0.59,-16.03,-31.06,12.32,-1.00
15982.00,-5.20,-5.37,-6.25,-0.13,-1.55,0.59,-16.03,-31.06,12.32,-1.00
15994.00,-7.31,-4.35,-5.76,-0.20,-1.60,0.92,-16.03,-31.06,12.32,-1.00
16006.00,-8.01,-3.32,-4.81,-0.14,-1.44,0.98,-16.03,-31.06,12.32,-1.00
16020.00,-8.01,-3.32,-4.81,-0.14,-1.44,0.98,-16.03,-31.06,12.32,-1.00
16032.00,-7.55,-3.50,-5.68,0.18,-1.21,0.89,-16.03,-31.06,12.32,-1.00
16044.00,-7.55,-3.50,-5.68,0.18,-1.21,0.89,-16.03,-31.06,12.32,-1.00
16056.00,-7.45,-3.31,-5.94,0.38,-1.09,0.87,-16.03,-31.06,12.32,-1.00
16070.00,-7.59,-4.32,-4.70,0.37,-1.05,0.88,-16.58,-31.78,13.21,-1.00
16082.00,-7.59,-4.32,-4.70,0.37,-1.05,0.88,-16.58,-31.78,13.21,-1.00
16094.00,-7.74,-4.88,-5.27,0.08,-0.96,1.03,-16.58,-31.78,13.21,-1.00
16108.00,-8.17,-3.73,-5.06,-0.10,-1.02,1.24,-16.58,-31.78,13.21,-1.00
16120.00,-8.17,-3.73,-5.06,-0.10,-1.02,1.24,-16.58,-31.78,13.21,-1.00
16132.00,-7.99,-4.50,-5.13,-0.08,-1.16,1.20,-16.58,-31.78,13.21,-1.00
16144.00,-7.99,-4.50,-5.13,-0.08,-1.16,1.20,-16.58,-31.78,13.21,-1.00
16159.00,-8.34,-4.03,-5.33,-0.09,-1.34,1.20,-16.58,-31.78,13.21,-1.00
16170.00,-7.94,-3.06,-4.72,-0.03,-1.54,1.14,-16.58,-31.78,13.21,-1.00
16182.00,-7.94,-3.06,-4.72,-0.03,-1.54,1.14,-16.58,-31.78,13.21,-1.00
16197.00,-7.07,-3.50,-5.38,0.06,-1.55,0.91,-16.58,-31.78,13.21,-1.00
16208.00,-6.85,-3.53,-5.92,0.10,-1.44,0.78,-16.45,-31.60,13.44,-1.00
16220.00,-6.85,-3.53,-5.92,0.10,-1.44,0.78,-16.45,-31.60,13.44,-1.00
16232.00,-7.26,-2.96,-5.15,0.23,-1.31,0.76,-16.45,-31.60,13.44,-1.00
16246.00,-7.65,-3.85,-5.03,0.24,-1.15,0.66,-16.45,-31.60,13.44,-1.00
16258.00,-7.65,-3.85,-5.03,0.24,-1.15,0.66,-16.45,-31.60,13.44,-1.00
16270.00,-8.18,-4.82,-4.67,0.02,-1.02,0.78,-16.45,-31.60,13.44,-1.00
16282.00,-8.18,-4.82,-4.67,0.02,-1.02,0.78,-16.45,-31.60,13.44,-1.00
16296.00,-7.83,-4.72,-5.35,-0.24,-0.94,1.06,-16.45,-31.60,13.44,-1.00
16308.00,-7.76,-3.34,-5.52,-0.33,-1.09,1.21,-16.45,-31.60,13.44,-1.00
16320.00,-7.76,-3.34,-5.52,-0.33,-1.09,1.21,-16.45,-31.60,13.44,-1.00
16334.00,-7.76,-4.53,-4.92,-0.14,-1.25,1.06,-16.45,-30.16,11.65,-1.00
16346.00,-8.14,-3.89,-4.99,-0.17,-1.30,1.08,-16.45,-30.16,11.65,-1.00
16358.00,-8.14,-3.89,-4.99,-0.17,-1.30,1.08,-16.45,-30.16,11.65,-1.00
16370.00,-7.88,-2.90,-5.35,-0.22,-1.36,1.09,-16.45,-30.16,11.65,-1.00
16384.00,-7.88,-2.90,-5.35,-0.22,-1.36,1.09,-16.45,-30.16,11.65,-1.00
16396.00,-7.50,-4.23,-5.36,-0.15,-1.40,0.97,-16.45,-30.16,11.65,-1.00
16408.00,-7.72,-3.17,-5.07,-0.30,-1.44,0.93,-16.45,-30.16,11.65,-1.00
16420.00,-7.72,-3.17,-5.07,-0.30,-1.44,0.93,-16.45,-30.16,11.65,-1.00
16434.00,-7.37,-3.42,-5.48,-0.19,-1.41,0.77,-16.45,-30.16,11.65,-1.00
16446.00,-7.34,-3.78,-5.49,0.08,-1.32,0.74,-15.61,-29.80,12.99,-1.00
16458.00,-7.34,-3.78,-5.49,0.08,-1.32,0.74,-15.61,-29.80,12.99,-1.00
16473.00,-7.68,-4.19,-4.99,0.15,-1.22,0.81,-15.61,-29.80,12.99,-1.00
16484.00,-7.68,-4.19,-4.99,0.15,-1.22,0.81,-15.61,-29.80,12.99,-1.00
16496.00,-7.59,-4.03,-5.49,-0.07,-1.16,0.92,-15.61,-29.80,12.99,-1.00
16508.00,-7.56,-3.77,-5.39,-0.12,-1.19,0.95,-15.61,-29.80,12.99,-1.00
16522.00,-7.56,-3.77,-5.39,-0.12,-1.19,0.95,-15.61,-29.80,12.99,-1.00
16534.00,-7.67,-3.63,-5.22,-0.08,-1.22,0.90,-15.61,-29.80,12.99,-1.00
16546.00,-7.82,-3.03,-5.63,-0.03,-1.27,0.76,-15.61,-29.80,12.99,-1.00
16560.00,-7.82,-3.03,-5.63,-0.03,-1.27,0.76,-15.61,-29.80,12.99,-1.00
16572.00,-7.62,-4.20,-5.42,0.21,-1.31,0.68,-16.86,-29.98,13.21,-1.00
16584.00,-7.62,-4.20,-5.42,0.21,-1.31,0.68,-16.86,-29.98,13.21,-1.00
16596.00,-7.73,-3.07,-5.42,0.43,-1.33,0.74,-16.86,-29.98,13.21,-1.00
16610.00,-7.56,-3.68,-4.95,0.82,-1.39,0.61,-16.86,-29.98,13.21,-1.00
16622.00,-7.56,-3.68,-4.95,0.82,-1.39,0.61,-16.86,-29.98,13.21,-1.00
16634.00,-7.48,-4.78,-4.69,0.86,-1.40,0.58,-16.86,-29.98,13.21,-1.00
16646.00,-7.84,-5.40,-4.12,0.59,-1.36,0.67,-16.86,-29.98,13.21,-1.00
16660.00,-7.84,-5.40,-4.12,0.59,-1.36,0.67,-16.86,-29.98,13.21,-1.00
16748.00,-7.53,-3.97,-4.66,-0.75,-0.82,2.04,-15.47,-31.06,13.66,-1.00
16839.00,-7.75,-3.67,-4.94,0.22,-1.57,0.76,-18.12,-29.80,13.88,-1.00
16852.00,-7.51,-3.77,-5.54,0.12,-1.57,0.71,-18.12,-29.80,13.88,-1.00
16864.00,-7.51,-3.77,-5.54,0.12,-1.57,0.71,-18.12,-29.80,13.88,-1.00
16876.00,-7.05,-3.28,-5.62,0.15,-1.51,0.72,-18.12,-29.80,13.88,-1.00
16888.00,-7.59,-2.64,-5.65,0.26,-1.39,0.59,-18.12,-29.80,13.88,-1.00
16902.00,-7.59,-2.64,-5.65,0.26,-1.39,0.59,-18.12,-29.80,13.88,-1.00
16914.00,-8.16,-4.81,-3.66,0.21,-1.24,0.58,-18.12,-29.80,13.88,-1.00
16926.00,-8.16,-4.81,-3.66,0.21,-1.24,0.58,-18.12,-29.80,13.88,-1.00
16938.00,-8.27,-5.47,-3.97,-0.11,-0.90,0.99,-18.12,-29.80,13.88,-1.00
16952.00,-8.21,-3.78,-5.78,-0.36,-0.76,1.46,-18.68,-29.09,13.44,-1.00
16964.00,-8.21,-3.78,-5.78,-0.36,-0.76,1.46,-18.68,-29.09,13.44,-1.00
16976.00,-8.12,-2.69,-6.55,-0.18,-0.97,1.49,-18.68,-29.09,13.44,-1.00
16990.00,-8.14,-3.96,-5.23,0.05,-1.28,1.28,-18.68,-29.09,13.44,-1.00
17002.00,-8.14,-3.96,-5.23,0.05,-1.28,1.28,-18.68,-29.09,13.44,-1.00
17014.00,-8.16,-3.92,-4.13,0.11,-1.39,1.28,-18.68,-29.09,13.44,-1.00
17026.00,-8.16,-3.92,-4.13,0.11,-1.39,1.28,-18.68,-29.09,13.44,-1.00
17040.00,-7.80,-2.44,-5.99,-0.23,-1.43,1.14,-18.68,-29.09,13.44,-1.00
17052.00,-7.82,-2.18,-5.45,-0.15,-1.59,0.83,-18.68,-29.09,13.44,-1.00
17064.00,-7.82,-2.18,-5.45,-0.15,-1.59,0.83,-18.68,-29.09,13.44,-1.00
17076.00,-7.81,-3.25,-4.73,0.05,-1.55,0.62,-18.68,-29.09,13.44,-1.00
17090.00,-7.70,-3.75,-5.42,0.04,-1.40,0.54,-17.84,-27.65,13.44,-1.00
17102.00,-7.70,-3.75,-5.42,0.04,-1.40,0.54,-17.84,-27.65,13.44,-1.00
17114.00,-8.11,-3.81,-4.95,-0.05,-1.28,0.73,-17.84,-27.65,13.44,-1.00
17128.00,-8.28,-3.62,-5.75,0.01,-1.21,0.95,-17.84,-27.65,13.44,-1.00
17140.00,-8.28,-3.62,-5.75,0.01,-1.21,0.95,-17.84,-27.65,13.44,-1.00
17152.00,-8.08,-5.10,-4.84,-0.03,-1.32,1.24,-17.84,-27.65,13.44,-1.00
17164.00,-8.08,-5.10,-4.84,-0.03,-1.32,1.24,-17.84,-27.65,13.44,-1.00
17178.00,-7.71,-3.79,-3.89,-0.35,-1.36,1.59,-17.84,-27.65,13.44,-1.00
17190.00,-7.53,-2.06,-4.99,-0.60,-1.19,1.62,-17.84,-27.65,13.44,-1.00
17202.00,-7.53,-2.06,-4.99,-0.60,-1.19,1.62,-17.84,-27.65,13.44,-1.00
17216.00,-7.75,-2.33,-5.77,-0.50,-1.09,1.32,-18.82,-26.39,11.43,-1.00
17229.00,-8.11,-2.32,-5.03,-0.13,-1.04,1.13,-18.82,-26.39,11.43,-1.00
17240.00,-8.11,-2.32,-5.03,-0.13,-1.04,1.13,-18.82,-26.39,11.43,-1.00
17252.00,-8.06,-2.16,-5.47,0.44,-0.94,0.95,-18.82,-26.39,11.43,-1.00
17267.00,-8.06,-2.16,-5.47,0.44,-0.94,0.95,-18.82,-26.39,11.43,-1.00
17278.00,-10.48,-1.12,-6.52,1.11,-0.95,0.66,-18.82,-26.39,11.43,-1.00
17290.00,-9.47,-1.43,-2.76,1.33,-0.82,-0.13,-18.82,-26.39,11.43,-1.00
17302.00,-9.47,-1.43,-2.76,1.33,-0.82,-0.13,-18.82,-26.39,11.43,-1.00
17316.00,-6.76,-5.08,-4.80,0.94,-0.66,-0.77,-18.82,-26.39,11.43,-1.00
17328.00,-3.93,-7.09,-5.42,-0.01,-0.91,-0.44,-16.03,-31.42,13.66,-1.00
17340.00,-3.93,-7.09,-5.42,-0.01,-0.91,-0.44,-16.03,-31.42,13.66,-1.00
17354.00,-4.27,-6.04,-7.79,-0.64,-1.24,0.50,-16.03,-31.42,13.66,-1.00
17366.00,-4.27,-6.04,-7.79,-0.64,-1.24,0.50,-16.03,-31.42,13.66,-1.00
17378.00,-6.07,-3.65,-6.67,-0.15,-1.81,1.24,-16.03,-31.42,13.66,-1.00
17390.00,-16.86,-3.67,-2.78,0.62,-2.43,1.33,-16.03,-31.42,13.66,-1.00
17404.00,-16.86,-3.67,-2.78,0.62,-2.43,1.33,-16.03,-31.42,13.66,-1.00
17416.00,-8.73,-4.44,-4.14,0.26,-1.97,0.83,-16.03,-31.42,13.66,-1.00
17428.00,-7.66,-3.18,-5.38,-0.17,-1.60,0.95,-16.03,-31.42,13.66,-1.00
17442.00,-7.66,-3.18,-5.38,-0.17,-1.60,0.95,-16.03,-31.42,13.66,-1.00
17454.00,-9.52,-3.40,-3.86,-0.11,-1.36,0.96,-17.28,-30.88,14.78,-1.00
17466.00,-9.52,-3.40,-3.86,-0.11,-1.36,0.96,-17.28,-30.88,14.78,-1.00
17478.00,-8.31,-3.88,-2.40,-0.37,-0.54,0.60,-17.28,-30.88,14.78,-1.00
17492.00,-6.57,-4.68,-5.82,-0.67,-0.07,0.45,-17.28,-30.88,14.78,-1.00
17582.00,-7.93,-4.20,-4.90,0.44,-1.97,1.69,-17.28,-30.88,14.78,-1.00
17669.00,-6.52,-3.73,-4.87,-0.16,-0.84,0.39,-16.03,-30.34,14.55,-1.00
17757.00,-6.72,-4.88,-5.25,0.47,-0.96,0.96,-14.07,-32.14,14.55,-1.00
17771.00,-6.84,-4.28,-5.69,0.42,-1.16,1.08,-14.07,-32.14,14.55,-1.00
17783.00,-6.84,-4.28,-5.69,0.42,-1.16,1.08,-14.07,-32.14,14.55,-1.00
17795.00,-7.14,-4.87,-5.47,0.40,-1.39,1.19,-14.07,-32.14,14.55,-1.00
17809.00,-10.87,-3.99,-2.79,0.28,-1.56,1.26,-14.07,-32.14,14.55,-1.00
17821.00,-10.87,-3.99,-2.79,0.28,-1.56,1.26,-14.07,-32.14,14.55,-1.00
17833.00,-8.88,-4.12,-5.73,0.11,-1.38,1.02,-15.47,-32.50,15.89,-1.00
17845.00,-8.88,-4.12,-5.73,0.11,-1.38,1.02,-15.47,-32.50,15.89,-1.00
17859.00,-7.59,-3.66,-4.89,0.51,-1.67,0.96,-15.47,-32.50,15.89,-1.00
17871.00,-7.21,-5.18,-4.71,0.54,-1.68,0.79,-15.47,-32.50,15.89,-1.00
17883.00,-7.21,-5.18,-4.71,0.54,-1.68,0.79,-15.47,-32.50,15.89,-1.00
17895.00,-7.28,-4.79,-4.09,0.05,-1.53,0.79,-15.47,-32.50,15.89,-1.00
17909.00,-8.05,-4.10,-3.60,-0.38,-1.27,0.86,-15.47,-32.50,15.89,-1.00
17921.00,-8.05,-4.10,-3.60,-0.38,-1.27,0.86,-15.47,-32.50,15.89,-1.00
17933.00,-8.27,-6.55,-3.15,-0.93,-1.03,0.91,-15.47,-32.50,15.89,-1.00
17948.00,-8.27,-6.55,-3.15,-0.93,-1.03,0.91,-15.47,-32.50,15.89,-1.00
17959.00,-7.57,-5.68,-4.34,-1.91,-0.77,1.32,-15.47,-32.14,14.55,-1.00
17971.00,-7.69,-3.00,-6.40,-1.98,-0.75,1.59,-15.47,-32.14,14.55,-1.00
17983.00,-7.69,-3.00,-6.40,-1.98,-0.75,1.59,-15.47,-32.14,14.55,-1.00
17997.00,-14.76,0.24,-6.46,-1.23,-1.02,1.35,-15.47,-32.14,14.55,-1.00
18009.00,-13.68,0.84,-3.56,-0.84,-0.76,0.27,-15.47,-32.14,14.55,-1.00
18021.00,-13.68,0.84,-3.56,-0.84,-0.76,0.27,-15.47,-32.14,14.55,-1.00
18035.00,-12.91,-0.99,-3.81,-0.93,-0.65,-1.15,-15.47,-32.14,14.55,-1.00
18047.00,-12.91,-0.99,-3.81,-0.93,-0.65,-1.15,-15.47,-32.14,14.55,-1.00
18059.00,-3.55,-1.18,-2.69,-1.12,-0.99,-2.09,-15.47,-32.14,14.55,-1.00
18071.00,-2.40,-4.53,-7.08,0.14,-1.05,-2.17,-15.47,-32.14,14.55,-1.00
18086.00,-2.40,-4.53,-7.08,0.14,-1.05,-2.17,-15.47,-32.14,14.55,-1.00
18098.00,-1.24,-7.69,-7.10,0.85,-1.39,-1.33,-10.86,-36.63,8.08,-1.00
18110.00,1.62,-5.68,-3.66,0.31,-1.45,0.12,-10.86,-36.63,8.08,-1.00
18122.00,1.62,-5.68,-3.66,0.31,-1.45,0.12,-10.86,-36.63,8.08,-1.00
18137.00,-3.05,-6.28,-5.81,0.35,-1.21,1.23,-10.86,-36.63,8.08,-1.00
18148.00,-3.11,-8.33,-7.27,1.08,-0.57,1.77,-10.86,-36.63,8.08,-1.00
18160.00,-3.11,-8.33,-7.27,1.08,-0.57,1.77,-10.86,-36.63,8.08,-1.00
18174.00,-3.83,-7.36,-7.92,1.53,-0.27,2.45,-10.86,-36.63,8.08,-1.00
18186.00,-3.83,-7.36,-7.92,1.53,-0.27,2.45,-10.86,-36.63,8.08,-1.00
18198.00,-6.77,-8.71,-7.79,1.46,-0.34,2.77,-10.86,-36.63,8.08,-1.00
18210.00,-7.09,-2.28,-9.25,0.96,-0.88,2.43,-13.65,-38.43,10.76,-1.00
18224.00,-7.09,-2.28,-9.25,0.96,-0.88,2.43,-13.65,-38.43,10.76,-1.00
18236.00,-8.52,-3.82,-6.53,1.89,-1.48,1.92,-13.65,-38.43,10.76,-1.00
18249.00,-6.99,-3.64,-3.31,2.09,-1.86,1.58,-13.65,-38.43,10.76,-1.00
18261.00,-6.99,-3.64,-3.31,2.09,-1.86,1.58,-13.65,-38.43,10.76,-1.00
18275.00,-9.46,-4.50,-3.14,2.05,-1.96,1.33,-13.65,-38.43,10.76,-1.00
18287.00,-9.46,-4.50,-3.14,2.05,-1.96,1.33,-13.65,-38.43,10.76,-1.00
18299.00,-8.60,-6.43,-2.27,1.74,-1.77,1.11,-13.65,-38.43,10.76,-1.00
18313.00,-9.19,-6.07,-2.22,0.71,-1.44,1.10,-13.65,-38.43,10.76,-1.00
18325.00,-9.19,-6.07,-2.22,0.71,-1.44,1.10,-13.65,-38.43,10.76,-1.00
18337.00,-7.16,-5.14,-3.44,-0.07,-1.14,0.98,-15.05,-37.35,22.81,-1.00
18349.00,-6.38,-5.93,-4.83,-0.10,-1.06,0.95,-15.05,-37.35,22.81,-1.00
18363.00,-6.38,-5.93,-4.83,-0.10,-1.06,0.95,-15.05,-37.35,22.81,-1.00
18375.00,-7.12,-6.11,-4.57,-0.28,-1.19,1.13,-15.05,-37.35,22.81,-1.00
18387.00,-7.12,-6.11,-4.57,-0.28,-1.19,1.13,-15.05,-37.35,22.81,-1.00
18399.00,-7.95,-4.77,-3.88,-0.26,-1.27,1.22,-15.05,-37.35,22.81,-1.00
18414.00,-7.52,-4.74,-3.83,0.13,-1.18,1.04,-15.05,-37.35,22.81,-1.00
18425.00,-7.52,-4.74,-3.83,0.13,-1.18,1.04,-15.05,-37.35,22.81,-1.00
18437.00,-7.09,-5.57,-4.09,0.26,-1.14,0.88,-15.05,-37.35,22.81,-1.00
18451.00,-7.63,-5.63,-4.14,0.05,-1.14,0.91,-14.21,-36.99,23.26,-1.00
18463.00,-7.63,-5.63,-4.14,0.05,-1.14,0.91,-14.21,-36.99,23.26,-1.00
18475.00,-7.44,-5.12,-4.23,-0.19,-1.10,0.90,-14.21,-36.99,23.26,-1.00
18487.00,-7.44,-5.12,-4.23,-0.19,-1.10,0.90,-14.21,-36.99,23.26,-1.00
18501.00,-7.13,-5.24,-4.50,-0.22,-1.08,0.86,-14.21,-36.99,23.26,-1.00
18513.00,-6.88,-5.45,-4.47,-0.16,-1.12,0.87,-14.21,-36.99,23.26,-1.00
18525.00,-6.88,-5.45,-4.47,-0.16,-1.12,0.87,-14.21,-36.99,23.26,-1.00
18539.00,-6.88,-5.69,-4.49,-0.18,-1.17,0.95,-14.21,-36.99,23.26,-1.00
18551.00,-7.21,-5.39,-4.41,-0.23,-1.22,1.02,-14.21,-36.99,23.26,-1.00
18563.00,-7.21,-5.39,-4.41,-0.23,-1.22,1.02,-14.21,-36.99,23.26,-1.00
18575.00,-7.43,-5.33,-4.30,-0.21,-1.25,1.05,-14.21,-36.99,23.26,-1.00
18590.00,-7.42,-5.23,-4.11,-0.21,-1.24,1.05,-13.65,-36.27,20.58,-1.00
18601.00,-7.42,-5.23,-4.11,-0.21,-1.24,1.05,-13.65,-36.27,20.58,-1.00
18613.00,-7.32,-5.15,-4.38,-0.21,-1.20,1.00,-13.65,-36.27,20.58,-1.00
18625.00,-7.32,-5.15,-4.38,-0.21,-1.20,1.00,-13.65,-36.27,20.58,-1.00
18639.00,-7.19,-5.33,-4.43,-0.19,-1.20,0.96,-13.65,-36.27,20.58,-1.00
18651.00,-7.13,-5.18,-4.71,-0.24,-1.18,0.97,-13.65,-36.27,20.58,-1.00
18663.00,-7.13,-5.18,-4.71,-0.24,-1.18,0.97,-13.65,-36.27,20.58,-1.00
18677.00,-7.35,-4.85,-4.73,-0.18,-1.18,0.99,-13.65,-36.27,20.58,-1.00
18689.00,-7.27,-5.02,-4.51,-0.06,-1.20,0.95,-13.65,-36.27,20.58,-1.00
18701.00,-7.27,-5.02,-4.51,-0.06,-1.20,0.95,-13.65,-36.27,20.58,-1.00
18713.00,-7.27,-5.23,-4.41,-0.06,-1.19,0.95,-14.49,-34.48,21.03,-1.00
18727.00,-7.27,-5.23,-4.41,-0.06,-1.19,0.95,-14.49,-34.48,21.03,-1.00
18739.00,-7.14,-5.14,-4.68,-0.11,-1.19,0.96,-14.49,-34.48,21.03,-1.00
18751.00,-7.10,-5.10,-4.96,-0.08,-1.23,0.97,-14.49,-34.48,21.03,-1.00
18763.00,-7.10,-5.10,-4.96,-0.08,-1.23,0.97,-14.49,-34.48,21.03,-1.00
18777.00,-7.16,-5.23,-4.43,0.02,-1.27,0.98,-14.49,-34.48,21.03,-1.00
18789.00,-7.31,-5.55,-4.06,0.05,-1.27,0.99,-14.49,-34.48,21.03,-1.00
18801.00,-7.31,-5.55,-4.06,0.05,-1.27,0.99,-14.49,-34.48,21.03,-1.00
18815.00,-7.13,-5.33,-4.39,-0.01,-1.24,1.02,-14.49,-34.48,21.03,-1.00
18827.00,-7.13,-5.33,-4.39,-0.01,-1.24,1.02,-14.49,-34.48,21.03,-1.00
18839.00,-7.25,-4.97,-5.02,-0.03,-1.23,1.03,-13.65,-35.91,19.24,-1.00
18851.00,-7.22,-4.76,-4.80,0.02,-1.24,1.00,-13.65,-35.91,19.24,-1.00
18866.00,-7.22,-4.76,-4.80,0.02,-1.24,1.00,-13.65,-35.91,19.24,-1.00
18877.00,-7.45,-5.16,-4.19,0.05,-1.24,0.98,-13.65,-35.91,19.24,-1.00
18889.00,-7.38,-5.32,-4.06,-0.03,-1.20,0.98,-13.65,-35.91,19.24,-1.00
18904.00,-7.38,-5.32,-4.06,-0.03,-1.20,0.98,-13.65,-35.91,19.24,-1.00
18915.00,-7.09,-5.21,-4.74,-0.14,-1.16,1.00,-13.65,-35.91,19.24,-1.00
18927.00,-7.09,-5.21,-4.74,-0.14,-1.16,1.00,-13.65,-35.91,19.24,-1.00
18939.00,-7.11,-4.75,-5.20,-0.12,-1.20,1.01,-13.65,-35.91,19.24,-1.00
18953.00,-7.26,-4.90,-4.91,0.06,-1.28,1.00,-14.07,-35.73,19.91,-1.00
18965.00,-7.26,-4.90,-4.91,0.06,-1.28,1.00,-14.07,-35.73,19.91,-1.00
18977.00,-7.43,-5.40,-4.26,0.19,-1.31,0.98,-14.07,-35.73,19.91,-1.00
18989.00,-7.31,-5.26,-4.18,0.16,-1.28,1.00,-14.07,-35.73,19.91,-1.00
19003.00,-7.31,-5.26,-4.18,0.16,-1.28,1.00,-14.07,-35.73,19.91,-1.00
19015.00,-7.27,-4.99,-4.76,0.06,-1.26,1.02,-14.07,-35.73,19.91,-1.00
19027.00,-7.27,-4.99,-4.76,0.06,-1.26,1.02,-14.07,-35.73,19.91,-1.00
19041.00,-7.58,-4.82,-4.22,0.04,-1.29,0.99,-14.07,-35.73,19.91,-1.00
19053.00,-7.39,-5.14,-4.08,0.05,-1.24,0.94,-14.07,-35.73,19.91,-1.00
19065.00,-7.39,-5.14,-4.08,0.05,-1.24,0.94,-14.07,-35.73,19.91,-1.00
19077.00,-7.38,-5.32,-4.56,0.02,-1.20,0.94,-14.07,-35.73,19.91,-1.00
19091.00,-7.26,-5.02,-4.51,-0.01,-1.21,0.95,-14.49,-35.91,19.24,-1.00
19180.00,-7.38,-4.85,-4.69,-0.09,-1.22,0.96,-14.49,-35.91,19.24,-1.00
19270.00,-7.37,-5.15,-4.31,0.02,-1.22,0.95,-15.19,-34.30,18.12,-1.00
19359.00,-7.66,-5.89,-3.94,-0.19,-1.21,0.98,-16.03,-35.73,19.02,-1.00
19373.00,-7.71,-5.57,-3.89,-0.76,-1.12,1.16,-16.03,-35.73,19.02,-1.00
19385.00,-7.71,-5.57,-3.89,-0.76,-1.12,1.16,-16.03,-35.73,19.02,-1.00
19397.00,-7.39,-5.15,-4.72,-1.36,-1.01,1.33,-16.03,-35.73,19.02,-1.00
19411.00,-6.62,-4.52,-5.70,-1.38,-0.93,1.42,-16.03,-35.73,19.02,-1.00
19423.00,-6.62,-4.52,-5.70,-1.38,-0.93,1.42,-16.03,-35.73,19.02,-1.00
19435.00,-6.63,-3.37,-5.95,-0.81,-0.90,1.41,-16.03,-35.73,19.02,-1.00
19447.00,-6.63,-3.37,-5.95,-0.81,-0.90,1.41,-16.03,-35.73,19.02,-1.00
19461.00,-7.07,-4.02,-5.32,-0.19,-0.89,1.25,-16.03,-35.73,19.02,-1.00
19473.00,-7.34,-4.26,-4.72,0.29,-0.96,1.07,-15.61,-32.68,12.54,-1.00
19485.00,-7.34,-4.26,-4.72,0.29,-0.96,1.07,-15.61,-32.68,12.54,-1.00
19500.00,-7.99,-4.14,-4.93,0.56,-1.08,0.89,-15.61,-32.68,12.54,-1.00
19511.00,-11.23,-3.26,-4.15,0.71,-1.14,0.66,-15.61,-32.68,12.54,-1.00
19523.00,-11.23,-3.26,-4.15,0.71,-1.14,0.66,-15.61,-32.68,12.54,-1.00
19535.00,-8.45,-4.49,-2.95,0.43,-0.84,0.04,-15.61,-32.68,12.54,-1.00
19549.00,-5.91,-6.41,-4.79,-0.20,-0.66,-0.03,-15.61,-32.68,12.54,-1.00
19561.00,-5.91,-6.41,-4.79,-0.20,-0.66,-0.03,-15.61,-32.68,12.54,-1.00
19573.00,-5.48,-6.00,-5.70,-0.85,-0.78,0.37,-15.61,-32.68,12.54,-1.00
19585.00,-5.48,-6.00,-5.70,-0.85,-0.78,0.37,-15.61,-32.68,12.54,-1.00
19599.00,-5.24,-5.56,-6.08,-1.22,-0.92,0.74,-12.67,-34.66,11.43,-1.00
19611.00,-6.63,-4.78,-6.08,-1.32,-1.06,1.04,-12.67,-34.66,11.43,-1.00
19623.00,-6.63,-4.78,-6.08,-1.32,-1.06,1.04,-12.67,-34.66,11.43,-1.00
19637.00,-6.77,-4.23,-6.24,-1.19,-1.11,1.13,-12.67,-34.66,11.43,-1.00
19650.00,-6.98,-4.07,-6.25,-0.92,-1.19,1.17,-12.67,-34.66,11.43,-1.00
19662.00,-6.98,-4.07,-6.25,-0.92,-1.19,1.17,-12.67,-34.66,11.43,-1.00
19674.00,-7.10,-3.92,-6.12,-0.70,-1.24,1.16,-12.67,-34.66,11.43,-1.00
19689.00,-7.10,-3.92,-6.12,-0.70,-1.24,1.16,-12.67,-34.66,11.43,-1.00
19700.00,-7.24,-3.70,-5.80,-0.44,-1.28,1.10,-12.67,-34.66,11.43,-1.00
19712.00,-7.44,-3.83,-5.58,-0.17,-1.26,0.97,-14.35,-32.86,6.07,-1.00
19726.00,-7.44,-3.83,-5.58,-0.17,-1.26,0.97,-14.35,-32.86,6.07,-1.00
19738.00,-7.39,-4.24,-5.46,0.03,-1.22,0.88,-14.35,-32.86,6.07,-1.00
19750.00,-6.58,-4.43,-5.44,0.07,-1.15,0.90,-14.35,-32.86,6.07,-1.00
19762.00,-6.58,-4.43,-5.44,0.07,-1.15,0.90,-14.35,-32.86,6.07,-1.00
19776.00,-6.85,-4.21,-5.96,0.12,-1.13,0.98,-14.35,-32.86,6.07,-1.00
19788.00,-6.85,-4.21,-5.96,0.12,-1.13,0.98,-14.35,-32.86,6.07,-1.00
19800.00,-7.61,-3.82,-6.19,0.51,-1.20,1.00,-14.35,-32.86,6.07,-1.00
19812.00,-8.42,-3.97,-5.69,1.25,-1.23,0.92,-14.35,-32.86,6.07,-1.00
19826.00,-8.42,-3.97,-5.69,1.25,-1.23,0.92,-14.35,-32.86,6.07,-1.00
19838.00,-7.47,-4.18,-4.69,1.64,-1.11,0.76,-13.79,-33.94,10.09,-1.00
19850.00,-6.97,-4.51,-4.75,1.73,-0.90,0.64,-13.79,-33.94,10.09,-1.00
19862.00,-6.97,-4.51,-4.75,1.73,-0.90,0.64,-13.79,-33.94,10.09,-1.00
19876.00,-6.45,-5.25,-3.94,2.21,-0.70,0.66,-13.79,-33.94,10.09,-1.00
19888.00,-6.45,-5.25,-3.94,2.21,-0.70,0.66,-13.79,-33.94,10.09,-1.00
19900.00,-6.71,-7.51,-3.67,2.36,-0.44,0.88,-13.79,-33.94,10.09,-1.00
19914.00,-6.42,-6.92,-4.23,1.43,-0.34,1.20,-13.79,-33.94,10.09,-1.00
19926.00,-6.42,-6.92,-4.23,1.43,-0.34,1.20,-13.79,-33.94,10.09,-1.00
19939.00,-7.24,-5.22,-5.54,0.54,-0.37,1.37,-13.79,-33.94,10.09,-1.00
19950.00,-5.54,-6.19,-5.48,0.45,-0.45,1.25,-13.79,-33.94,10.09,-1.00
19964.00,-5.54,-6.19,-5.48,0.45,-0.45,1.25,-13.79,-33.94,10.09,-1.00
19976.00,-6.47,-3.36,-6.43,-0.94,-1.31,1.32,-14.07,-36.81,17.23,-1.00
19988.00,-6.47,-3.36,-6.43,-0.94,-1.31,1.32,-14.07,-36.81,17.23,-1.00
20002.00,-5.99,-2.36,-3.88,-0.69,-1.82,1.07,-14.07,-36.81,17.23,-1.00
20014.00,-7.21,-4.92,-3.51,0.36,-1.33,0.64,-14.07,-36.81,17.23,-1.00
20026.00,-7.21,-4.92,-3.51,0.36,-1.33,0.64,-14.07,-36.81,17.23,-1.00
20038.00,-5.00,-6.75,-6.17,1.01,-0.55,0.45,-14.07,-36.81,17.23,-1.00
20052.00,-3.83,-9.36,-8.23,1.29,-0.13,0.72,-14.07,-36.81,17.23,-1.00
20064.00,-3.83,-9.36,-8.23,1.29,-0.13,0.72,-14.07,-36.81,17.23,-1.00
20076.00,-3.12,-5.95,-9.22,1.29,-0.62,1.42,-14.07,-36.81,17.23,-1.00
20088.00,-3.12,-5.95,-9.22,1.29,-0.62,1.42,-14.07,-36.81,17.23,-1.00
20102.00,-5.77,-3.75,-7.43,2.68,-1.30,1.79,-14.49,-39.51,19.24,-1.00
20114.00,-8.18,-4.73,-4.55,3.92,-1.45,1.49,-14.49,-39.51,19.24,-1.00
20126.00,-8.18,-4.73,-4.55,3.92,-1.45,1.49,-14.49,-39.51,19.24,-1.00
20140.00,-7.36,-5.97,-3.71,3.77,-1.31,0.99,-14.49,-39.51,19.24,-1.00
20152.00,-5.91,-6.94,-3.99,2.88,-1.26,0.79,-14.49,-39.51,19.24,-1.00
20164.00,-5.91,-6.94,-3.99,2.88,-1.26,0.79,-14.49,-39.51,19.24,-1.00
20176.00,-6.08,-7.29,-3.03,1.70,-1.19,0.90,-14.49,-39.51,19.24,-1.00
20190.00,-5.49,-7.17,-0.79,0.19,-1.13,0.96,-14.49,-39.51,19.24,-1.00
20202.00,-5.49,-7.17,-0.79,0.19,-1.13,0.96,-14.49,-39.51,19.24,-1.00
20214.00,-8.29,-5.96,-3.85,-1.70,-1.14,0.79,-13.65,-38.07,33.52,-1.00
20226.00,-8.29,-5.96,-3.85,-1.70,-1.14,0.79,-13.65,-38.07,33.52,-1.00
20241.00,-7.11,-5.96,-3.42,-1.29,-1.16,0.97,-13.65,-38.07,33.52,-1.00
20252.00,-5.96,-7.14,-1.73,-0.72,-1.08,1.20,-13.65,-38.07,33.52,-1.00
20264.00,-5.96,-7.14,-1.73,-0.72,-1.08,1.20,-13.65,-38.07,33.52,-1.00
20278.00,-6.20,-8.01,-2.04,-1.65,-1.06,1.43,-13.65,-38.07,33.52,-1.00
20290.00,-6.61,-6.81,-4.11,-3.31,-1.21,1.58,-13.65,-38.07,33.52,-1.00
20302.00,-6.61,-6.81,-4.11,-3.31,-1.21,1.58,-13.65,-38.07,33.52,-1.00
20314.00,-7.26,-5.09,-5.42,-4.41,-1.34,1.54,-13.65,-38.07,33.52,-1.00
20328.00,-7.26,-5.09,-5.42,-4.41,-1.34,1.54,-13.65,-38.07,33.52,-1.00
20340.00,-7.96,-4.08,-5.67,-3.89,-1.27,1.26,-17.28,-35.20,16.12,-1.00
20352.00,-7.20,-4.06,-5.41,-3.04,-1.17,0.90,-17.28,-35.20,16.12,-1.00
20364.00,-7.20,-4.06,-5.41,-3.04,-1.17,0.90,-17.28,-35.20,16.12,-1.00
20378.00,-6.45,-4.79,-5.84,-2.46,-1.14,0.83,-17.28,-35.20,16.12,-1.00
20391.00,-6.09,-4.30,-6.31,-2.28,-1.13,1.08,-17.28,-35.20,16.12,-1.00
20402.00,-6.09,-4.30,-6.31,-2.28,-1.13,1.08,-17.28,-35.20,16.12,-1.00
20416.00,-8.13,-2.72,-6.58,-1.65,-1.23,1.30,-17.28,-35.20,16.12,-1.00
20428.00,-8.13,-2.72,-6.58,-1.65,-1.23,1.30,-17.28,-35.20,16.12,-1.00
20440.00,-6.67,-2.26,-7.44,-0.79,-1.26,1.06,-17.28,-35.20,16.12,-1.00
20452.00,-5.54,-2.89,-8.01,0.50,-1.38,0.84,-17.28,-35.20,16.12,-1.00
20466.00,-5.54,-2.89,-8.01,0.50,-1.38,0.84,-17.28,-35.20,16.12,-1.00
20478.00,-6.24,-3.57,-6.67,1.56,-1.64,0.75,-16.45,-31.24,5.40,-1.00
20490.00,-6.24,-3.57,-6.67,1.56,-1.64,0.75,-16.45,-31.24,5.40,-1.00
20504.00,-5.97,-5.49,-5.22,2.06,-1.83,0.77,-16.45,-31.24,5.40,-1.00
20516.00,-7.41,-6.17,-4.36,1.51,-1.93,1.10,-16.45,-31.24,5.40,-1.00
20528.00,-7.41,-6.17,-4.36,1.51,-1.93,1.10,-16.45,-31.24,5.40,-1.00
20540.00,-8.05,-4.85,-3.17,0.67,-1.59,1.22,-16.45,-31.24,5.40,-1.00
20555.00,-7.47,-4.06,-5.42,0.25,-1.33,1.09,-16.45,-31.24,5.40,-1.00
20566.00,-7.47,-4.06,-5.42,0.25,-1.33,1.09,-16.45,-31.24,5.40,-1.00
20578.00,-6.89,-3.85,-6.91,0.24,-1.39,0.96,-16.45,-31.24,5.40,-1.00
20590.00,-6.89,-3.85,-6.91,0.24,-1.39,0.96,-16.45,-31.24,5.40,-1.00
20604.00,-6.94,-3.66,-5.83,0.52,-1.51,0.78,-17.00,-34.12,13.88,-1.00
20616.00,-7.43,-5.08,-4.29,0.69,-1.42,0.67,-17.00,-34.12,13.88,-1.00
20628.00,-7.43,-5.08,-4.29,0.69,-1.42,0.67,-17.00,-34.12,13.88,-1.00
20642.00,-7.73,-7.17,-2.23,0.19,-1.14,0.84,-17.00,-34.12,13.88,-1.00
20654.00,-7.67,-5.87,-4.06,-0.85,-0.79,1.24,-17.00,-34.12,13.88,-1.00
20666.00,-7.67,-5.87,-4.06,-0.85,-0.79,1.24,-17.00,-34.12,13.88,-1.00
20678.00,-7.19,-3.43,-7.25,-1.21,-0.84,1.43,-17.00,-34.12,13.88,-1.00
20692.00,-7.08,-2.95,-7.57,-0.38,-1.26,1.20,-17.00,-34.12,13.88,-1.00
20704.00,-7.08,-2.95,-7.57,-0.38,-1.26,1.20,-17.00,-34.12,13.88,-1.00
20716.00,-6.89,-3.14,-6.05,0.71,-1.65,0.88,-17.56,-33.40,16.12,-1.00
20728.00,-6.89,-3.14,-6.05,0.71,-1.65,0.88,-17.56,-33.40,16.12,-1.00
20742.00,-6.63,-4.81,-4.81,1.26,-1.82,0.61,-17.56,-33.40,16.12,-1.00
20754.00,-6.97,-5.35,-4.21,1.23,-1.68,0.61,-17.56,-33.40,16.12,-1.00
20766.00,-6.97,-5.35,-4.21,1.23,-1.68,0.61,-17.56,-33.40,16.12,-1.00
20780.00,-7.50,-5.60,-3.34,0.44,-1.38,0.76,-17.56,-33.40,16.12,-1.00
20792.00,-7.34,-6.80,-3.08,-0.44,-1.00,0.98,-17.56,-33.40,16.12,-1.00
20804.00,-7.34,-6.80,-3.08,-0.44,-1.00,0.98,-17.56,-33.40,16.12,-1.00
20816.00,-7.28,-4.53,-5.02,-1.39,-0.68,1.32,-17.56,-33.40,16.12,-1.00
20831.00,-7.28,-4.53,-5.02,-1.39,-0.68,1.32,-17.56,-33.40,16.12,-1.00
20842.00,-7.48,-3.19,-6.56,-1.42,-0.74,1.41,-17.28,-34.12,12.99,-1.00
20854.00,-7.03,-3.99,-6.01,-0.80,-1.02,1.25,-17.28,-34.12,12.99,-1.00
20866.00,-7.03,-3.99,-6.01,-0.80,-1.02,1.25,-17.28,-34.12,12.99,-1.00
20880.00,-7.11,-4.21,-5.92,-0.25,-1.18,1.12,-17.28,-34.12,12.99,-1.00
20892.00,-7.25,-3.17,-6.49,0.06,-1.36,0.96,-17.28,-34.12,12.99,-1.00
20904.00,-7.25,-3.17,-6.49,0.06,-1.36,0.96,-17.28,-34.12,12.99,-1.00
20918.00,-7.22,-3.28,-6.40,0.56,-1.64,0.66,-17.28,-34.12,12.99,-1.00
20930.00,-7.22,-3.28,-6.40,0.56,-1.64,0.66,-17.28,-34.12,12.99,-1.00
20942.00,-7.11,-5.17,-4.66,1.20,-1.75,0.48,-17.28,-34.12,12.99,-1.00
20954.00,-7.29,-5.60,-3.93,0.64,-1.51,0.68,-17.28,-34.12,12.99,-1.00
20968.00,-7.29,-5.60,-3.93,0.64,-1.51,0.68,-17.28,-34.12,12.99,-1.00
20980.00,-7.48,-5.51,-3.76,-0.15,-1.19,0.93,-17.42,-33.94,14.55,-1.00
20992.00,-7.30,-5.93,-4.53,-0.64,-0.91,1.10,-17.42,-33.94,14.55,-1.00
21004.00,-7.30,-5.93,-4.53,-0.64,-0.91,1.10,-17.42,-33.94,14.55,-1.00
21018.00,-7.40,-3.78,-5.86,-1.11,-0.79,1.35,-17.42,-33.94,14.55,-1.00
21030.00,-7.40,-3.78,-5.86,-1.11,-0.79,1.35,-17.42,-33.94,14.55,-1.00
21042.00,-7.27,-3.76,-6.28,-0.79,-1.04,1.22,-17.42,-33.94,14.55,-1.00
21056.00,-7.56,-3.68,-5.95,-0.28,-1.34,0.97,-17.42,-33.94,14.55,-1.00
21068.00,-7.56,-3.68,-5.95,-0.28,-1.34,0.97,-17.42,-33.94,14.55,-1.00
21080.00,-7.39,-2.49,-6.74,0.12,-1.72,0.67,-17.42,-33.94,14.55,-1.00
21092.00,-7.17,-4.75,-5.06,0.88,-1.94,0.42,-17.70,-34.30,15.45,-1.00
21106.00,-7.17,-4.75,-5.06,0.88,-1.94,0.42,-17.70,-34.30,15.45,-1.00
21118.00,-11.21,-5.29,-2.30,0.75,-1.60,0.49,-17.70,-34.30,15.45,-1.00
21130.00,-11.21,-5.29,-2.30,0.75,-1.60,0.49,-17.70,-34.30,15.45,-1.00
21144.00,-5.64,-5.99,-2.83,-0.38,-0.49,0.37,-17.70,-34.30,15.45,-1.00
21156.00,-5.34,-4.91,-5.79,-1.20,-0.33,0.76,-17.70,-34.30,15.45,-1.00
21168.00,-5.34,-4.91,-5.79,-1.20,-0.33,0.76,-17.70,-34.30,15.45,-1.00
21180.00,-4.14,-4.36,-8.23,-1.09,-0.70,1.01,-17.70,-34.30,15.45,-1.00
21194.00,-5.31,-4.48,-7.27,-0.29,-1.35,1.19,-17.70,-34.30,15.45,-1.00
21206.00,-5.31,-4.48,-7.27,-0.29,-1.35,1.19,-17.70,-34.30,15.45,-1.00
21218.00,-6.59,-4.62,-5.36,0.33,-1.72,1.30,-17.42,-33.58,11.43,-1.00
21230.00,-6.59,-4.62,-5.36,0.33,-1.72,1.30,-17.42,-33.58,11.43,-1.00
21244.00,-10.59,-3.66,-5.52,0.48,-1.83,1.43,-17.42,-33.58,11.43,-1.00
21256.00,-9.27,-3.67,-4.55,0.38,-1.48,1.25,-17.42,-33.58,11.43,-1.00
21268.00,-9.27,-3.67,-4.55,0.38,-1.48,1.25,-17.42,-33.58,11.43,-1.00
21283.00,-7.99,-4.54,-4.41,0.11,-1.36,1.10,-17.42,-33.58,11.43,-1.00
21294.00,-7.33,-4.24,-4.83,-0.15,-1.41,1.07,-17.42,-33.58,11.43,-1.00
21306.00,-7.33,-4.24,-4.83,-0.15,-1.41,1.07,-17.42,-33.58,11.43,-1.00
21318.00,-6.91,-3.46,-5.72,-0.23,-1.47,0.93,-17.42,-33.58,11.43,-1.00
21332.00,-6.70,-4.37,-5.96,-0.07,-1.49,0.70,-17.98,-32.14,13.21,-1.00
21344.00,-6.70,-4.37,-5.96,-0.07,-1.49,0.70,-17.98,-32.14,13.21,-1.00
21356.00,-6.80,-3.91,-5.51,0.14,-1.39,0.73,-17.98,-32.14,13.21,-1.00
21370.00,-6.80,-3.91,-5.51,0.14,-1.39,0.73,-17.98,-32.14,13.21,-1.00
21382.00,-7.11,-4.48,-5.37,0.38,-1.25,0.72,-17.98,-32.14,13.21,-1.00
21394.00,-7.40,-5.90,-4.50,0.52,-1.09,0.80,-17.98,-32.14,13.21,-1.00
21406.00,-7.40,-5.90,-4.50,0.52,-1.09,0.80,-17.98,-32.14,13.21,-1.00
21420.00,-8.03,-5.15,-4.37,0.05,-0.89,1.08,-17.98,-32.14,13.21,-1.00
21510.00,-9.51,-1.23,-6.34,-0.74,-1.57,0.93,-17.56,-31.24,11.20,-1.00
21599.00,-7.24,-4.23,-5.38,0.30,-1.75,1.33,-17.00,-33.40,10.76,-1.00
21689.00,-7.27,-5.36,-4.24,0.12,-1.03,0.89,-17.00,-33.40,10.76,-1.00
21703.00,-7.65,-5.72,-4.09,-0.38,-0.84,1.14,-17.00,-33.40,10.76,-1.00
21715.00,-7.87,-4.92,-5.39,-0.55,-0.82,1.38,-17.14,-33.22,12.32,-1.00
21727.00,-7.87,-4.92,-5.39,-0.55,-0.82,1.38,-17.14,-33.22,12.32,-1.00
21741.00,-7.87,-3.30,-6.35,-0.47,-1.04,1.41,-17.14,-33.22,12.32,-1.00
21754.00,-8.23,-2.61,-7.00,-0.36,-1.35,1.21,-17.14,-33.22,12.32,-1.00
21766.00,-8.23,-2.61,-7.00,-0.36,-1.35,1.21,-17.14,-33.22,12.32,-1.00
21778.00,-9.57,-1.44,-7.72,-0.04,-1.74,0.88,-17.14,-33.22,12.32,-1.00
21793.00,-15.86,-1.75,-2.47,0.14,-1.54,0.06,-17.14,-33.22,12.32,-1.00
21804.00,-15.86,-1.75,-2.47,0.14,-1.54,0.06,-17.14,-33.22,12.32,-1.00
21816.00,-13.49,-0.95,-1.01,-0.38,-0.91,-1.21,-17.14,-33.22,12.32,-1.00
21828.00,-13.49,-0.95,-1.01,-0.38,-0.91,-1.21,-17.14,-33.22,12.32,-1.00
21842.00,-2.65,-3.40,0.06,0.06,-0.43,-2.28,-17.14,-33.22,12.32,-1.00
21854.00,-2.10,-10.39,-7.03,0.04,-0.15,-2.12,-13.79,-37.53,10.09,-1.00
21866.00,-2.10,-10.39,-7.03,0.04,-0.15,-2.12,-13.79,-37.53,10.09,-1.00
21880.00,1.00,-6.22,-11.34,-0.90,-0.70,-0.56,-13.79,-37.53,10.09,-1.00
21892.00,-2.61,-5.93,-1.78,-0.69,-1.82,0.66,-13.79,-37.53,10.09,-1.00
21904.00,-2.61,-5.93,-1.78,-0.69,-1.82,0.66,-13.79,-37.53,10.09,-1.00
21916.00,0.08,-8.31,-5.22,-0.60,-1.16,1.31,-13.79,-37.53,10.09,-1.00
21930.00,0.08,-8.31,-5.22,-0.60,-1.16,1.31,-13.79,-37.53,10.09,-1.00
21942.00,-0.80,-6.18,-7.73,-0.68,-0.80,2.51,-13.79,-37.53,10.09,-1.00
21954.00,-6.97,-5.18,-13.87,-0.21,-0.73,2.95,-13.79,-37.53,10.09,-1.00
21968.00,-6.97,-5.18,-13.87,-0.21,-0.73,2.95,-13.79,-37.53,10.09,-1.00
21980.00,-5.99,-0.02,-11.21,0.05,-1.32,2.44,-14.49,-35.20,4.96,-1.00
21992.00,-5.59,-4.09,-7.64,1.75,-2.07,1.83,-14.49,-35.20,4.96,-1.00
22004.00,-5.59,-4.09,-7.64,1.75,-2.07,1.83,-14.49,-35.20,4.96,-1.00
22018.00,-10.08,-4.02,-2.56,2.48,-2.38,1.94,-14.49,-35.20,4.96,-1.00
22030.00,-10.08,-4.02,-2.56,2.48,-2.38,1.94,-14.49,-35.20,4.96,-1.00
22042.00,-10.64,-4.26,-0.90,2.17,-1.94,1.71,-14.49,-35.20,4.96,-1.00
22054.00,-9.76,-4.16,-2.66,1.59,-1.38,1.25,-14.49,-35.20,4.96,-1.00
22069.00,-9.76,-4.16,-2.66,1.59,-1.38,1.25,-14.49,-35.20,4.96,-1.00
22080.00,-7.56,-4.60,-4.82,0.87,-1.09,0.90,-14.49,-35.20,4.96,-1.00
22092.00,-6.41,-5.03,-6.63,0.07,-1.08,0.83,-15.75,-35.73,4.96,-1.00
22106.00,-6.41,-5.03,-6.63,0.07,-1.08,0.83,-15.75,-35.73,16.78,-1.00
22118.00,-6.90,-4.62,-5.52,-0.13,-1.32,0.96,-15.75,-35.73,16.78,-1.00
22130.00,-6.90,-4.62,-5.52,-0.13,-1.32,0.96,-15.75,-35.73,16.78,-1.00
22142.00,-7.78,-4.76,-3.52,0.17,-1.61,0.98,-15.75,-35.73,16.78,-1.00
22156.00,-7.70,-6.17,-2.88,0.31,-1.48,0.91,-15.75,-35.73,16.78,-1.00
22168.00,-7.70,-6.17,-2.88,0.31,-1.48,0.91,-15.75,-35.73,16.78,-1.00
22180.00,-7.07,-5.53,-4.93,0.02,-1.25,0.93,-15.75,-35.73,16.78,-1.00
22192.00,-7.14,-4.65,-5.86,-0.13,-1.28,0.94,-15.75,-35.73,16.78,-1.00
22206.00,-7.14,-4.65,-5.86,-0.13,-1.28,0.94,-15.75,-35.73,16.78,-1.00
22218.00,-7.43,-4.18,-5.00,-0.09,-1.35,0.91,-16.17,-34.48,17.90,-1.00
22230.00,-7.43,-4.18,-5.00,-0.09,-1.35,0.91,-16.17,-34.48,17.90,-1.00
22244.00,-7.23,-6.02,-3.43,-0.05,-1.25,0.88,-16.17,-34.48,17.90,-1.00
22256.00,-7.73,-6.26,-3.78,-0.52,-0.85,1.21,-16.17,-34.48,17.90,-1.00
22268.00,-7.73,-6.26,-3.78,-0.52,-0.85,1.21,-16.17,-34.48,17.90,-1.00
22280.00,-7.77,-3.73,-4.98,-1.07,-0.77,1.49,-16.17,-34.48,17.90,-1.00
22294.00,-7.35,-3.95,-5.40,-0.64,-1.00,1.34,-16.17,-34.48,17.90,-1.00
22306.00,-7.35,-3.95,-5.40,-0.64,-1.00,1.34,-16.17,-34.48,17.90,-1.00
22318.00,-7.66,-3.56,-6.36,-0.14,-1.27,1.13,-16.17,-34.48,17.90,-1.00
22332.00,-7.66,-3.56,-6.36,-0.14,-1.27,1.13,-16.17,-34.48,17.90,-1.00
22344.00,-7.35,-3.29,-5.63,0.41,-1.65,0.85,-16.17,-34.48,17.90,-1.00
22356.00,-7.00,-4.75,-4.45,0.80,-1.79,0.56,-17.42,-33.94,15.00,-1.00
22368.00,-7.00,-4.75,-4.45,0.80,-1.79,0.56,-17.42,-33.94,15.00,-1.00
22382.00,-7.17,-6.14,-3.59,0.64,-1.58,0.62,-17.42,-33.94,15.00,-1.00
22394.00,-7.48,-5.07,-4.11,-0.14,-1.23,0.89,-17.42,-33.94,15.00,-1.00
22406.00,-7.48,-5.07,-4.11,-0.14,-1.23,0.89,-17.42,-33.94,15.00,-1.00
22418.00,-7.44,-5.49,-4.52,-0.54,-1.00,1.03,-17.42,-33.94,15.00,-1.00
22432.00,-7.44,-5.49,-4.52,-0.54,-1.00,1.03,-17.42,-33.94,15.00,-1.00
22444.00,-7.36,-5.20,-4.45,-0.88,-0.83,1.25,-17.42,-33.94,15.00,-1.00
22456.00,-7.58,-4.08,-5.39,-0.98,-0.83,1.35,-17.42,-33.94,15.00,-1.00
22471.00,-7.58,-4.08,-5.39,-0.98,-0.83,1.35,-17.42,-33.94,15.00,-1.00
22482.00,-7.17,-3.97,-5.90,-0.66,-1.05,1.18,-17.98,-33.94,10.98,-1.00
22494.00,-7.76,-3.23,-5.94,-0.29,-1.32,0.97,-17.98,-33.94,10.98,-1.00
22506.00,-7.76,-3.23,-5.94,-0.29,-1.32,0.97,-17.98,-33.94,10.98,-1.00
22520.00,-7.69,-3.85,-5.10,0.13,-1.63,0.71,-17.98,-33.94,10.98,-1.00
22532.00,-7.69,-3.85,-5.10,0.13,-1.63,0.71,-17.98,-33.94,10.98,-1.00
22544.00,-7.06,-5.48,-4.41,0.28,-1.63,0.65,-17.98,-33.94,10.98,-1.00
22556.00,-7.13,-4.85,-5.07,-0.15,-1.34,0.87,-17.98,-33.94,10.98,-1.00
22570.00,-7.13,-4.85,-5.07,-0.15,-1.34,0.87,-17.98,-33.94,10.98,-1.00
22582.00,-7.43,-4.99,-4.52,-0.40,-1.17,1.01,-17.98,-33.94,10.98,-1.00
22594.00,-7.23,-5.02,-4.64,-0.67,-0.96,1.20,-18.26,-33.58,14.55,-1.00
22608.00,-7.23,-5.02,-4.64,-0.67,-0.96,1.20,-18.26,-33.58,14.55,-1.00
22620.00,-7.31,-3.87,-5.48,-0.86,-0.83,1.32,-18.26,-33.58,14.55,-1.00
22632.00,-7.31,-3.87,-5.48,-0.86,-0.83,1.32,-18.26,-33.58,14.55,-1.00
22645.00,-7.50,-3.25,-5.97,-0.58,-0.99,1.17,-18.26,-33.58,14.55,-1.00
22659.00,-7.61,-3.79,-5.67,-0.17,-1.20,0.92,-18.26,-33.58,14.55,-1.00
22671.00,-7.61,-3.79,-5.67,-0.17,-1.20,0.92,-18.26,-33.58,14.55,-1.00
22683.00,-7.61,-3.39,-5.61,0.08,-1.41,0.76,-18.26,-33.58,14.55,-1.00
22697.00,-7.60,-4.69,-4.85,0.42,-1.60,0.59,-18.26,-33.58,14.55,-1.00
22709.00,-7.60,-4.69,-4.85,0.42,-1.60,0.59,-18.26,-33.58,14.55,-1.00
22721.00,-7.36,-5.01,-4.64,0.16,-1.54,0.69,-18.26,-32.86,12.32,-1.00
22733.00,-7.35,-4.87,-4.93,-0.27,-1.33,0.89,-18.26,-32.86,12.32,-1.00
22747.00,-7.35,-4.87,-4.93,-0.27,-1.33,0.89,-18.26,-32.86,12.32,-1.00
22759.00,-7.39,-4.52,-4.97,-0.58,-1.20,1.04,-18.26,-32.86,12.32,-1.00
22771.00,-7.39,-4.52,-4.97,-0.58,-1.20,1.04,-18.26,-32.86,12.32,-1.00
22783.00,-7.24,-4.31,-5.08,-0.68,-1.10,1.13,-18.26,-32.86,12.32,-1.00
22798.00,-7.41,-3.66,-5.47,-0.76,-0.99,1.21,-18.26,-32.86,12.32,-1.00
22809.00,-7.41,-3.66,-5.47,-0.76,-0.99,1.21,-18.26,-32.86,12.32,-1.00
22821.00,-7.46,-3.68,-5.81,-0.65,-0.98,1.17,-18.26,-32.86,12.32,-1.00
22835.00,-7.42,-3.29,-6.12,-0.38,-1.07,1.08,-18.26,-32.86,12.32,-1.00
22847.00,-7.42,-3.29,-6.12,-0.38,-1.07,1.08,-18.26,-32.86,12.32,-1.00
22859.00,-7.56,-3.81,-5.68,-0.22,-1.19,0.99,-17.70,-32.86,8.75,-1.00
22871.00,-7.56,-3.81,-5.68,-0.22,-1.19,0.99,-17.70,-32.86,8.75,-1.00
22885.00,-7.75,-4.12,-5.16,-0.18,-1.24,0.99,-17.70,-32.86,8.75,-1.00
22897.00,-7.85,-2.96,-5.49,-0.26,-1.31,0.97,-17.70,-32.86,8.75,-1.00
22909.00,-7.85,-2.96,-5.49,-0.26,-1.31,0.97,-17.70,-32.86,8.75,-1.00
22921.00,-7.59,-4.09,-5.28,-0.01,-1.44,0.79,-17.70,-32.86,8.75,-1.00
22935.00,-6.99,-3.85,-6.02,0.06,-1.45,0.78,-17.70,-32.86,8.75,-1.00
22947.00,-6.99,-3.85,-6.02,0.06,-1.45,0.78,-17.70,-32.86,8.75,-1.00
22959.00,-6.92,-3.97,-6.05,0.11,-1.40,0.79,-17.70,-32.86,8.75,-1.00
22973.00,-6.96,-3.22,-5.83,0.30,-1.33,0.83,-18.54,-32.86,8.75,-1.00
22985.00,-6.96,-3.22,-5.83,0.30,-1.33,0.83,-18.54,-32.86,8.75,-1.00
22997.00,-7.14,-3.73,-5.53,0.76,-1.30,0.71,-18.54,-32.86,8.75,-1.00
23009.00,-7.14,-3.73,-5.53,0.76,-1.30,0.71,-18.54,-32.86,8.75,-1.00
23023.00,-7.58,-5.53,-3.99,0.54,-1.20,0.72,-18.54,-32.86,8.75,-1.00
23035.00,-8.01,-5.77,-2.95,-0.35,-0.89,1.15,-18.54,-32.86,8.75,-1.00
23047.00,-8.01,-5.77,-2.95,-0.35,-0.89,1.15,-18.54,-32.86,8.75,-1.00
23059.00,-8.70,-3.94,-5.24,-1.11,-0.59,1.67,-18.54,-32.86,8.75,-1.00
23074.00,-9.00,-1.53,-7.39,-1.26,-0.67,1.73,-18.54,-32.86,8.75,-1.00
23085.00,-9.00,-1.53,-7.39,-1.26,-0.67,1.73,-18.54,-32.86,8.75,-1.00
23097.00,-10.12,0.34,-9.50,-1.00,-1.36,1.20,-18.40,-30.52,4.96,-1.00
23112.00,-10.12,0.34,-9.50,-1.00,-1.36,1.20,-18.40,-30.52,4.96,-1.00
23123.00,-13.31,0.65,-5.88,-0.44,-1.93,0.13,-18.40,-30.52,4.96,-1.00
23135.00,-12.34,-2.11,0.96,-0.15,-1.83,-1.17,-18.40,-30.52,4.96,-1.00
23147.00,-12.34,-2.11,0.96,-0.15,-1.83,-1.17,-18.40,-30.52,4.96,-1.00
23161.00,-3.14,-4.93,-3.32,-0.11,-0.64,-2.10,-18.40,-30.52,4.96,-1.00
23173.00,-3.14,-4.93,-3.32,-0.11,-0.64,-2.10,-18.40,-30.52,4.96,-1.00
23185.00,-2.01,-4.76,-6.14,1.87,-0.54,-1.51,-18.40,-30.52,4.96,-1.00
23197.00,2.76,-9.44,-3.00,2.15,-0.91,-0.47,-18.40,-30.52,4.96,-1.00
23211.00,2.76,-9.44,-3.00,2.15,-0.91,-0.47,-18.40,-30.52,4.96,-1.00
23223.00,1.68,-10.54,-8.27,0.88,-0.23,1.20,-13.37,-38.07,9.87,-1.00
23235.00,-3.14,-6.77,-12.78,0.33,-0.09,2.78,-13.37,-38.07,9.87,-1.00
23249.00,-3.14,-6.77,-12.78,0.33,-0.09,2.78,-13.37,-38.07,9.87,-1.00
23261.00,-9.53,-3.46,-9.80,0.29,-1.03,3.10,-13.37,-38.07,9.87,-1.00
23273.00,-9.53,-3.46,-9.80,0.29,-1.03,3.10,-13.37,-38.07,9.87,-1.00
23285.00,-10.04,-1.41,-4.08,0.45,-1.83,2.50,-13.37,-38.07,9.87,-1.00
23299.00,-11.36,-3.16,-2.72,0.94,-1.91,1.60,-13.37,-38.07,9.87,-1.00
23311.00,-11.36,-3.16,-2.72,0.94,-1.91,1.60,-13.37,-38.07,9.87,-1.00
23323.00,-7.76,-6.02,-3.36,0.59,-1.66,1.26,-13.37,-38.07,9.87,-1.00
23335.00,-6.92,-3.85,-5.67,-0.27,-1.47,1.50,-13.37,-38.07,9.87,-1.00
23349.00,-6.92,-3.85,-5.67,-0.27,-1.47,1.50,-13.37,-38.07,9.87,-1.00
23361.00,-6.78,-3.90,-5.76,-0.29,-1.54,1.32,-16.86,-33.94,14.55,-1.00
23373.00,-6.78,-3.90,-5.76,-0.29,-1.54,1.32,-16.86,-33.94,14.55,-1.00
23388.00,-9.49,-4.56,-2.63,0.01,-1.68,1.04,-16.86,-33.94,14.55,-1.00
23399.00,-7.89,-4.78,-4.67,-0.12,-1.38,0.76,-16.86,-33.94,14.55,-1.00
23411.00,-7.89,-4.78,-4.67,-0.12,-1.38,0.76,-16.86,-33.94,14.55,-1.00
23423.00,-7.12,-4.04,-6.21,-0.05,-1.30,0.80,-16.86,-33.94,14.55,-1.00
23437.00,-6.99,-4.45,-5.69,0.24,-1.33,0.77,-16.86,-33.94,14.55,-1.00
23449.00,-6.99,-4.45,-5.69,0.24,-1.33,0.77,-16.86,-33.94,14.55,-1.00
23461.00,-7.41,-5.14,-4.71,0.34,-1.27,0.78,-16.86,-33.94,14.55,-1.00
23473.00,-7.41,-5.14,-4.71,0.34,-1.27,0.78,-16.86,-33.94,14.55,-1.00
23487.00,-7.70,-5.77,-4.01,0.10,-1.09,0.93,-18.54,-35.02,15.00,-1.00
23499.00,-8.28,-5.09,-4.74,-0.42,-0.89,1.20,-18.54,-35.02,15.00,-1.00
23511.00,-8.28,-5.09,-4.74,-0.42,-0.89,1.20,-18.54,-35.02,15.00,-1.00
23525.00,-8.30,-3.77,-5.05,-0.74,-0.97,1.40,-18.54,-35.02,15.00,-1.00
23537.00,-7.74,-4.25,-5.49,-0.75,-1.16,1.34,-18.54,-35.02,15.00,-1.00
23549.00,-7.74,-4.25,-5.49,-0.75,-1.16,1.34,-18.54,-35.02,15.00,-1.00
23561.00,-7.04,-3.59,-5.32,-0.74,-1.40,1.15,-18.54,-35.02,15.00,-1.00
23575.00,-6.95,-2.93,-6.42,-0.42,-1.47,0.85,-18.54,-35.02,15.00,-1.00
23587.00,-6.95,-2.93,-6.42,-0.42,-1.47,0.85,-18.54,-35.02,15.00,-1.00
23599.00,-6.67,-4.31,-5.64,0.25,-1.53,0.61,-18.40,-32.68,9.42,-1.00
23613.00,-6.67,-4.31,-5.64,0.25,-1.53,0.61,-18.40,-32.68,9.42,-1.00
23625.00,-7.09,-4.13,-5.30,0.73,-1.46,0.60,-18.40,-32.68,9.42,-1.00
23637.00,-7.86,-5.22,-4.04,0.74,-1.32,0.68,-18.40,-32.68,9.42,-1.00
23649.00,-7.86,-5.22,-4.04,0.74,-1.32,0.68,-18.40,-32.68,9.42,-1.00
23663.00,-8.41,-4.86,-4.23,0.32,-1.16,0.95,-18.40,-32.68,9.42,-1.00
23675.00,-7.76,-5.43,-4.66,-0.08,-1.03,1.27,-18.40,-32.68,9.42,-1.00
23687.00,-7.76,-5.43,-4.66,-0.08,-1.03,1.27,-18.40,-32.68,9.42,-1.00
23699.00,-7.36,-4.69,-4.60,-0.75,-0.99,1.56,-18.40,-32.68,9.42,-1.00
23714.00,-7.36,-4.69,-4.60,-0.75,-0.99,1.56,-18.40,-32.68,9.42,-1.00
23725.00,-6.60,-4.12,-5.13,-1.05,-0.99,1.58,-18.40,-32.68,9.42,-1.00
23737.00,-6.91,-3.19,-5.86,-0.99,-1.01,1.39,-18.26,-31.42,9.64,-1.00
23751.00,-6.91,-3.19,-5.86,-0.99,-1.01,1.39,-18.26,-31.42,9.64,-1.00
23840.00,-7.44,-3.30,-5.32,0.61,-1.34,0.68,-18.26,-31.42,9.64,-1.00
23930.00,-7.44,-4.51,-4.87,-0.41,-1.38,0.72,-17.98,-32.14,12.32,-1.00
24020.00,-7.51,-4.17,-5.46,-0.09,-1.36,0.77,-18.12,-33.04,9.42,-1.00
24033.00,-7.51,-4.17,-5.46,-0.09,-1.36,0.77,-18.12,-33.04,9.42,-1.00
24045.00,-7.28,-4.08,-5.60,-0.08,-1.34,0.85,-18.12,-33.04,9.42,-1.00
24057.00,-7.60,-3.81,-5.22,-0.11,-1.28,0.94,-18.12,-33.04,9.42,-1.00
24069.00,-7.60,-3.81,-5.22,-0.11,-1.28,0.94,-18.12,-33.04,9.42,-1.00
24083.00,-7.77,-4.86,-4.49,-0.14,-1.22,0.97,-18.12,-33.04,9.42,-1.00
24095.00,-7.70,-4.20,-4.96,-0.51,-1.08,1.17,-17.14,-30.34,9.64,-1.00
24107.00,-7.70,-4.20,-4.96,-0.51,-1.08,1.17,-17.14,-30.34,9.64,-1.00
24121.00,-7.33,-3.97,-5.58,-0.67,-0.95,1.30,-17.14,-30.34,9.64,-1.00
24133.00,-7.33,-3.97,-5.58,-0.67,-0.95,1.30,-17.14,-30.34,9.64,-1.00
24145.00,-7.60,-2.97,-5.95,-0.64,-1.00,1.25,-17.14,-30.34,9.64,-1.00
24158.00,-7.91,-3.46,-5.75,-0.38,-1.11,1.08,-17.14,-30.34,9.64,-1.00
24171.00,-7.91,-3.46,-5.75,-0.38,-1.11,1.08,-17.14,-30.34,9.64,-1.00
24183.00,-11.32,-1.67,-5.45,-0.27,-1.24,0.95,-17.14,-30.34,9.64,-1.00
24195.00,-7.20,-2.91,-3.54,-0.10,-0.91,0.36,-17.14,-30.34,9.64,-1.00
24207.00,-7.20,-2.91,-3.54,-0.10,-0.91,0.36,-17.14,-30.34,9.64,-1.00
24221.00,-4.02,-5.32,-7.95,-0.25,-0.83,0.18,-17.14,-30.34,9.64,-1.00
24233.00,-4.02,-5.32,-7.95,-0.25,-0.83,0.18,-17.14,-30.34,9.64,-1.00
24245.00,-2.87,-5.03,-9.02,-0.26,-1.42,0.77,-18.12,-31.96,7.19,-1.00
24259.00,-6.40,-3.09,-6.89,0.19,-1.88,1.28,-18.12,-31.96,7.19,-1.00
24271.00,-6.40,-3.09,-6.89,0.19,-1.88,1.28,-18.12,-31.96,7.19,-1.00
24283.00,-12.10,-3.34,-2.06,0.70,-2.02,1.22,-18.12,-31.96,7.19,-1.00
24295.00,-8.15,-4.53,-4.11,0.33,-1.33,0.92,-18.12,-31.96,7.19,-1.00
24310.00,-8.15,-4.53,-4.11,0.33,-1.33,0.92,-18.12,-31.96,7.19,-1.00
24322.00,-7.28,-2.18,-7.40,-0.01,-1.04,1.04,-18.12,-31.96,7.19,-1.00
24334.00,-7.28,-2.18,-7.40,-0.01,-1.04,1.04,-18.12,-31.96,7.19,-1.00
24346.00,-7.22,-4.19,-5.51,0.22,-1.07,1.05,-18.12,-31.96,7.19,-1.00
24361.00,-7.83,-4.31,-4.46,0.03,-0.87,1.19,-18.26,-31.42,9.20,-1.00
24373.00,-7.83,-4.31,-4.46,0.03,-0.87,1.19,-18.26,-31.42,9.20,-1.00
24385.00,-8.37,-3.41,-4.93,-0.14,-0.86,1.33,-18.26,-31.42,9.20,-1.00
24399.00,-7.83,-3.94,-5.76,-0.09,-1.02,1.24,-18.26,-31.42,9.20,-1.00
24411.00,-7.83,-3.94,-5.76,-0.09,-1.02,1.24,-18.26,-31.42,9.20,-1.00
24423.00,-7.86,-2.33,-6.78,-0.21,-1.30,1.10,-18.26,-31.42,9.20,-1.00
24435.00,-7.76,-2.42,-5.89,0.05,-1.66,0.72,-18.26,-31.42,9.20,-1.00
24450.00,-7.76,-2.42,-5.89,0.05,-1.66,0.72,-18.26,-31.42,9.20,-1.00
24461.00,-7.31,-4.62,-5.05,0.38,-1.67,0.52,-18.26,-31.42,9.20,-1.00
24473.00,-7.31,-4.62,-5.05,0.38,-1.67,0.52,-18.26,-31.42,9.20,-1.00
24485.00,-7.38,-4.04,-4.70,0.36,-1.49,0.69,-17.14,-31.42,6.96,-1.00
24499.00,-7.54,-4.22,-5.10,0.02,-1.22,0.86,-17.14,-31.42,6.96,-1.00
24511.00,-7.54,-4.22,-5.10,0.02,-1.22,0.86,-17.14,-31.42,6.96,-1.00
24523.00,-7.68,-4.16,-5.04,-0.21,-1.06,1.05,-17.14,-31.42,6.96,-1.00
24537.00,-7.43,-3.89,-5.39,-0.37,-0.91,1.24,-17.14,-31.42,6.96,-1.00
24549.00,-7.43,-3.89,-5.39,-0.37,-0.91,1.24,-17.14,-31.42,6.96,-1.00
24561.00,-7.67,-3.65,-5.18,-0.48,-0.86,1.35,-17.14,-31.42,6.96,-1.00
24573.00,-7.67,-3.65,-5.18,-0.48,-0.86,1.35,-17.14,-31.42,6.96,-1.00
24587.00,-7.55,-2.98,-6.03,-0.51,-0.98,1.23,-17.14,-31.42,6.96,-1.00
24599.00,-7.61,-3.74,-5.89,-0.38,-1.15,1.01,-17.56,-29.80,5.85,-1.00
24611.00,-7.61,-3.74,-5.89,-0.38,-1.15,1.01,-17.56,-29.80,5.85,-1.00
24623.00,-8.08,-1.99,-6.30,-0.31,-1.32,0.92,-17.56,-29.80,5.85,-1.00
24637.00,-7.71,-3.29,-5.61,0.19,-1.55,0.63,-17.56,-29.80,5.85,-1.00
24649.00,-7.71,-3.29,-5.61,0.19,-1.55,0.63,-17.56,-29.80,5.85,-1.00
24661.00,-7.19,-4.30,-5.63,0.35,-1.57,0.59,-17.56,-29.80,5.85,-1.00
24675.00,-7.42,-3.85,-5.25,-0.01,-1.41,0.83,-17.56,-29.80,5.85,-1.00
24687.00,-7.42,-3.85,-5.25,-0.01,-1.41,0.83,-17.56,-29.80,5.85,-1.00
24699.00,-7.87,-4.08,-4.55,-0.21,-1.23,0.99,-17.56,-29.80,5.85,-1.00
24711.00,-7.87,-4.08,-4.55,-0.21,-1.23,0.99,-17.56,-29.80,5.85,-1.00
24726.00,-7.64,-4.42,-4.66,-0.48,-1.00,1.19,-17.56,-29.80,5.85,-1.00
24737.00,-7.40,-3.31,-5.92,-0.90,-0.86,1.41,-18.82,-29.27,4.29,-1.00
24749.00,-7.40,-3.31,-5.92,-0.90,-0.86,1.41,-18.82,-29.27,4.29,-1.00
24761.00,-7.46,-2.12,-6.64,-0.78,-0.98,1.29,-18.82,-29.27,4.29,-1.00
24775.00,-7.51,-2.88,-6.38,-0.45,-1.18,0.97,-18.82,-29.27,4.29,-1.00
24787.00,-7.51,-2.88,-6.38,-0.45,-1.18,0.97,-18.82,-29.27,4.29,-1.00
24799.00,-8.04,-1.69,-6.51,-0.14,-1.34,0.79,-18.82,-29.27,4.29,-1.00
24813.00,-8.04,-1.69,-6.51,-0.14,-1.34,0.79,-18.82,-29.27,4.29,-1.00
24825.00,-7.86,-2.95,-5.59,0.38,-1.55,0.49,-18.82,-29.27,4.29,-1.00
24837.00,-7.26,-4.56,-5.56,0.35,-1.49,0.59,-18.82,-29.27,4.29,-1.00
24849.00,-7.26,-4.56,-5.56,0.35,-1.49,0.59,-18.82,-29.27,4.29,-1.00
24863.00,-8.03,-3.97,-4.67,-0.03,-1.33,0.99,-18.12,-29.45,3.62,-1.00
24875.00,-8.10,-4.19,-4.26,-0.37,-1.14,1.23,-18.12,-29.45,3.62,-1.00
24887.00,-8.10,-4.19,-4.26,-0.37,-1.14,1.23,-18.12,-29.45,3.62,-1.00
24899.00,-8.00,-1.73,-6.49,-0.81,-0.92,1.45,-18.12,-29.45,3.62,-1.00
24913.00,-8.00,-1.73,-6.49,-0.81,-0.92,1.45,-18.12,-29.45,3.62,-1.00
24925.00,-7.60,-1.95,-7.44,-0.62,-0.97,1.24,-18.12,-29.45,3.62,-1.00
24937.00,-9.70,-0.53,-5.24,-0.30,-1.15,0.81,-18.12,-29.45,3.62,-1.00
24951.00,-9.70,-0.53,-5.24,-0.30,-1.15,0.81,-18.12,-29.45,3.62,-1.00
24963.00,-5.85,-5.06,-5.33,0.21,-1.07,0.33,-18.12,-29.45,3.62,-1.00
24975.00,-5.85,-5.06,-5.33,0.21,-1.07,0.33,-18.12,-29.45,3.62,-1.00
24987.00,-5.96,-4.95,-5.91,-0.03,-1.30,0.74,-20.64,-29.45,1.38,-1.00
25001.00,-5.76,-2.65,-8.61,-0.31,-1.39,1.11,-20.64,-29.45,1.38,-1.00
25013.00,-5.76,-2.65,-8.61,-0.31,-1.39,1.11,-20.64,-29.45,1.38,-1.00
25025.00,-11.12,-2.07,-6.34,-0.01,-1.92,1.05,-20.64,-29.45,1.38,-1.00
25037.00,-8.22,-3.34,-4.04,0.11,-1.75,0.77,-20.64,-29.45,1.38,-1.00
25052.00,-8.22,-3.34,-4.04,0.11,-1.75,0.77,-20.64,-29.45,1.38,-1.00
25063.00,-7.51,-2.84,-5.77,-0.04,-1.38,0.81,-20.64,-29.45,1.38,-1.00
25075.00,-7.51,-2.84,-5.77,-0.04,-1.38,0.81,-20.64,-29.45,1.38,-1.00
25089.00,-7.59,-2.50,-5.26,0.20,-1.18,0.90,-20.64,-29.45,1.38,-1.00
25101.00,-7.10,-4.11,-5.54,0.36,-0.97,0.92,-19.10,-29.27,4.73,-1.00
25113.00,-7.10,-4.11,-5.54,0.36,-0.97,0.92,-19.10,-29.27,4.73,-1.00
25125.00,-7.94,-4.46,-4.76,0.28,-0.85,1.21,-19.10,-29.27,4.73,-1.00
25139.00,-8.23,-4.16,-5.03,0.14,-0.82,1.44,-19.10,-29.27,4.73,-1.00
25151.00,-8.23,-4.16,-5.03,0.14,-0.82,1.44,-19.10,-29.27,4.73,-1.00
25163.00,-7.65,-3.09,-5.94,0.02,-1.00,1.49,-19.10,-29.27,4.73,-1.00
25175.00,-7.65,-3.09,-5.94,0.02,-1.00,1.49,-19.10,-29.27,4.73,-1.00
25189.00,-7.82,-3.17,-6.09,-0.16,-1.25,1.29,-19.10,-29.27,4.73,-1.00
25201.00,-7.99,-0.34,-6.79,-0.45,-1.53,0.95,-19.10,-29.27,4.73,-1.00
