time,ax,ay,az,gx,gy,gz,mx,my,mz,pressure
222.00,-0.15,6.17,-7.82,-0.26,0.05,-3.28,-16.07,42.88,-17.59,-1.00
234.00,-0.11,6.20,-7.82,-0.26,0.05,-3.28,-16.07,42.88,-17.59,-1.00
246.00,-0.11,6.20,-7.82,-0.26,0.05,-3.28,-16.07,42.88,-17.59,-1.00
258.00,-0.10,6.22,-7.81,-0.26,0.05,-3.28,-16.07,42.88,-17.59,-1.00
271.00,-0.10,6.21,-7.80,-0.26,0.05,-3.28,-16.07,42.88,-17.59,-1.00
283.00,-0.10,6.21,-7.80,-0.26,0.05,-3.28,-16.07,42.88,-17.59,-1.00
296.00,-0.10,6.17,-7.81,-0.26,0.05,-3.28,-16.65,43.68,-17.10,-1.00
309.00,-0.10,6.17,-7.81,-0.26,0.05,-3.28,-16.65,43.68,-17.10,-1.00
321.00,-0.13,6.17,-7.89,-0.26,0.05,-3.28,-16.65,43.68,-17.10,-1.00
333.00,-0.18,6.14,-7.87,-0.26,0.05,-3.28,-16.65,43.68,-17.10,-1.00
345.00,-0.18,6.14,-7.87,-0.26,0.05,-3.28,-16.65,43.68,-17.10,-1.00
358.00,-0.21,6.14,-7.86,-0.26,0.05,-3.28,-16.65,43.68,-17.10,-1.00
370.00,-0.21,6.14,-7.86,-0.26,0.05,-3.28,-16.65,43.68,-17.10,-1.00
382.00,-0.17,6.15,-7.83,-0.26,0.05,-3.28,-16.65,43.68,-17.10,-1.00
394.00,-0.11,6.18,-7.86,-0.26,0.05,-3.27,-16.65,43.68,-17.10,-1.00
407.00,-0.11,6.18,-7.86,-0.26,0.05,-3.27,-16.65,43.68,-17.10,-1.00
419.00,-0.06,6.19,-7.82,-0.27,0.06,-3.27,-15.67,43.20,-15.93,-1.00
431.00,-0.05,6.22,-7.82,-0.26,0.06,-3.28,-15.67,43.20,-15.93,-1.00
443.00,-0.05,6.22,-7.82,-0.26,0.06,-3.28,-15.67,43.20,-15.93,-1.00
457.00,-0.07,6.18,-7.79,-0.26,0.05,-3.28,-15.67,43.20,-15.93,-1.00
468.00,-0.07,6.18,-7.79,-0.26,0.05,-3.28,-15.67,43.20,-15.93,-1.00
480.00,-0.10,6.17,-7.82,-0.26,0.05,-3.28,-15.67,43.20,-15.93,-1.00
493.00,-0.15,6.14,-7.87,-0.26,0.05,-3.28,-15.67,43.20,-15.93,-1.00
505.00,-0.15,6.14,-7.87,-0.26,0.05,-3.28,-15.67,43.20,-15.93,-1.00
517.00,-0.17,6.12,-7.89,-0.26,0.05,-3.28,-15.67,43.20,-15.93,-1.00
529.00,-0.17,6.12,-7.89,-0.26,0.05,-3.28,-15.67,43.20,-15.93,-1.00
542.00,-0.18,6.13,-7.87,-0.26,0.05,-3.28,-15.67,43.20,-15.93,-1.00
554.00,-0.17,6.16,-7.90,-0.26,0.05,-3.27,-15.28,44.49,-17.59,-1.00
566.00,-0.17,6.16,-7.90,-0.26,0.05,-3.27,-15.28,44.49,-17.59,-1.00
578.00,-0.10,6.15,-7.84,-0.26,0.05,-3.27,-15.28,44.49,-17.59,-1.00
591.00,-0.06,6.18,-7.79,-0.26,0.05,-3.27,-15.28,44.49,-17.59,-1.00
603.00,-0.06,6.18,-7.79,-0.26,0.05,-3.27,-15.28,44.49,-17.59,-1.00
615.00,-0.06,6.20,-7.79,-0.26,0.05,-3.28,-15.28,44.49,-17.59,-1.00
627.00,-0.06,6.20,-7.79,-0.26,0.05,-3.28,-15.28,44.49,-17.59,-1.00
640.00,-0.08,6.19,-7.83,-0.26,0.05,-3.28,-15.28,44.49,-17.59,-1.00
652.00,-0.12,6.17,-7.87,-0.26,0.05,-3.28,-15.28,44.49,-17.59,-1.00
664.00,-0.12,6.17,-7.87,-0.26,0.05,-3.28,-15.28,44.49,-17.59,-1.00
676.00,-0.17,6.13,-7.87,-0.26,0.05,-3.28,-16.07,43.20,-18.26,-1.00
689.00,-0.17,6.13,-7.87,-0.26,0.05,-3.28,-16.07,43.20,-18.26,-1.00
701.00,-0.18,6.12,-7.90,-0.26,0.05,-3.28,-16.07,43.20,-18.26,-1.00
713.00,-0.17,6.13,-7.87,-0.26,0.05,-3.28,-16.07,43.20,-18.26,-1.00
727.00,-0.17,6.13,-7.87,-0.26,0.05,-3.28,-16.07,43.20,-18.26,-1.00
738.00,-0.14,6.14,-7.88,-0.26,0.06,-3.28,-16.07,43.20,-18.26,-1.00
750.00,-0.10,6.15,-7.82,-0.26,0.06,-3.27,-16.07,43.20,-18.26,-1.00
762.00,-0.10,6.15,-7.82,-0.26,0.06,-3.27,-16.07,43.20,-18.26,-1.00
775.00,-0.07,6.17,-7.82,-0.26,0.05,-3.28,-16.07,43.20,-18.26,-1.00
787.00,-0.07,6.17,-7.82,-0.26,0.05,-3.28,-16.07,43.20,-18.26,-1.00
799.00,-0.08,6.18,-7.84,-0.26,0.05,-3.28,-14.69,43.36,-18.76,-1.00
811.00,-0.11,6.18,-7.82,-0.26,0.05,-3.28,-14.69,43.36,-18.76,-1.00
824.00,-0.11,6.18,-7.82,-0.26,0.05,-3.28,-14.69,43.36,-18.76,-1.00
836.00,-0.19,6.14,-7.83,-0.26,0.05,-3.28,-14.69,43.36,-18.76,-1.00
848.00,-0.19,6.14,-7.83,-0.26,0.05,-3.28,-14.69,43.36,-18.76,-1.00
860.00,-0.19,6.23,-7.95,-0.26,0.05,-3.27,-14.69,43.36,-18.76,-1.00
874.00,-0.14,6.10,-7.81,-0.26,0.05,-3.28,-14.69,43.36,-18.76,-1.00
886.00,-0.14,6.10,-7.81,-0.26,0.05,-3.28,-14.69,43.36,-18.76,-1.00
898.00,-0.09,6.15,-7.83,-0.26,0.06,-3.27,-14.69,43.36,-18.76,-1.00
912.00,-0.08,6.18,-7.91,-0.26,0.06,-3.27,-17.05,43.04,-17.43,-1.00
998.00,-0.02,5.93,-7.44,-0.26,0.05,-3.28,-17.05,43.04,-17.43,-1.00
1087.00,-0.12,6.13,-7.98,-0.26,0.06,-3.27,-14.69,44.01,-16.76,-1.00
1174.00,-0.09,5.98,-7.67,-0.26,0.05,-3.28,-16.46,42.88,-18.26,-1.00
1188.00,-0.09,5.98,-7.67,-0.26,0.05,-3.28,-16.46,42.88,-18.26,-1.00
1199.00,-0.24,6.26,-8.01,-0.27,0.05,-3.28,-16.46,42.88,-18.26,-1.00
1211.00,-0.24,6.11,-7.83,-0.26,0.05,-3.28,-16.46,42.88,-18.26,-1.00
1223.00,-0.24,6.11,-7.83,-0.26,0.05,-3.28,-16.46,42.88,-18.26,-1.00
1236.00,-0.21,6.07,-7.82,-0.26,0.05,-3.28,-16.46,42.88,-18.26,-1.00
1248.00,-0.21,6.07,-7.82,-0.26,0.05,-3.28,-16.46,42.88,-18.26,-1.00
1260.00,-0.19,6.27,-8.00,-0.27,0.05,-3.27,-16.46,42.88,-18.26,-1.00
1273.00,-0.01,6.06,-7.75,-0.26,0.05,-3.28,-16.46,42.88,-18.26,-1.00
1285.00,-0.01,6.06,-7.75,-0.26,0.05,-3.28,-16.46,42.88,-18.26,-1.00
1297.00,0.10,6.09,-7.78,-0.26,0.05,-3.28,-15.48,43.36,-17.10,-1.00
1309.00,-0.00,6.31,-7.99,-0.26,0.05,-3.28,-15.48,43.36,-17.10,-1.00
1322.00,-0.00,6.31,-7.99,-0.26,0.05,-3.28,-15.48,43.36,-17.10,-1.00
1334.00,-0.11,6.07,-7.72,-0.26,0.05,-3.28,-15.48,43.36,-17.10,-1.00
1346.00,-0.11,6.07,-7.72,-0.26,0.05,-3.28,-15.48,43.36,-17.10,-1.00
1358.00,-0.26,6.15,-7.83,-0.26,0.05,-3.28,-15.48,43.36,-17.10,-1.00
1372.00,-0.33,6.26,-8.00,-0.26,0.05,-3.28,-15.48,43.36,-17.10,-1.00
1383.00,-0.33,6.26,-8.00,-0.26,0.05,-3.28,-15.48,43.36,-17.10,-1.00
1395.00,-0.25,6.08,-7.81,-0.26,0.05,-3.27,-15.48,43.36,-17.10,-1.00
1407.00,-0.25,6.08,-7.81,-0.26,0.05,-3.27,-15.48,43.36,-17.10,-1.00
1420.00,-0.22,6.16,-7.91,-0.26,0.06,-3.27,-16.07,41.91,-16.93,-1.00
1432.00,-0.11,6.20,-7.92,-0.26,0.06,-3.27,-16.07,41.91,-16.93,-1.00
1444.00,-0.11,6.20,-7.92,-0.26,0.06,-3.27,-16.07,41.91,-16.93,-1.00
1457.00,0.02,6.10,-7.78,-0.26,0.06,-3.27,-16.07,41.91,-16.93,-1.00
1469.00,0.03,6.17,-7.88,-0.26,0.06,-3.27,-16.07,41.91,-16.93,-1.00
1481.00,0.03,6.17,-7.88,-0.26,0.06,-3.27,-16.07,41.91,-16.93,-1.00
1493.00,0.01,6.13,-7.89,-0.26,0.05,-3.28,-16.07,41.91,-16.93,-1.00
1506.00,0.01,6.13,-7.89,-0.26,0.05,-3.28,-16.07,41.91,-16.93,-1.00
1518.00,-0.07,6.02,-7.83,-0.26,0.05,-3.28,-16.07,41.91,-16.93,-1.00
1530.00,-0.21,6.12,-7.99,-0.26,0.05,-3.28,-15.67,43.20,-17.59,-1.00
1542.00,-0.21,6.12,-7.99,-0.26,0.05,-3.28,-15.67,43.20,-17.59,-1.00
1555.00,-0.26,6.10,-7.95,-0.26,0.05,-3.28,-15.67,43.20,-17.59,-1.00
1567.00,-0.26,6.10,-7.95,-0.26,0.05,-3.28,-15.67,43.20,-17.59,-1.00
1579.00,-0.26,6.08,-7.85,-0.26,0.05,-3.28,-15.67,43.20,-17.59,-1.00
1591.00,-0.18,6.19,-7.87,-0.26,0.05,-3.27,-15.67,43.20,-17.59,-1.00
1604.00,-0.18,6.19,-7.87,-0.26,0.05,-3.27,-15.67,43.20,-17.59,-1.00
1616.00,-0.08,6.20,-7.81,-0.26,0.06,-3.27,-15.67,43.20,-17.59,-1.00
1628.00,-0.08,6.20,-7.81,-0.26,0.06,-3.27,-15.67,43.20,-17.59,-1.00
1642.00,-0.04,6.18,-7.78,-0.26,0.06,-3.27,-15.67,43.20,-17.59,-1.00
1654.00,-0.05,6.21,-7.87,-0.26,0.05,-3.27,-18.03,42.23,-17.26,-1.00
1666.00,-0.05,6.21,-7.87,-0.26,0.05,-3.27,-18.03,42.23,-17.26,-1.00
1678.00,-0.06,6.13,-7.82,-0.26,0.05,-3.28,-18.03,42.23,-17.26,-1.00
1692.00,-0.11,6.08,-7.89,-0.26,0.05,-3.28,-18.03,42.23,-17.26,-1.00
1704.00,-0.11,6.08,-7.89,-0.26,0.05,-3.28,-18.03,42.23,-17.26,-1.00
1716.00,-0.13,6.09,-7.95,-0.26,0.05,-3.28,-18.03,42.23,-17.26,-1.00
1728.00,-0.13,6.09,-7.95,-0.26,0.05,-3.28,-18.03,42.23,-17.26,-1.00
1741.00,-0.18,6.04,-7.90,-0.26,0.05,-3.28,-18.03,42.23,-17.26,-1.00
1753.00,-0.20,6.07,-7.91,-0.26,0.05,-3.28,-18.03,42.23,-17.26,-1.00
1765.00,-0.20,6.07,-7.91,-0.26,0.05,-3.28,-18.03,42.23,-17.26,-1.00
1778.00,-0.17,6.16,-7.93,-0.26,0.05,-3.28,-16.65,42.71,-18.42,-1.00
1790.00,-0.12,6.16,-7.81,-0.26,0.05,-3.27,-16.65,42.71,-18.42,-1.00
1802.00,-0.12,6.16,-7.81,-0.26,0.05,-3.27,-16.65,42.71,-18.42,-1.00
1814.00,-0.06,6.20,-7.81,-0.26,0.05,-3.27,-16.65,42.71,-18.42,-1.00
1828.00,-0.06,6.20,-7.81,-0.26,0.05,-3.27,-16.65,42.71,-18.42,-1.00
1839.00,-0.05,6.22,-7.82,-0.26,0.05,-3.27,-16.65,42.71,-18.42,-1.00
1851.00,-0.09,6.17,-7.79,-0.26,0.05,-3.28,-16.65,42.71,-18.42,-1.00
1863.00,-0.09,6.17,-7.79,-0.26,0.05,-3.28,-16.65,42.71,-18.42,-1.00
1876.00,-0.14,6.15,-7.89,-0.26,0.05,-3.28,-16.65,42.71,-18.42,-1.00
1888.00,-0.14,6.15,-7.89,-0.26,0.05,-3.28,-16.65,42.71,-18.42,-1.00
1900.00,-0.17,6.09,-7.95,-0.26,0.05,-3.28,-16.65,42.71,-18.42,-1.00
1913.00,-0.20,6.03,-7.97,-0.26,0.05,-3.28,-14.89,41.58,-17.59,-1.00
1925.00,-0.20,6.03,-7.97,-0.26,0.05,-3.28,-14.89,41.58,-17.59,-1.00
1937.00,-0.17,6.06,-7.98,-0.26,0.05,-3.27,-14.89,41.58,-17.59,-1.00
1949.00,-0.13,6.09,-7.89,-0.26,0.05,-3.28,-14.89,41.58,-17.59,-1.00
1962.00,-0.13,6.09,-7.89,-0.26,0.05,-3.28,-14.89,41.58,-17.59,-1.00
1974.00,-0.08,6.13,-7.82,-0.26,0.05,-3.27,-14.89,41.58,-17.59,-1.00
1986.00,-0.08,6.13,-7.82,-0.26,0.05,-3.27,-14.89,41.58,-17.59,-1.00
1998.00,-0.03,6.19,-7.84,-0.26,0.05,-3.28,-14.89,41.58,-17.59,-1.00
2011.00,-0.06,6.19,-7.82,-0.26,0.05,-3.28,-14.89,41.58,-17.59,-1.00
2023.00,-0.06,6.19,-7.82,-0.26,0.05,-3.28,-14.89,41.58,-17.59,-1.00
2035.00,-0.13,6.18,-7.84,-0.26,0.05,-3.28,-16.07,44.17,-18.26,-1.00
2047.00,-0.13,6.18,-7.84,-0.26,0.05,-3.28,-16.07,44.17,-18.26,-1.00
2060.00,-0.21,6.17,-7.89,-0.26,0.05,-3.28,-16.07,44.17,-18.26,-1.00
2072.00,-0.24,6.13,-7.86,-0.26,0.05,-3.28,-16.07,44.17,-18.26,-1.00
2084.00,-0.24,6.13,-7.86,-0.26,0.05,-3.28,-16.07,44.17,-18.26,-1.00
2097.00,-0.20,6.12,-7.90,-0.26,0.05,-3.28,-16.07,44.17,-18.26,-1.00
2109.00,-0.17,6.13,-7.93,-0.26,0.05,-3.28,-16.07,44.17,-18.26,-1.00
2121.00,-0.17,6.13,-7.93,-0.26,0.05,-3.28,-16.07,44.17,-18.26,-1.00
2133.00,-0.15,6.12,-7.92,-0.26,0.06,-3.27,-16.07,44.17,-18.26,-1.00
2147.00,-0.15,6.12,-7.92,-0.26,0.06,-3.27,-16.07,44.17,-18.26,-1.00
2159.00,-0.08,6.06,-7.92,-0.26,0.06,-3.27,-14.89,42.55,-18.26,-1.00
2171.00,0.01,6.01,-7.84,-0.26,0.06,-3.27,-14.89,42.55,-18.26,-1.00
2183.00,0.01,6.01,-7.84,-0.26,0.06,-3.27,-14.89,42.55,-18.26,-1.00
2196.00,0.02,6.14,-7.93,-0.26,0.05,-3.28,-14.89,42.55,-18.26,-1.00
2208.00,-0.01,6.09,-7.87,-0.26,0.05,-3.28,-14.89,42.55,-18.26,-1.00
2220.00,-0.01,6.09,-7.87,-0.26,0.05,-3.28,-14.89,42.55,-18.26,-1.00
2233.00,-0.08,6.09,-7.84,-0.26,0.05,-3.28,-14.89,42.55,-18.26,-1.00
2245.00,-0.08,6.09,-7.84,-0.26,0.05,-3.28,-14.89,42.55,-18.26,-1.00
2257.00,-0.20,6.17,-7.92,-0.26,0.05,-3.28,-14.89,42.55,-18.26,-1.00
2269.00,-0.26,6.13,-7.86,-0.26,0.05,-3.28,-15.67,41.91,-19.25,-1.00
2282.00,-0.26,6.13,-7.86,-0.26,0.05,-3.28,-15.67,41.91,-19.25,-1.00
2294.00,-0.30,6.15,-7.87,-0.26,0.05,-3.28,-15.67,41.91,-19.25,-1.00
2306.00,-0.30,6.15,-7.87,-0.26,0.05,-3.28,-15.67,41.91,-19.25,-1.00
2318.00,-0.25,6.20,-7.90,-0.26,0.05,-3.27,-15.67,41.91,-19.25,-1.00
2331.00,-0.11,6.10,-7.80,-0.26,0.06,-3.27,-15.67,41.91,-19.25,-1.00
2343.00,-0.11,6.10,-7.80,-0.26,0.06,-3.27,-15.67,41.91,-19.25,-1.00
2355.00,-0.03,6.13,-7.84,-0.26,0.06,-3.27,-15.67,41.91,-19.25,-1.00
2367.00,-0.03,6.13,-7.84,-0.26,0.06,-3.27,-15.67,41.91,-19.25,-1.00
2380.00,-0.01,6.15,-7.91,-0.26,0.05,-3.27,-15.67,41.91,-19.25,-1.00
2392.00,-0.05,6.05,-7.85,-0.26,0.05,-3.28,-16.26,42.07,-17.10,-1.00
2404.00,-0.05,6.05,-7.85,-0.26,0.05,-3.28,-16.26,42.07,-17.10,-1.00
2417.00,-0.12,6.09,-7.93,-0.26,0.05,-3.28,-16.26,42.07,-17.10,-1.00
2429.00,-0.20,6.09,-7.96,-0.26,0.05,-3.28,-16.26,42.07,-17.10,-1.00
2441.00,-0.20,6.09,-7.96,-0.26,0.05,-3.28,-16.26,42.07,-17.10,-1.00
2453.00,-0.24,6.08,-7.89,-0.26,0.05,-3.28,-16.26,42.07,-17.10,-1.00
2466.00,-0.24,6.08,-7.89,-0.26,0.05,-3.28,-16.26,42.07,-17.10,-1.00
2478.00,-0.23,6.14,-7.89,-0.26,0.05,-3.27,-16.26,42.07,-17.10,-1.00
2490.00,-0.18,6.16,-7.84,-0.26,0.06,-3.27,-16.26,42.07,-17.10,-1.00
2502.00,-0.18,6.16,-7.84,-0.26,0.06,-3.27,-16.26,42.07,-17.10,-1.00
2515.00,-0.10,6.15,-7.81,-0.26,0.06,-3.27,-16.26,42.07,-17.10,-1.00
2527.00,-0.10,6.15,-7.81,-0.26,0.06,-3.27,-16.26,42.07,-17.10,-1.00
2539.00,-0.06,6.20,-7.87,-0.26,0.06,-3.27,-15.48,43.36,-18.09,-1.00
2553.00,-0.06,6.14,-7.84,-0.26,0.05,-3.27,-15.48,43.36,-18.09,-1.00
2640.00,-0.19,6.02,-7.93,-0.26,0.05,-3.28,-15.48,43.36,-18.09,-1.00
2729.00,-0.08,6.17,-7.80,-0.26,0.05,-3.28,-15.48,42.71,-18.76,-1.00
2816.00,-0.18,6.02,-7.96,-0.26,0.05,-3.28,-16.26,43.04,-18.09,-1.00
2830.00,-0.13,6.07,-7.96,-0.26,0.05,-3.28,-16.26,43.04,-18.09,-1.00
2841.00,-0.13,6.07,-7.96,-0.26,0.05,-3.28,-16.26,43.04,-18.09,-1.00
2853.00,-0.09,6.07,-7.90,-0.26,0.05,-3.27,-16.26,43.04,-18.09,-1.00
2865.00,-0.09,6.07,-7.90,-0.26,0.05,-3.27,-16.26,43.04,-18.09,-1.00
2878.00,-0.06,6.13,-7.87,-0.27,0.05,-3.27,-16.26,43.04,-18.09,-1.00
2890.00,-0.09,6.17,-7.85,-0.27,0.05,-3.28,-16.65,43.68,-17.76,-1.00
2902.00,-0.09,6.17,-7.85,-0.27,0.05,-3.28,-16.65,43.68,-17.76,-1.00
2914.00,-0.11,6.18,-7.83,-0.27,0.05,-3.28,-16.65,43.68,-17.76,-1.00
2927.00,-0.15,6.18,-7.84,-0.26,0.05,-3.28,-16.65,43.68,-17.76,-1.00
2939.00,-0.15,6.18,-7.84,-0.26,0.05,-3.28,-16.65,43.68,-17.76,-1.00
2951.00,-0.20,6.13,-7.87,-0.26,0.05,-3.28,-16.65,43.68,-17.76,-1.00
2964.00,-0.20,6.13,-7.87,-0.26,0.05,-3.28,-16.65,43.68,-17.76,-1.00
2976.00,-0.21,6.09,-7.89,-0.26,0.05,-3.28,-16.65,43.68,-17.76,-1.00
2988.00,-0.19,6.10,-7.97,-0.26,0.05,-3.27,-16.65,43.68,-17.76,-1.00
3000.00,-0.19,6.10,-7.97,-0.26,0.05,-3.27,-16.65,43.68,-17.76,-1.00
3014.00,-0.14,6.05,-7.95,-0.26,0.06,-3.27,-15.67,42.88,-17.93,-1.00
3025.00,-0.14,6.05,-7.95,-0.26,0.06,-3.27,-15.67,42.88,-17.93,-1.00
3037.00,-0.08,6.07,-7.91,-0.26,0.06,-3.27,-15.67,42.88,-17.93,-1.00
3049.00,-0.05,6.09,-7.90,-0.26,0.05,-3.27,-15.67,42.88,-17.93,-1.00
3063.00,-0.05,6.09,-7.90,-0.26,0.05,-3.27,-15.67,42.88,-17.93,-1.00
3075.00,-0.06,6.12,-7.87,-0.26,0.05,-3.28,-15.67,42.88,-17.93,-1.00
3087.00,-0.09,6.14,-7.86,-0.27,0.05,-3.28,-15.67,42.88,-17.93,-1.00
3100.00,-0.09,6.14,-7.86,-0.27,0.05,-3.28,-15.67,42.88,-17.93,-1.00
3112.00,-0.15,6.14,-7.86,-0.26,0.05,-3.28,-15.67,42.88,-17.93,-1.00
3125.00,-0.15,6.14,-7.86,-0.26,0.05,-3.28,-15.67,42.88,-17.93,-1.00
3137.00,-0.20,6.12,-7.88,-0.26,0.05,-3.28,-15.48,43.04,-18.42,-1.00
3150.00,-0.22,6.12,-7.90,-0.26,0.05,-3.28,-15.48,43.04,-18.42,-1.00
3162.00,-0.22,6.12,-7.90,-0.26,0.05,-3.28,-15.48,43.04,-18.42,-1.00
3174.00,-0.19,6.12,-7.90,-0.26,0.05,-3.28,-15.48,43.04,-18.42,-1.00
3186.00,-0.19,6.12,-7.90,-0.26,0.05,-3.28,-15.48,43.04,-18.42,-1.00
3199.00,-0.15,6.10,-7.89,-0.26,0.06,-3.27,-15.48,43.04,-18.42,-1.00
3211.00,-0.11,6.11,-7.89,-0.26,0.06,-3.27,-15.48,43.04,-18.42,-1.00
3223.00,-0.11,6.11,-7.89,-0.26,0.06,-3.27,-15.48,43.04,-18.42,-1.00
3235.00,-0.05,6.09,-7.88,-0.26,0.05,-3.28,-15.48,43.04,-18.42,-1.00
3248.00,-0.05,6.09,-7.90,-0.26,0.05,-3.28,-15.48,43.04,-18.42,-1.00
3260.00,-0.05,6.09,-7.90,-0.26,0.05,-3.28,-15.48,43.04,-18.42,-1.00
3272.00,-0.09,6.09,-7.92,-0.27,0.05,-3.28,-14.89,43.20,-16.60,-1.00
3286.00,-0.09,6.09,-7.92,-0.27,0.05,-3.28,-14.89,43.20,-16.60,-1.00
3297.00,-0.12,6.09,-7.92,-0.27,0.05,-3.28,-14.89,43.20,-16.60,-1.00
3309.00,-0.16,6.10,-7.90,-0.26,0.05,-3.28,-14.89,43.20,-16.60,-1.00
3321.00,-0.16,6.10,-7.90,-0.26,0.05,-3.28,-14.89,43.20,-16.60,-1.00
3334.00,-0.20,6.12,-7.92,-0.26,0.05,-3.28,-14.89,43.20,-16.60,-1.00
3346.00,-0.20,6.12,-7.92,-0.26,0.05,-3.28,-14.89,43.20,-16.60,-1.00
3358.00,-0.18,6.12,-7.87,-0.26,0.05,-3.28,-14.89,43.20,-16.60,-1.00
3370.00,-0.17,6.13,-7.87,-0.26,0.05,-3.28,-14.89,43.20,-16.60,-1.00
3383.00,-0.17,6.13,-7.87,-0.26,0.05,-3.28,-14.89,43.20,-16.60,-1.00
3395.00,-0.13,6.09,-7.86,-0.26,0.06,-3.28,-17.24,42.55,-17.26,-1.00
3407.00,-0.10,6.11,-7.86,-0.27,0.06,-3.28,-17.24,42.55,-17.26,-1.00
3420.00,-0.10,6.11,-7.86,-0.27,0.06,-3.28,-17.24,42.55,-17.26,-1.00
3432.00,-0.10,6.10,-7.87,-0.26,0.05,-3.28,-17.24,42.55,-17.26,-1.00
3444.00,-0.10,6.10,-7.87,-0.26,0.05,-3.28,-17.24,42.55,-17.26,-1.00
3456.00,-0.08,6.08,-7.89,-0.26,0.05,-3.28,-17.24,42.55,-17.26,-1.00
3470.00,-0.13,6.06,-7.92,-0.27,0.05,-3.28,-17.24,42.55,-17.26,-1.00
3556.00,-0.15,6.12,-7.87,-0.27,0.05,-3.28,-15.28,42.88,-17.93,-1.00
3645.00,-0.12,6.11,-7.91,-0.26,0.05,-3.28,-16.85,42.55,-16.60,-1.00
3732.00,-0.11,6.09,-7.88,-0.27,0.05,-3.27,-16.85,42.55,-16.60,-1.00
3746.00,-0.11,6.09,-7.88,-0.27,0.05,-3.27,-16.85,42.55,-16.60,-1.00
3757.00,-0.10,6.13,-7.87,-0.27,0.05,-3.28,-17.05,43.04,-16.10,-1.00
3769.00,-0.11,6.14,-7.87,-0.26,0.05,-3.28,-17.05,43.04,-16.10,-1.00
3783.00,-0.11,6.14,-7.87,-0.26,0.05,-3.28,-17.05,43.04,-16.10,-1.00
3794.00,-0.15,6.15,-7.86,-0.26,0.05,-3.28,-17.05,43.04,-16.10,-1.00
3806.00,-0.16,6.12,-7.87,-0.26,0.05,-3.28,-17.05,43.04,-16.10,-1.00
3818.00,-0.16,6.12,-7.87,-0.26,0.05,-3.28,-17.05,43.04,-16.10,-1.00
3831.00,-0.16,6.11,-7.90,-0.26,0.05,-3.27,-17.05,43.04,-16.10,-1.00
3843.00,-0.16,6.11,-7.90,-0.26,0.05,-3.27,-17.05,43.04,-16.10,-1.00
3855.00,-0.16,6.11,-7.91,-0.26,0.05,-3.27,-17.05,43.04,-16.10,-1.00
3867.00,-0.12,6.07,-7.90,-0.26,0.05,-3.27,-17.05,43.04,-16.10,-1.00
3880.00,-0.12,6.07,-7.90,-0.26,0.05,-3.27,-17.05,43.04,-16.10,-1.00
3892.00,-0.11,6.07,-7.93,-0.26,0.05,-3.27,-15.48,42.39,-18.09,-1.00
3904.00,-0.11,6.07,-7.93,-0.26,0.05,-3.27,-15.48,42.39,-18.09,-1.00
3916.00,-0.11,6.09,-7.93,-0.26,0.05,-3.27,-15.48,42.39,-18.09,-1.00
3930.00,-0.09,6.10,-7.91,-0.26,0.05,-3.27,-15.48,42.39,-18.09,-1.00
3941.00,-0.09,6.10,-7.91,-0.26,0.05,-3.27,-15.48,42.39,-18.09,-1.00
3953.00,-0.11,6.10,-7.87,-0.27,0.05,-3.28,-15.48,42.39,-18.09,-1.00
3966.00,-0.12,6.14,-7.90,-0.26,0.05,-3.28,-15.48,42.39,-18.09,-1.00
3978.00,-0.12,6.14,-7.90,-0.26,0.05,-3.28,-15.48,42.39,-18.09,-1.00
3990.00,-0.13,6.12,-7.87,-0.26,0.05,-3.28,-15.48,42.39,-18.09,-1.00
4002.00,-0.13,6.12,-7.87,-0.26,0.05,-3.28,-15.48,42.39,-18.09,-1.00
4015.00,-0.17,6.11,-7.90,-0.26,0.05,-3.28,-16.46,42.55,-18.26,-1.00
4027.00,-0.18,6.12,-7.91,-0.27,0.05,-3.28,-16.46,42.55,-18.26,-1.00
4039.00,-0.18,6.12,-7.91,-0.27,0.05,-3.28,-16.46,42.55,-18.26,-1.00
4051.00,-0.18,6.09,-7.88,-0.26,0.05,-3.27,-16.46,42.55,-18.26,-1.00
4065.00,-0.12,6.08,-7.90,-0.26,0.05,-3.28,-16.46,42.55,-18.26,-1.00
4078.00,-0.12,6.08,-7.90,-0.26,0.05,-3.28,-16.46,42.55,-18.26,-1.00
4090.00,-0.10,6.08,-7.91,-0.27,0.05,-3.27,-16.46,42.55,-18.26,-1.00
4103.00,-0.10,6.08,-7.91,-0.27,0.05,-3.27,-16.46,42.55,-18.26,-1.00
4115.00,-0.07,6.07,-7.88,-0.26,0.05,-3.27,-16.46,42.55,-18.26,-1.00
4127.00,-0.11,6.09,-7.92,-0.26,0.05,-3.28,-16.07,42.23,-17.59,-1.00
4139.00,-0.11,6.09,-7.92,-0.26,0.05,-3.28,-16.07,42.23,-17.59,-1.00
4152.00,-0.16,6.11,-7.91,-0.26,0.05,-3.28,-16.07,42.23,-17.59,-1.00
4164.00,-0.16,6.11,-7.91,-0.26,0.05,-3.28,-16.07,42.23,-17.59,-1.00
4176.00,-0.16,6.06,-7.85,-0.27,0.05,-3.28,-16.07,42.23,-17.59,-1.00
4188.00,-0.17,6.09,-7.89,-0.26,0.05,-3.28,-16.07,42.23,-17.59,-1.00
4202.00,-0.17,6.09,-7.89,-0.26,0.05,-3.28,-16.07,42.23,-17.59,-1.00
4213.00,-0.14,6.16,-7.92,-0.27,0.05,-3.28,-16.07,42.23,-17.59,-1.00
4225.00,-0.15,6.12,-7.89,-0.27,0.06,-3.27,-16.07,42.23,-17.59,-1.00
4237.00,-0.15,6.12,-7.89,-0.27,0.06,-3.27,-16.07,42.23,-17.59,-1.00
4251.00,-0.14,6.08,-7.87,-0.27,0.05,-3.27,-17.05,43.36,-17.76,-1.00
4263.00,-0.14,6.08,-7.87,-0.27,0.05,-3.27,-17.05,43.36,-17.76,-1.00
4275.00,-0.11,6.11,-7.90,-0.27,0.05,-3.28,-17.05,43.36,-17.76,-1.00
4288.00,-0.10,6.12,-7.93,-0.26,0.05,-3.28,-17.05,43.36,-17.76,-1.00
4300.00,-0.10,6.12,-7.93,-0.26,0.05,-3.28,-17.05,43.36,-17.76,-1.00
4312.00,-0.11,6.06,-7.91,-0.26,0.06,-3.27,-17.05,43.36,-17.76,-1.00
4324.00,-0.11,6.06,-7.91,-0.26,0.06,-3.27,-17.05,43.36,-17.76,-1.00
4337.00,-0.13,6.04,-7.87,-0.26,0.05,-3.27,-17.05,43.36,-17.76,-1.00
4349.00,-0.14,6.10,-7.93,-0.26,0.05,-3.28,-17.05,43.36,-17.76,-1.00
4361.00,-0.14,6.10,-7.93,-0.26,0.05,-3.28,-17.05,43.36,-17.76,-1.00
4373.00,-0.14,6.10,-7.96,-0.27,0.05,-3.28,-16.07,42.55,-17.93,-1.00
4387.00,-0.15,6.09,-7.89,-0.26,0.05,-3.27,-16.07,42.55,-17.93,-1.00
4398.00,-0.15,6.09,-7.89,-0.26,0.05,-3.27,-16.07,42.55,-17.93,-1.00
4410.00,-0.14,6.11,-7.86,-0.27,0.05,-3.27,-16.07,42.55,-17.93,-1.00
4424.00,-0.14,6.11,-7.86,-0.27,0.05,-3.27,-16.07,42.55,-17.93,-1.00
4436.00,-0.13,6.14,-7.88,-0.27,0.05,-3.28,-16.07,42.55,-17.93,-1.00
4448.00,-0.12,6.14,-7.89,-0.26,0.05,-3.28,-16.07,42.55,-17.93,-1.00
4460.00,-0.12,6.14,-7.89,-0.26,0.05,-3.28,-16.07,42.55,-17.93,-1.00
4473.00,-0.14,6.09,-7.87,-0.26,0.05,-3.27,-16.07,42.55,-17.93,-1.00
4485.00,-0.15,6.09,-7.87,-0.26,0.05,-3.28,-15.28,42.55,-18.59,-1.00
4497.00,-0.15,6.09,-7.87,-0.26,0.05,-3.28,-15.28,42.55,-18.59,-1.00
4509.00,-0.13,6.10,-7.95,-0.27,0.05,-3.28,-15.28,42.55,-18.59,-1.00
4524.00,-0.13,6.10,-7.95,-0.27,0.05,-3.28,-15.28,42.55,-18.59,-1.00
4535.00,-0.13,6.10,-7.94,-0.26,0.05,-3.28,-15.28,42.55,-18.59,-1.00
4547.00,-0.13,6.06,-7.90,-0.26,0.05,-3.27,-15.28,42.55,-18.59,-1.00
4559.00,-0.13,6.06,-7.90,-0.26,0.05,-3.27,-15.28,42.55,-18.59,-1.00
4572.00,-0.14,6.07,-7.90,-0.27,0.05,-3.28,-15.28,42.55,-18.59,-1.00
4584.00,-0.14,6.07,-7.90,-0.27,0.05,-3.28,-15.28,42.55,-18.59,-1.00
4596.00,-0.13,6.09,-7.93,-0.27,0.05,-3.28,-15.28,42.55,-18.59,-1.00
4609.00,-0.11,6.11,-7.91,-0.27,0.05,-3.28,-15.28,42.55,-18.59,-1.00
4621.00,-0.11,6.11,-7.91,-0.27,0.05,-3.28,-15.28,42.55,-18.59,-1.00
4633.00,-0.15,6.11,-7.86,-0.27,0.05,-3.27,-16.46,42.88,-17.59,-1.00
4645.00,-0.14,6.11,-7.88,-0.26,0.05,-3.28,-16.46,42.88,-17.59,-1.00
4659.00,-0.14,6.11,-7.88,-0.26,0.05,-3.28,-16.46,42.88,-17.59,-1.00
4671.00,-0.16,6.14,-7.90,-0.26,0.05,-3.28,-16.46,42.88,-17.59,-1.00
4683.00,-0.16,6.14,-7.90,-0.26,0.05,-3.28,-16.46,42.88,-17.59,-1.00
4695.00,-0.14,6.09,-7.92,-0.26,0.05,-3.28,-16.46,42.88,-17.59,-1.00
4708.00,-0.14,6.08,-7.87,-0.26,0.05,-3.27,-16.46,42.88,-17.59,-1.00
4720.00,-0.14,6.08,-7.87,-0.26,0.05,-3.27,-16.46,42.88,-17.59,-1.00
4732.00,-0.14,6.08,-7.89,-0.26,0.05,-3.28,-16.46,42.88,-17.59,-1.00
4745.00,-0.13,6.09,-7.94,-0.27,0.05,-3.28,-17.05,43.04,-17.76,-1.00
4757.00,-0.13,6.09,-7.94,-0.27,0.05,-3.28,-17.05,43.04,-17.76,-1.00
4769.00,-0.11,6.08,-7.89,-0.26,0.05,-3.27,-17.05,43.04,-17.76,-1.00
4781.00,-0.11,6.08,-7.89,-0.26,0.05,-3.27,-17.05,43.04,-17.76,-1.00
4795.00,-0.11,6.08,-7.88,-0.26,0.05,-3.27,-17.05,43.04,-17.76,-1.00
4806.00,-0.13,6.12,-7.90,-0.27,0.05,-3.28,-17.05,43.04,-17.76,-1.00
4818.00,-0.13,6.12,-7.90,-0.27,0.05,-3.28,-17.05,43.04,-17.76,-1.00
4830.00,-0.12,6.11,-7.91,-0.26,0.05,-3.28,-17.05,43.04,-17.76,-1.00
4843.00,-0.12,6.11,-7.91,-0.26,0.05,-3.28,-17.05,43.04,-17.76,-1.00
4855.00,-0.14,6.10,-7.90,-0.26,0.05,-3.28,-17.05,43.04,-17.76,-1.00
4867.00,-0.16,6.11,-7.91,-0.27,0.05,-3.28,-16.46,43.20,-17.59,-1.00
4880.00,-0.16,6.11,-7.91,-0.27,0.05,-3.28,-16.46,43.20,-17.59,-1.00
4892.00,-0.16,6.11,-7.89,-0.26,0.05,-3.28,-16.46,43.20,-17.59,-1.00
4904.00,-0.15,6.11,-7.93,-0.26,0.05,-3.27,-16.46,43.20,-17.59,-1.00
4916.00,-0.15,6.11,-7.93,-0.26,0.05,-3.27,-16.46,43.20,-17.59,-1.00
4930.00,-0.14,6.08,-7.89,-0.27,0.05,-3.27,-16.46,43.20,-17.59,-1.00
4942.00,-0.14,6.08,-7.89,-0.27,0.05,-3.27,-16.46,43.20,-17.59,-1.00
4954.00,-0.13,6.09,-7.89,-0.26,0.05,-3.27,-16.46,43.20,-17.59,-1.00
4966.00,-0.10,6.10,-7.91,-0.26,0.05,-3.28,-16.46,43.20,-17.59,-1.00
4979.00,-0.10,6.10,-7.91,-0.26,0.05,-3.28,-16.46,43.20,-17.59,-1.00
4991.00,-0.11,6.10,-7.91,-0.27,0.05,-3.28,-17.44,41.74,-17.10,-1.00
5003.00,-0.11,6.10,-7.91,-0.27,0.05,-3.28,-17.44,41.74,-17.10,-1.00
5015.00,-0.13,6.08,-7.89,-0.26,0.05,-3.28,-17.44,41.74,-17.10,-1.00
5028.00,-0.15,6.09,-7.90,-0.27,0.05,-3.28,-17.44,41.74,-17.10,-1.00
5040.00,-0.15,6.09,-7.90,-0.27,0.05,-3.28,-17.44,41.74,-17.10,-1.00
5052.00,-0.15,6.11,-7.93,-0.27,0.05,-3.28,-17.44,41.74,-17.10,-1.00
5066.00,-0.14,6.11,-7.91,-0.26,0.05,-3.28,-17.44,41.74,-17.10,-1.00
5077.00,-0.14,6.11,-7.91,-0.26,0.05,-3.28,-17.44,41.74,-17.10,-1.00
5089.00,-0.15,6.11,-7.90,-0.26,0.05,-3.27,-17.44,41.74,-17.10,-1.00
5101.00,-0.15,6.11,-7.90,-0.26,0.05,-3.27,-17.44,41.74,-17.10,-1.00
5115.00,-0.14,6.11,-7.91,-0.26,0.05,-3.28,-15.87,42.39,-17.43,-1.00
5202.00,-0.13,6.08,-7.89,-0.27,0.05,-3.28,-15.87,42.39,-17.43,-1.00
5291.00,-0.15,6.09,-7.88,-0.27,0.05,-3.28,-17.44,42.07,-16.76,-1.00
5378.00,-0.14,6.09,-7.94,-0.27,0.05,-3.28,-17.05,43.68,-18.42,-1.00
5392.00,-0.13,6.09,-7.94,-0.27,0.05,-3.28,-17.05,43.68,-18.42,-1.00
5406.00,-0.13,6.05,-7.92,-0.27,0.05,-3.28,-17.05,43.68,-18.42,-1.00
5417.00,-0.13,6.05,-7.92,-0.27,0.05,-3.28,-17.05,43.68,-18.42,-1.00
5430.00,-0.16,6.09,-7.90,-0.27,0.05,-3.28,-17.05,43.68,-18.42,-1.00
5442.00,-0.16,6.09,-7.90,-0.27,0.05,-3.28,-17.05,43.68,-18.42,-1.00
5454.00,-0.13,6.10,-7.90,-0.27,0.05,-3.28,-17.05,43.68,-18.42,-1.00
5466.00,-0.12,6.09,-7.88,-0.27,0.05,-3.28,-17.05,43.68,-18.42,-1.00
5479.00,-0.12,6.09,-7.88,-0.27,0.05,-3.28,-17.05,43.68,-18.42,-1.00
5491.00,-0.13,6.10,-7.92,-0.27,0.05,-3.28,-16.65,42.71,-18.09,-1.00
5503.00,-0.13,6.10,-7.92,-0.27,0.05,-3.28,-16.65,42.71,-18.09,-1.00
5515.00,-0.13,6.10,-7.90,-0.26,0.05,-3.28,-16.65,42.71,-18.09,-1.00
5529.00,-0.13,6.11,-7.90,-0.27,0.05,-3.28,-16.65,42.71,-18.09,-1.00
5540.00,-0.13,6.11,-7.90,-0.27,0.05,-3.28,-16.65,42.71,-18.09,-1.00
5552.00,-0.14,6.10,-7.88,-0.26,0.05,-3.27,-16.65,42.71,-18.09,-1.00
5564.00,-0.14,6.08,-7.89,-0.26,0.05,-3.28,-16.65,42.71,-18.09,-1.00
5578.00,-0.14,6.08,-7.89,-0.26,0.05,-3.28,-16.65,42.71,-18.09,-1.00
5590.00,-0.15,6.09,-7.92,-0.26,0.05,-3.27,-16.65,42.71,-18.09,-1.00
5602.00,-0.15,6.09,-7.92,-0.26,0.05,-3.27,-16.65,42.71,-18.09,-1.00
5615.00,-0.14,6.09,-7.93,-0.27,0.05,-3.28,-15.87,42.07,-16.43,-1.00
5627.00,-0.15,6.08,-7.92,-0.27,0.05,-3.28,-15.87,42.07,-16.43,-1.00
5639.00,-0.15,6.08,-7.92,-0.27,0.05,-3.28,-15.87,42.07,-16.43,-1.00
5651.00,-0.12,6.09,-7.91,-0.27,0.05,-3.28,-15.87,42.07,-16.43,-1.00
5664.00,-0.13,6.09,-7.90,-0.27,0.05,-3.28,-15.87,42.07,-16.43,-1.00
5676.00,-0.13,6.09,-7.90,-0.27,0.05,-3.28,-15.87,42.07,-16.43,-1.00
5688.00,-0.13,6.09,-7.88,-0.27,0.05,-3.27,-15.87,42.07,-16.43,-1.00
5700.00,-0.13,6.09,-7.88,-0.27,0.05,-3.27,-15.87,42.07,-16.43,-1.00
5714.00,-0.15,6.10,-7.89,-0.27,0.05,-3.28,-15.87,42.07,-16.43,-1.00
5725.00,-0.13,6.10,-7.90,-0.26,0.05,-3.28,-16.85,43.52,-16.93,-1.00
5737.00,-0.13,6.10,-7.90,-0.26,0.05,-3.28,-16.85,43.52,-16.93,-1.00
5750.00,-0.16,6.10,-7.91,-0.27,0.05,-3.28,-16.85,43.52,-16.93,-1.00
5762.00,-0.16,6.10,-7.91,-0.27,0.05,-3.28,-16.85,43.52,-16.93,-1.00
5774.00,-0.15,6.08,-7.92,-0.26,0.05,-3.28,-16.85,43.52,-16.93,-1.00
5786.00,-0.13,6.08,-7.92,-0.27,0.05,-3.27,-16.85,43.52,-16.93,-1.00
5799.00,-0.13,6.08,-7.92,-0.27,0.05,-3.27,-16.85,43.52,-16.93,-1.00
5811.00,-0.13,6.06,-7.87,-0.27,0.05,-3.27,-16.85,43.52,-16.93,-1.00
5823.00,-0.10,6.10,-7.93,-0.27,0.05,-3.28,-16.85,43.52,-16.93,-1.00
5835.00,-0.10,6.10,-7.93,-0.27,0.05,-3.28,-16.85,43.52,-16.93,-1.00
5850.00,-0.11,6.11,-7.96,-0.27,0.05,-3.28,-15.87,43.36,-17.43,-1.00
5862.00,-0.11,6.11,-7.96,-0.27,0.05,-3.28,-15.87,43.36,-17.43,-1.00
5874.00,-0.17,6.10,-7.96,-0.26,0.05,-3.27,-15.87,43.36,-17.43,-1.00
5886.00,-0.17,6.05,-7.84,-0.26,0.06,-3.27,-15.87,43.36,-17.43,-1.00
5900.00,-0.17,6.05,-7.84,-0.26,0.06,-3.27,-15.87,43.36,-17.43,-1.00
5912.00,-0.14,6.08,-7.89,-0.27,0.05,-3.28,-15.87,43.36,-17.43,-1.00
5924.00,-0.14,6.14,-7.94,-0.27,0.05,-3.28,-15.87,43.36,-17.43,-1.00
5938.00,-0.14,6.14,-7.94,-0.27,0.05,-3.28,-15.87,43.36,-17.43,-1.00
5950.00,-0.12,6.10,-7.89,-0.27,0.06,-3.27,-15.87,43.36,-17.43,-1.00
5962.00,-0.12,6.10,-7.89,-0.27,0.06,-3.27,-15.87,43.36,-17.43,-1.00
5974.00,-0.12,6.06,-7.84,-0.27,0.06,-3.27,-15.87,43.36,-17.43,-1.00
5989.00,-0.12,6.10,-7.91,-0.27,0.05,-3.28,-16.85,43.20,-18.26,-1.00
6077.00,-0.13,6.08,-7.95,-0.27,0.05,-3.28,-16.85,43.20,-18.26,-1.00
6164.00,-0.12,6.12,-7.93,-0.27,0.05,-3.28,-15.67,42.23,-16.27,-1.00
6253.00,-0.15,6.09,-7.92,-0.27,0.05,-3.28,-16.26,42.71,-17.10,-1.00
6266.00,-0.13,6.07,-7.91,-0.27,0.05,-3.28,-16.26,42.71,-17.10,-1.00
6278.00,-0.13,6.07,-7.91,-0.27,0.05,-3.28,-16.26,42.71,-17.10,-1.00
6290.00,-0.12,6.08,-7.90,-0.27,0.05,-3.28,-16.26,42.71,-17.10,-1.00
6304.00,-0.12,6.11,-7.91,-0.27,0.05,-3.28,-16.26,42.71,-17.10,-1.00
6316.00,-0.12,6.11,-7.91,-0.27,0.05,-3.28,-16.26,42.71,-17.10,-1.00
6328.00,-0.13,6.12,-7.93,-0.26,0.05,-3.28,-16.26,42.71,-17.10,-1.00
6340.00,-0.13,6.12,-7.93,-0.26,0.05,-3.28,-16.26,42.71,-17.10,-1.00
6354.00,-0.13,6.10,-7.89,-0.27,0.05,-3.27,-15.87,43.04,-17.43,-1.00
6366.00,-0.16,6.08,-7.89,-0.26,0.05,-3.28,-15.87,43.04,-17.43,-1.00
6378.00,-0.16,6.08,-7.89,-0.26,0.05,-3.28,-15.87,43.04,-17.43,-1.00
6390.00,-0.15,6.11,-7.93,-0.27,0.05,-3.28,-15.87,43.04,-17.43,-1.00
6404.00,-0.14,6.11,-7.93,-0.26,0.05,-3.27,-15.87,43.04,-17.43,-1.00
6416.00,-0.14,6.11,-7.93,-0.26,0.05,-3.27,-15.87,43.04,-17.43,-1.00
6428.00,-0.13,6.06,-7.90,-0.26,0.05,-3.27,-15.87,43.04,-17.43,-1.00
6442.00,-0.13,6.09,-7.90,-0.27,0.05,-3.28,-15.87,43.04,-17.43,-1.00
6454.00,-0.13,6.09,-7.90,-0.27,0.05,-3.28,-15.87,43.04,-17.43,-1.00
6466.00,-0.12,6.09,-7.92,-0.27,0.05,-3.28,-16.65,43.04,-18.09,-1.00
6478.00,-0.12,6.09,-7.92,-0.27,0.05,-3.28,-16.65,43.04,-18.09,-1.00
6493.00,-0.11,6.08,-7.91,-0.27,0.05,-3.28,-16.65,43.04,-18.09,-1.00
6504.00,-0.11,6.09,-7.89,-0.26,0.05,-3.27,-16.65,43.04,-18.09,-1.00
6516.00,-0.11,6.09,-7.89,-0.26,0.05,-3.27,-16.65,43.04,-18.09,-1.00
6528.00,-0.13,6.09,-7.89,-0.27,0.05,-3.28,-16.65,43.04,-18.09,-1.00
6542.00,-0.15,6.09,-7.91,-0.27,0.05,-3.28,-16.65,43.04,-18.09,-1.00
6554.00,-0.15,6.09,-7.91,-0.27,0.05,-3.28,-16.65,43.04,-18.09,-1.00
6566.00,-0.12,6.10,-7.92,-0.27,0.05,-3.28,-16.65,43.04,-18.09,-1.00
6578.00,-0.12,6.10,-7.92,-0.27,0.05,-3.28,-16.65,43.04,-18.09,-1.00
6592.00,-0.15,6.08,-7.90,-0.27,0.05,-3.27,-16.65,43.04,-18.09,-1.00
6604.00,-0.13,6.08,-7.92,-0.27,0.05,-3.27,-16.46,43.20,-17.59,-1.00
6616.00,-0.13,6.08,-7.92,-0.27,0.05,-3.27,-16.46,43.20,-17.59,-1.00
6630.00,-0.13,6.10,-7.92,-0.27,0.05,-3.28,-16.46,43.20,-17.59,-1.00
6642.00,-0.12,6.10,-7.90,-0.27,0.05,-3.27,-16.46,43.20,-17.59,-1.00
6654.00,-0.12,6.10,-7.90,-0.27,0.05,-3.27,-16.46,43.20,-17.59,-1.00
6666.00,-0.12,6.09,-7.91,-0.27,0.05,-3.27,-16.46,43.20,-17.59,-1.00
6680.00,-0.12,6.09,-7.91,-0.27,0.05,-3.27,-16.46,43.20,-17.59,-1.00
6692.00,-0.13,6.09,-7.90,-0.27,0.05,-3.28,-16.46,43.20,-17.59,-1.00
6704.00,-0.13,6.09,-7.91,-0.27,0.05,-3.28,-16.46,43.20,-17.59,-1.00
6716.00,-0.13,6.09,-7.91,-0.27,0.05,-3.28,-16.46,43.20,-17.59,-1.00
6730.00,-0.13,6.08,-7.93,-0.27,0.05,-3.28,-15.67,43.52,-17.93,-1.00
6742.00,-0.14,6.07,-7.90,-0.27,0.05,-3.27,-15.67,43.52,-17.93,-1.00
6754.00,-0.14,6.07,-7.90,-0.27,0.05,-3.27,-15.67,43.52,-17.93,-1.00
6769.00,-0.14,6.09,-7.91,-0.27,0.05,-3.27,-15.67,43.52,-17.93,-1.00
6780.00,-0.14,6.09,-7.91,-0.27,0.05,-3.27,-15.67,43.52,-17.93,-1.00
6792.00,-0.14,6.11,-7.90,-0.27,0.05,-3.28,-15.67,43.52,-17.93,-1.00
6804.00,-0.14,6.08,-7.89,-0.27,0.05,-3.27,-15.67,43.52,-17.93,-1.00
6818.00,-0.14,6.08,-7.89,-0.27,0.05,-3.27,-15.67,43.52,-17.93,-1.00
6830.00,-0.12,6.08,-7.88,-0.26,0.05,-3.28,-15.67,43.52,-17.93,-1.00
6842.00,-0.13,6.10,-7.93,-0.27,0.05,-3.28,-15.48,43.04,-17.76,-1.00
6854.00,-0.13,6.10,-7.93,-0.27,0.05,-3.28,-15.48,43.04,-17.76,-1.00
6868.00,-0.12,6.09,-7.91,-0.27,0.05,-3.28,-15.48,43.04,-17.76,-1.00
6880.00,-0.12,6.09,-7.91,-0.27,0.05,-3.28,-15.48,43.04,-17.76,-1.00
6892.00,-0.13,6.06,-7.91,-0.27,0.05,-3.28,-15.48,43.04,-17.76,-1.00
6905.00,-0.14,6.08,-7.92,-0.27,0.05,-3.28,-15.48,43.04,-17.76,-1.00
6918.00,-0.14,6.08,-7.92,-0.27,0.05,-3.28,-15.48,43.04,-17.76,-1.00
6930.00,-0.15,6.08,-7.91,-0.26,0.05,-3.28,-15.48,43.04,-17.76,-1.00
6942.00,-0.14,6.10,-7.91,-0.27,0.05,-3.28,-15.48,43.04,-17.76,-1.00
6956.00,-0.14,6.10,-7.91,-0.27,0.05,-3.28,-15.48,43.04,-17.76,-1.00
6968.00,-0.16,6.10,-7.92,-0.26,0.05,-3.28,-16.65,43.36,-16.76,-1.00
6980.00,-0.16,6.10,-7.92,-0.26,0.05,-3.28,-16.65,43.36,-16.76,-1.00
6992.00,-0.14,6.09,-7.88,-0.26,0.05,-3.28,-16.65,43.36,-16.76,-1.00
7006.00,-0.12,6.11,-7.90,-0.26,0.05,-3.28,-16.65,43.36,-16.76,-1.00
7018.00,-0.12,6.11,-7.90,-0.26,0.05,-3.28,-16.65,43.36,-16.76,-1.00
7030.00,-0.13,6.12,-7.90,-0.27,0.05,-3.28,-16.65,43.36,-16.76,-1.00
7042.00,-0.14,6.07,-7.87,-0.27,0.05,-3.27,-16.65,43.36,-16.76,-1.00
7057.00,-0.14,6.07,-7.87,-0.27,0.05,-3.27,-16.65,43.36,-16.76,-1.00
7068.00,-0.15,6.07,-7.90,-0.27,0.05,-3.28,-16.65,43.36,-16.76,-1.00
7080.00,-0.15,6.07,-7.90,-0.27,0.05,-3.28,-16.65,43.36,-16.76,-1.00
7094.00,-0.16,6.09,-7.93,-0.27,0.05,-3.28,-16.07,42.88,-17.26,-1.00
7106.00,-0.13,6.08,-7.93,-0.27,0.05,-3.27,-16.07,42.88,-17.26,-1.00
7118.00,-0.13,6.08,-7.93,-0.27,0.05,-3.27,-16.07,42.88,-17.26,-1.00
7130.00,-0.12,6.09,-7.92,-0.27,0.05,-3.27,-16.07,42.88,-17.26,-1.00
7144.00,-0.12,6.08,-7.90,-0.27,0.05,-3.28,-16.07,42.88,-17.26,-1.00
7156.00,-0.12,6.08,-7.90,-0.27,0.05,-3.28,-16.07,42.88,-17.26,-1.00
7168.00,-0.11,6.09,-7.90,-0.27,0.05,-3.27,-16.07,42.88,-17.26,-1.00
7180.00,-0.11,6.09,-7.90,-0.27,0.05,-3.27,-16.07,42.88,-17.26,-1.00
7194.00,-0.11,6.11,-7.90,-0.27,0.05,-3.28,-16.07,42.88,-17.26,-1.00
7206.00,-0.15,6.12,-7.91,-0.27,0.05,-3.27,-16.07,42.88,-17.26,-1.00
7218.00,-0.15,6.12,-7.91,-0.27,0.05,-3.27,-16.07,42.88,-17.26,-1.00
7230.00,-0.16,6.13,-7.90,-0.27,0.05,-3.27,-16.07,42.88,-17.26,-1.00
7244.00,-0.14,6.04,-7.83,-0.27,0.05,-3.28,-16.07,42.88,-17.26,-1.00
7256.00,-0.14,6.04,-7.83,-0.27,0.05,-3.28,-16.07,42.88,-17.26,-1.00
7268.00,-0.10,6.12,-7.94,-0.27,0.05,-3.28,-16.07,42.88,-17.26,-1.00
7282.00,-0.13,6.13,-7.97,-0.26,0.06,-3.27,-16.07,42.88,-17.26,-1.00
7294.00,-0.13,6.13,-7.97,-0.26,0.06,-3.27,-16.07,42.88,-17.26,-1.00
7306.00,-0.16,5.98,-7.82,-0.26,0.06,-3.27,-16.07,42.88,-17.26,-1.00
7318.00,-0.16,5.98,-7.82,-0.26,0.06,-3.27,-16.07,42.88,-17.26,-1.00
7333.00,-0.14,6.05,-7.90,-0.27,0.05,-3.28,-16.07,42.88,-17.26,-1.00
7344.00,-0.10,6.14,-8.04,-0.27,0.05,-3.28,-16.26,43.04,-17.10,-1.00
7356.00,-0.10,6.14,-8.04,-0.27,0.05,-3.28,-16.26,43.04,-17.10,-1.00
7368.00,-0.11,6.07,-7.88,-0.27,0.05,-3.27,-16.26,43.04,-17.10,-1.00
7382.00,-0.15,6.06,-7.84,-0.27,0.06,-3.27,-16.26,43.04,-17.10,-1.00
7394.00,-0.15,6.06,-7.84,-0.27,0.06,-3.27,-16.26,43.04,-17.10,-1.00
7406.00,-0.18,6.12,-7.90,-0.27,0.05,-3.28,-16.26,43.04,-17.10,-1.00
7420.00,-0.18,6.12,-7.90,-0.27,0.05,-3.28,-16.26,43.04,-17.10,-1.00
7432.00,-0.15,6.11,-7.87,-0.27,0.05,-3.28,-16.26,43.04,-17.10,-1.00
7444.00,-0.13,6.11,-7.92,-0.27,0.05,-3.27,-16.26,43.04,-17.10,-1.00
7456.00,-0.13,6.11,-7.92,-0.27,0.05,-3.27,-16.26,43.04,-17.10,-1.00
7470.00,-0.16,6.08,-7.89,-0.27,0.06,-3.27,-15.28,43.20,-18.26,-1.00
7482.00,-0.12,6.05,-7.87,-0.27,0.05,-3.28,-15.28,43.20,-18.26,-1.00
7494.00,-0.12,6.05,-7.87,-0.27,0.05,-3.28,-15.28,43.20,-18.26,-1.00
7506.00,-0.10,6.12,-7.96,-0.27,0.05,-3.28,-15.28,43.20,-18.26,-1.00
7520.00,-0.10,6.12,-7.96,-0.27,0.05,-3.28,-15.28,43.20,-18.26,-1.00
7532.00,-0.10,6.06,-7.90,-0.27,0.05,-3.28,-15.28,43.20,-18.26,-1.00
7544.00,-0.11,6.02,-7.87,-0.27,0.05,-3.28,-15.28,43.20,-18.26,-1.00
7558.00,-0.11,6.02,-7.87,-0.27,0.05,-3.28,-15.28,43.20,-18.26,-1.00
7570.00,-0.15,6.11,-7.95,-0.27,0.05,-3.28,-15.28,43.20,-18.26,-1.00
7582.00,-0.17,6.09,-7.94,-0.26,0.05,-3.28,-17.63,41.91,-17.93,-1.00
7594.00,-0.17,6.09,-7.94,-0.26,0.05,-3.28,-17.63,41.91,-17.93,-1.00
7608.00,-0.17,6.06,-7.89,-0.26,0.05,-3.27,-17.63,41.91,-17.93,-1.00
7620.00,-0.17,6.06,-7.89,-0.26,0.05,-3.27,-17.63,41.91,-17.93,-1.00
7632.00,-0.15,6.10,-7.90,-0.27,0.05,-3.28,-17.63,41.91,-17.93,-1.00
7644.00,-0.12,6.09,-7.88,-0.27,0.05,-3.28,-17.63,41.91,-17.93,-1.00
7659.00,-0.12,6.09,-7.88,-0.27,0.05,-3.28,-17.63,41.91,-17.93,-1.00
7745.00,-0.15,6.11,-7.97,-0.27,0.05,-3.28,-16.46,43.52,-18.26,-1.00
7834.00,-0.11,6.10,-7.89,-0.26,0.05,-3.27,-16.26,44.01,-17.76,-1.00
7921.00,-0.14,6.07,-7.92,-0.27,0.05,-3.28,-16.26,44.01,-17.76,-1.00
7935.00,-0.14,6.07,-7.92,-0.27,0.05,-3.28,-16.26,44.01,-17.76,-1.00
7947.00,-0.16,6.04,-7.89,-0.27,0.05,-3.28,-16.26,44.01,-17.76,-1.00
7959.00,-0.16,6.04,-7.89,-0.27,0.05,-3.28,-16.26,44.01,-17.76,-1.00
7974.00,-0.15,6.08,-7.94,-0.27,0.05,-3.28,-15.28,43.20,-17.59,-1.00
7985.00,-0.13,6.08,-7.95,-0.27,0.05,-3.27,-15.28,43.20,-17.59,-1.00
7997.00,-0.13,6.08,-7.95,-0.27,0.05,-3.27,-15.28,43.20,-17.59,-1.00
8009.00,-0.12,6.05,-7.92,-0.27,0.05,-3.27,-15.28,43.20,-17.59,-1.00
8023.00,-0.10,6.07,-7.88,-0.27,0.05,-3.27,-15.28,43.20,-17.59,-1.00
8035.00,-0.10,6.07,-7.88,-0.27,0.05,-3.27,-15.28,43.20,-17.59,-1.00
8047.00,-0.09,6.09,-7.90,-0.27,0.05,-3.28,-15.28,43.20,-17.59,-1.00
8059.00,-0.09,6.09,-7.90,-0.27,0.05,-3.28,-15.28,43.20,-17.59,-1.00
8073.00,-0.13,6.10,-7.87,-0.27,0.05,-3.28,-15.28,43.20,-17.59,-1.00
8085.00,-0.11,6.09,-7.89,-0.27,0.05,-3.28,-16.26,43.04,-17.43,-1.00
8097.00,-0.11,6.09,-7.89,-0.27,0.05,-3.28,-16.26,43.04,-17.43,-1.00
8111.00,-0.11,6.13,-7.98,-0.27,0.05,-3.28,-16.26,43.04,-17.43,-1.00
8125.00,-0.19,6.07,-7.95,-0.27,0.05,-3.27,-16.26,43.04,-17.43,-1.00
8136.00,-0.19,6.07,-7.95,-0.27,0.05,-3.27,-16.26,43.04,-17.43,-1.00
8148.00,-0.23,5.99,-7.83,-0.26,0.05,-3.28,-16.26,43.04,-17.43,-1.00
8162.00,-0.20,6.10,-7.95,-0.27,0.05,-3.28,-16.26,43.04,-17.43,-1.00
8174.00,-0.20,6.10,-7.95,-0.27,0.05,-3.28,-16.26,43.04,-17.43,-1.00
8186.00,-0.14,6.14,-7.99,-0.27,0.05,-3.27,-16.26,43.04,-17.43,-1.00
8198.00,-0.14,6.14,-7.99,-0.27,0.05,-3.27,-16.26,43.04,-17.43,-1.00
8212.00,-0.09,6.04,-7.86,-0.27,0.06,-3.27,-16.85,42.23,-17.59,-1.00
8224.00,-0.09,6.07,-7.87,-0.27,0.06,-3.27,-16.85,42.23,-17.59,-1.00
8236.00,-0.09,6.07,-7.87,-0.27,0.06,-3.27,-16.85,42.23,-17.59,-1.00
8248.00,-0.08,6.10,-7.92,-0.27,0.05,-3.28,-16.85,42.23,-17.59,-1.00
8262.00,-0.09,6.07,-7.89,-0.27,0.05,-3.28,-16.85,42.23,-17.59,-1.00
8274.00,-0.09,6.07,-7.89,-0.27,0.05,-3.28,-16.85,42.23,-17.59,-1.00
8286.00,-0.16,6.08,-7.94,-0.27,0.05,-3.28,-16.85,42.23,-17.59,-1.00
8300.00,-0.20,6.04,-7.91,-0.27,0.05,-3.28,-16.85,42.23,-17.59,-1.00
8312.00,-0.20,6.04,-7.91,-0.27,0.05,-3.28,-16.85,42.23,-17.59,-1.00
8324.00,-0.19,6.05,-7.91,-0.26,0.05,-3.28,-16.65,43.04,-17.43,-1.00
8336.00,-0.19,6.05,-7.91,-0.26,0.05,-3.28,-16.65,43.04,-17.43,-1.00
8350.00,-0.17,6.13,-8.00,-0.27,0.05,-3.28,-16.65,43.04,-17.43,-1.00
8362.00,-0.14,6.07,-7.88,-0.27,0.06,-3.27,-16.65,43.04,-17.43,-1.00
8374.00,-0.14,6.07,-7.88,-0.27,0.06,-3.27,-16.65,43.04,-17.43,-1.00
8386.00,-0.12,6.06,-7.83,-0.27,0.05,-3.27,-16.65,43.04,-17.43,-1.00
8401.00,-0.11,6.15,-7.93,-0.27,0.05,-3.28,-16.65,43.04,-17.43,-1.00
8412.00,-0.11,6.15,-7.93,-0.27,0.05,-3.28,-16.65,43.04,-17.43,-1.00
8424.00,-0.07,6.09,-7.91,-0.26,0.05,-3.28,-16.65,43.04,-17.43,-1.00
8439.00,-0.07,6.09,-7.91,-0.26,0.05,-3.28,-16.65,43.04,-17.43,-1.00
8450.00,-0.09,6.05,-7.89,-0.27,0.05,-3.27,-14.69,43.36,-17.43,-1.00
8462.00,-0.16,6.06,-7.97,-0.27,0.05,-3.28,-14.69,43.36,-17.43,-1.00
8474.00,-0.16,6.06,-7.97,-0.27,0.05,-3.28,-14.69,43.36,-17.43,-1.00
8488.00,-0.20,6.05,-7.96,-0.27,0.05,-3.28,-14.69,43.36,-17.43,-1.00
8500.00,-0.19,6.07,-7.93,-0.27,0.05,-3.28,-14.69,43.36,-17.43,-1.00
8512.00,-0.19,6.07,-7.93,-0.27,0.05,-3.28,-14.69,43.36,-17.43,-1.00
8524.00,-0.17,6.08,-7.93,-0.27,0.05,-3.27,-14.69,43.36,-17.43,-1.00
8538.00,-0.17,6.08,-7.93,-0.27,0.05,-3.27,-14.69,43.36,-17.43,-1.00
8550.00,-0.11,6.06,-7.85,-0.27,0.05,-3.28,-14.69,43.36,-17.43,-1.00
8562.00,-0.10,6.13,-7.92,-0.27,0.05,-3.28,-14.69,43.36,-17.43,-1.00
8574.00,-0.10,6.13,-7.92,-0.27,0.05,-3.28,-14.69,43.36,-17.43,-1.00
8589.00,-0.11,6.12,-7.89,-0.27,0.05,-3.28,-16.65,43.04,-18.42,-1.00
8600.00,-0.12,6.09,-7.85,-0.26,0.05,-3.28,-16.65,43.04,-18.42,-1.00
8612.00,-0.12,6.09,-7.85,-0.26,0.05,-3.28,-16.65,43.04,-18.42,-1.00
8626.00,-0.12,6.07,-7.92,-0.27,0.05,-3.28,-16.65,43.04,-18.42,-1.00
8638.00,-0.12,6.07,-7.92,-0.27,0.05,-3.28,-16.65,43.04,-18.42,-1.00
8650.00,-0.13,6.09,-7.95,-0.27,0.05,-3.28,-16.65,43.04,-18.42,-1.00
8662.00,-0.17,6.04,-7.94,-0.26,0.05,-3.28,-16.65,43.04,-18.42,-1.00
8676.00,-0.17,6.04,-7.94,-0.26,0.05,-3.28,-16.65,43.04,-18.42,-1.00
8688.00,-0.16,6.05,-7.94,-0.27,0.05,-3.28,-16.65,43.04,-18.42,-1.00
8700.00,-0.15,6.07,-7.93,-0.27,0.05,-3.28,-15.28,43.20,-17.93,-1.00
8712.00,-0.15,6.07,-7.93,-0.27,0.05,-3.28,-15.28,43.20,-17.93,-1.00
8726.00,-0.11,6.10,-7.93,-0.27,0.05,-3.28,-15.28,43.20,-17.93,-1.00
8738.00,-0.11,6.10,-7.93,-0.27,0.05,-3.28,-15.28,43.20,-17.93,-1.00
8750.00,-0.10,6.12,-7.91,-0.27,0.05,-3.27,-15.28,43.20,-17.93,-1.00
8764.00,-0.11,6.09,-7.85,-0.26,0.05,-3.28,-15.28,43.20,-17.93,-1.00
8776.00,-0.11,6.09,-7.85,-0.26,0.05,-3.28,-15.28,43.20,-17.93,-1.00
8788.00,-0.12,6.09,-7.87,-0.27,0.05,-3.28,-15.28,43.20,-17.93,-1.00
8800.00,-0.17,6.12,-7.93,-0.27,0.05,-3.28,-15.28,43.20,-17.93,-1.00
8814.00,-0.17,6.12,-7.93,-0.27,0.05,-3.28,-15.28,43.20,-17.93,-1.00
8826.00,-0.18,6.08,-7.94,-0.26,0.05,-3.28,-17.05,44.33,-17.10,-1.00
8838.00,-0.18,6.08,-7.94,-0.26,0.05,-3.28,-17.05,44.33,-17.10,-1.00
8850.00,-0.18,6.05,-7.91,-0.27,0.05,-3.27,-17.05,44.33,-17.10,-1.00
8865.00,-0.17,6.06,-7.94,-0.27,0.05,-3.28,-17.05,44.33,-17.10,-1.00
8876.00,-0.17,6.06,-7.94,-0.27,0.05,-3.28,-17.05,44.33,-17.10,-1.00
8888.00,-0.12,6.06,-7.93,-0.27,0.05,-3.28,-17.05,44.33,-17.10,-1.00
8902.00,-0.10,6.09,-7.94,-0.27,0.05,-3.28,-17.05,44.33,-17.10,-1.00
8914.00,-0.10,6.09,-7.94,-0.27,0.05,-3.28,-17.05,44.33,-17.10,-1.00
8926.00,-0.10,6.08,-7.90,-0.27,0.05,-3.27,-17.05,44.33,-17.10,-1.00
8938.00,-0.10,6.08,-7.90,-0.27,0.05,-3.27,-17.05,44.33,-17.10,-1.00
8952.00,-0.10,6.08,-7.88,-0.27,0.05,-3.28,-16.85,42.55,-18.26,-1.00
8964.00,-0.14,6.11,-7.95,-0.27,0.05,-3.28,-16.85,42.55,-18.26,-1.00
8976.00,-0.14,6.11,-7.95,-0.27,0.05,-3.28,-16.85,42.55,-18.26,-1.00
8988.00,-0.14,6.10,-7.93,-0.27,0.05,-3.28,-16.85,42.55,-18.26,-1.00
9002.00,-0.19,6.06,-7.87,-0.27,0.05,-3.28,-16.85,42.55,-18.26,-1.00
9014.00,-0.19,6.06,-7.87,-0.27,0.05,-3.28,-16.85,42.55,-18.26,-1.00
9026.00,-0.19,6.08,-7.93,-0.27,0.05,-3.28,-16.85,42.55,-18.26,-1.00
9038.00,-0.19,6.08,-7.93,-0.27,0.05,-3.28,-16.85,42.55,-18.26,-1.00
9052.00,-0.14,6.09,-7.93,-0.27,0.05,-3.28,-16.85,42.55,-18.26,-1.00
9064.00,-0.10,6.08,-7.93,-0.26,0.05,-3.27,-16.07,43.52,-18.59,-1.00
9076.00,-0.10,6.08,-7.93,-0.26,0.05,-3.27,-16.07,43.52,-18.59,-1.00
9090.00,-0.11,6.07,-7.91,-0.27,0.05,-3.27,-16.07,43.52,-18.59,-1.00
9102.00,-0.10,6.08,-7.90,-0.27,0.05,-3.28,-16.07,43.52,-18.59,-1.00
9114.00,-0.10,6.08,-7.90,-0.27,0.05,-3.28,-16.07,43.52,-18.59,-1.00
9126.00,-0.11,6.08,-7.89,-0.27,0.05,-3.28,-16.07,43.52,-18.59,-1.00
9140.00,-0.12,6.09,-7.91,-0.27,0.05,-3.28,-16.07,43.52,-18.59,-1.00
9152.00,-0.12,6.09,-7.91,-0.27,0.05,-3.28,-16.07,43.52,-18.59,-1.00
9164.00,-0.14,6.07,-7.93,-0.27,0.05,-3.28,-16.07,43.52,-18.59,-1.00
9176.00,-0.14,6.07,-7.93,-0.27,0.05,-3.28,-16.07,43.52,-18.59,-1.00
9190.00,-0.18,6.07,-7.91,-0.27,0.05,-3.28,-16.07,42.55,-17.26,-1.00
9202.00,-0.18,6.09,-7.93,-0.27,0.05,-3.28,-16.07,42.55,-17.26,-1.00
9214.00,-0.18,6.09,-7.93,-0.27,0.05,-3.28,-16.07,42.55,-17.26,-1.00
9228.00,-0.15,6.08,-7.88,-0.27,0.05,-3.27,-16.07,42.55,-17.26,-1.00
9240.00,-0.12,6.08,-7.88,-0.27,0.05,-3.28,-16.07,42.55,-17.26,-1.00
9252.00,-0.12,6.08,-7.88,-0.27,0.05,-3.28,-16.07,42.55,-17.26,-1.00
9264.00,-0.10,6.09,-7.89,-0.27,0.05,-3.28,-16.07,42.55,-17.26,-1.00
9278.00,-0.11,6.08,-7.89,-0.27,0.05,-3.28,-16.07,42.55,-17.26,-1.00
9290.00,-0.11,6.08,-7.89,-0.27,0.05,-3.28,-16.07,42.55,-17.26,-1.00
9302.00,-0.12,6.08,-7.90,-0.27,0.05,-3.28,-16.07,42.55,-17.26,-1.00
9314.00,-0.12,6.08,-7.90,-0.27,0.05,-3.28,-16.07,42.55,-17.26,-1.00
9328.00,-0.14,6.07,-7.91,-0.27,0.05,-3.28,-15.09,44.01,-17.43,-1.00
9340.00,-0.15,6.06,-7.93,-0.27,0.05,-3.28,-15.09,44.01,-17.43,-1.00
9352.00,-0.15,6.06,-7.93,-0.27,0.05,-3.28,-15.09,44.01,-17.43,-1.00
9364.00,-0.16,6.07,-7.93,-0.27,0.05,-3.28,-15.09,44.01,-17.43,-1.00
9378.00,-0.16,6.07,-7.91,-0.27,0.05,-3.28,-15.09,44.01,-17.43,-1.00
9390.00,-0.16,6.07,-7.91,-0.27,0.05,-3.28,-15.09,44.01,-17.43,-1.00
9402.00,-0.14,6.08,-7.89,-0.27,0.05,-3.28,-15.09,44.01,-17.43,-1.00
9417.00,-0.14,6.08,-7.89,-0.27,0.05,-3.28,-15.09,44.01,-17.43,-1.00
9428.00,-0.12,6.10,-7.89,-0.27,0.05,-3.28,-15.09,44.01,-17.43,-1.00
9441.00,-0.12,6.09,-7.88,-0.27,0.05,-3.28,-15.67,43.20,-16.93,-1.00
9453.00,-0.12,6.09,-7.88,-0.27,0.05,-3.28,-15.67,43.20,-16.93,-1.00
9467.00,-0.14,6.09,-7.91,-0.27,0.05,-3.27,-15.67,43.20,-16.93,-1.00
9479.00,-0.12,6.08,-7.93,-0.27,0.05,-3.27,-15.67,43.20,-16.93,-1.00
9491.00,-0.12,6.08,-7.93,-0.27,0.05,-3.27,-15.67,43.20,-16.93,-1.00
9503.00,-0.14,6.08,-7.91,-0.27,0.05,-3.28,-15.67,43.20,-16.93,-1.00
9517.00,-0.14,6.08,-7.91,-0.27,0.05,-3.28,-15.67,43.20,-16.93,-1.00
9529.00,-0.15,6.06,-7.92,-0.27,0.05,-3.28,-15.67,43.20,-16.93,-1.00
9541.00,-0.15,6.06,-7.93,-0.27,0.05,-3.27,-15.67,43.20,-16.93,-1.00
9555.00,-0.15,6.06,-7.93,-0.27,0.05,-3.27,-15.67,43.20,-16.93,-1.00
9567.00,-0.14,6.07,-7.94,-0.26,0.05,-3.28,-16.85,41.91,-17.26,-1.00
9579.00,-0.12,6.09,-7.94,-0.27,0.05,-3.28,-16.85,41.91,-17.26,-1.00
9591.00,-0.12,6.09,-7.94,-0.27,0.05,-3.28,-16.85,41.91,-17.26,-1.00
9606.00,-0.12,6.09,-7.91,-0.27,0.05,-3.28,-16.85,41.91,-17.26,-1.00
9617.00,-0.12,6.09,-7.91,-0.27,0.05,-3.28,-16.85,41.91,-17.26,-1.00
9629.00,-0.12,6.10,-7.91,-0.27,0.05,-3.27,-16.85,41.91,-17.26,-1.00
9641.00,-0.14,6.09,-7.89,-0.27,0.05,-3.27,-16.85,41.91,-17.26,-1.00
9655.00,-0.14,6.09,-7.89,-0.27,0.05,-3.27,-16.85,41.91,-17.26,-1.00
9667.00,-0.14,6.09,-7.92,-0.27,0.05,-3.27,-16.85,41.91,-17.26,-1.00
9679.00,-0.14,6.09,-7.92,-0.27,0.05,-3.27,-15.48,43.04,-16.76,-1.00
9691.00,-0.14,6.09,-7.92,-0.27,0.05,-3.27,-15.48,43.04,-16.76,-1.00
9705.00,-0.15,6.07,-7.93,-0.27,0.05,-3.27,-15.48,43.04,-16.76,-1.00
9717.00,-0.15,6.07,-7.93,-0.27,0.05,-3.27,-15.48,43.04,-16.76,-1.00
9729.00,-0.16,6.06,-7.93,-0.27,0.05,-3.28,-15.48,43.04,-16.76,-1.00
9743.00,-0.13,6.08,-7.93,-0.26,0.05,-3.27,-15.48,43.04,-16.76,-1.00
9755.00,-0.13,6.08,-7.93,-0.26,0.05,-3.27,-15.48,43.04,-16.76,-1.00
9767.00,-0.12,6.08,-7.93,-0.27,0.05,-3.28,-15.48,43.04,-16.76,-1.00
9779.00,-0.12,6.07,-7.91,-0.27,0.05,-3.28,-15.48,43.04,-16.76,-1.00
9793.00,-0.12,6.07,-7.91,-0.27,0.05,-3.28,-15.48,43.04,-16.76,-1.00
9805.00,-0.12,6.08,-7.90,-0.27,0.05,-3.28,-16.85,44.49,-19.25,-1.00
9817.00,-0.12,6.08,-7.90,-0.27,0.05,-3.28,-16.85,44.49,-19.25,-1.00
9829.00,-0.12,6.09,-7.92,-0.27,0.05,-3.28,-16.85,44.49,-19.25,-1.00
9843.00,-0.15,6.08,-7.90,-0.27,0.05,-3.28,-16.85,44.49,-19.25,-1.00
9855.00,-0.15,6.08,-7.90,-0.27,0.05,-3.28,-16.85,44.49,-19.25,-1.00
9867.00,-0.15,6.08,-7.91,-0.27,0.05,-3.27,-16.85,44.49,-19.25,-1.00
9882.00,-0.15,6.31,-8.04,-0.26,0.05,-3.28,-16.85,44.49,-19.25,-1.00
9893.00,-0.15,6.31,-8.04,-0.26,0.05,-3.28,-16.85,44.49,-19.25,-1.00
9905.00,-0.18,5.91,-7.79,-0.20,0.03,-3.30,-16.85,44.49,-19.25,-1.00
9917.00,-0.42,5.88,-7.94,-0.29,0.06,-3.27,-16.85,44.49,-19.25,-1.00
9931.00,-0.42,5.88,-7.94,-0.29,0.06,-3.27,-16.85,44.49,-19.25,-1.00
9943.00,1.66,7.46,-7.41,-0.27,0.78,-4.18,-14.30,44.33,-17.76,-1.00
9955.00,1.66,7.46,-7.41,-0.27,0.78,-4.18,-14.30,44.33,-17.76,-1.00
9967.00,-0.63,5.42,-7.50,-0.10,0.28,-3.55,-14.30,44.33,-17.76,-1.00
9981.00,-0.49,9.46,-10.31,0.02,-0.06,-2.95,-14.30,44.33,-17.76,-1.00
9993.00,-0.49,9.46,-10.31,0.02,-0.06,-2.95,-14.30,44.33,-17.76,-1.00
10005.00,-0.27,6.91,-8.30,3.05,0.21,-3.20,-14.30,44.33,-17.76,-1.00
10019.00,0.42,2.80,-7.29,3.91,0.38,-3.45,-14.30,44.33,-17.76,-1.00
10107.00,-0.42,1.91,-12.10,5.99,0.53,-0.94,-15.28,38.03,-26.23,-1.00
10195.00,1.70,2.15,-21.57,2.08,-0.13,-4.50,-0.39,19.27,-43.49,-1.00
10284.00,-0.47,-5.35,-13.14,1.75,-3.10,-3.53,-0.39,19.27,-43.49,-1.00
10297.00,-0.34,-1.00,-14.34,1.50,-3.97,-3.49,-22.93,0.68,-43.66,-1.00
10309.00,-0.34,-1.00,-14.34,1.50,-3.97,-3.49,-22.93,0.68,-43.66,-1.00
10321.00,0.60,-0.92,-12.48,2.38,-4.99,-4.41,-22.93,0.68,-43.66,-1.00
10333.00,0.60,-0.92,-12.48,2.38,-4.99,-4.41,-22.93,0.68,-43.66,-1.00
10347.00,0.41,-2.21,-9.13,3.72,-5.73,-4.98,-22.93,0.68,-43.66,-1.00
10359.00,-1.06,-1.94,-8.41,4.23,-6.23,-5.00,-22.93,0.68,-43.66,-1.00
10371.00,-1.06,-1.94,-8.41,4.23,-6.23,-5.00,-22.93,0.68,-43.66,-1.00
10386.00,-0.13,-3.08,-6.75,5.17,-6.68,-4.92,-22.93,0.68,-43.66,-1.00
10397.00,1.16,-6.40,-2.96,6.10,-7.06,-4.59,-22.93,0.68,-43.66,-1.00
10409.00,1.16,-6.40,-2.96,6.10,-7.06,-4.59,-22.93,0.68,-43.66,-1.00
10421.00,-0.88,-7.46,-0.15,5.53,-6.99,-3.81,-44.88,-18.39,-7.47,-1.00
10435.00,-0.88,-7.46,-0.15,5.53,-6.99,-3.81,-44.88,-18.39,-7.47,-1.00
10447.00,-0.97,-6.75,-0.07,4.41,-6.71,-3.29,-44.88,-18.39,-7.47,-1.00
10459.00,-1.16,-6.77,3.39,6.45,-6.05,-2.34,-44.88,-18.39,-7.47,-1.00
10471.00,-1.16,-6.77,3.39,6.45,-6.05,-2.34,-44.88,-18.39,-7.47,-1.00
10485.00,-2.87,-5.91,5.42,8.15,-5.12,-1.24,-44.88,-18.39,-7.47,-1.00
10497.00,-3.08,-5.94,8.77,7.26,-4.36,-0.74,-44.88,-18.39,-7.47,-1.00
10509.00,-3.08,-5.94,8.77,7.26,-4.36,-0.74,-44.88,-18.39,-7.47,-1.00
10523.00,-2.27,-4.94,11.42,3.23,-3.63,-0.83,-44.88,-18.39,-7.47,-1.00
10535.00,-2.27,-4.94,11.42,3.23,-3.63,-0.83,-44.88,-18.39,-7.47,-1.00
10547.00,-3.08,-3.18,7.65,0.83,-2.60,-1.20,-43.12,-4.01,27.23,-1.00
10559.00,-3.10,-3.18,8.72,1.91,-1.82,-1.39,-43.12,-4.01,27.23,-1.00
10573.00,-3.10,-3.18,8.72,1.91,-1.82,-1.39,-43.12,-4.01,27.23,-1.00
10585.00,-3.11,-2.87,9.68,1.69,-1.08,-1.80,-43.12,-4.01,27.23,-1.00
10597.00,-5.41,-4.57,7.79,0.20,-0.61,-2.40,-43.12,-4.01,27.23,-1.00
10609.00,-5.41,-4.57,7.79,0.20,-0.61,-2.40,-43.12,-4.01,27.23,-1.00
10623.00,-2.82,-4.19,5.80,-0.58,-0.54,-2.43,-43.12,-4.01,27.23,-1.00
10635.00,-2.82,-4.19,5.80,-0.58,-0.54,-2.43,-43.12,-4.01,27.23,-1.00
10647.00,-1.95,-4.54,5.10,-0.23,-0.87,-2.45,-43.12,-4.01,27.23,-1.00
10662.00,-1.04,-6.15,7.28,0.12,-1.16,-2.28,-43.12,-4.01,27.23,-1.00
10673.00,-1.04,-6.15,7.28,0.12,-1.16,-2.28,-43.12,-4.01,27.23,-1.00
10686.00,-0.26,-5.81,7.48,-0.29,-1.03,-1.85,-37.63,2.46,31.54,-1.00
10697.00,1.43,-5.01,8.67,-1.66,-1.14,-1.60,-37.63,2.46,31.54,-1.00
10711.00,1.43,-5.01,8.67,-1.66,-1.14,-1.60,-37.63,2.46,31.54,-1.00
10723.00,-1.57,-2.71,6.71,-3.97,-1.43,-1.72,-37.63,2.46,31.54,-1.00
10735.00,-1.57,-2.71,6.71,-3.97,-1.43,-1.72,-37.63,2.46,31.54,-1.00
10747.00,-2.31,-3.22,4.09,-2.17,-1.16,-1.58,-37.63,2.46,31.54,-1.00
10761.00,-2.96,-2.73,5.85,1.45,-0.66,-1.32,-37.63,2.46,31.54,-1.00
10773.00,-2.96,-2.73,5.85,1.45,-0.66,-1.32,-37.63,2.46,31.54,-1.00
10785.00,-2.54,-0.97,5.89,2.37,-0.67,-1.66,-37.63,2.46,31.54,-1.00
10797.00,-2.81,-1.17,7.96,4.02,-0.54,-1.91,-32.92,7.31,35.20,-1.00
10812.00,-2.81,-1.17,7.96,4.02,-0.54,-1.91,-32.92,7.31,35.20,-1.00
10823.00,-6.83,-0.86,12.34,3.44,0.17,-2.33,-32.92,7.31,35.20,-1.00
10835.00,-6.83,-0.86,12.34,3.44,0.17,-2.33,-32.92,7.31,35.20,-1.00
10850.00,-8.22,-1.36,7.10,1.52,1.45,-3.03,-32.92,7.31,35.20,-1.00
10861.00,-6.20,-0.93,8.34,2.08,1.83,-3.40,-32.92,7.31,35.20,-1.00
10873.00,-6.20,-0.93,8.34,2.08,1.83,-3.40,-32.92,7.31,35.20,-1.00
10885.00,-7.20,-0.44,9.28,1.79,1.67,-3.58,-32.92,7.31,35.20,-1.00
10899.00,-6.82,-2.20,10.12,0.46,1.62,-3.93,-32.92,7.31,35.20,-1.00
10911.00,-6.82,-2.20,10.12,0.46,1.62,-3.93,-32.92,7.31,35.20,-1.00
10923.00,-8.18,-1.87,9.31,0.01,1.95,-3.75,-39.20,16.69,25.57,-1.00
10935.00,-8.18,-1.87,9.31,0.01,1.95,-3.75,-39.20,16.69,25.57,-1.00
10949.00,-7.27,-0.72,7.24,0.22,2.15,-3.68,-39.20,16.69,25.57,-1.00
10961.00,-7.76,-1.01,6.54,1.04,2.02,-3.78,-39.20,16.69,25.57,-1.00
10973.00,-7.76,-1.01,6.54,1.04,2.02,-3.78,-39.20,16.69,25.57,-1.00
10985.00,-8.06,-1.68,6.24,0.76,1.62,-3.95,-39.20,16.69,25.57,-1.00
11000.00,-8.71,-3.13,5.47,1.60,1.44,-3.60,-39.20,16.69,25.57,-1.00
11011.00,-8.71,-3.13,5.47,1.60,1.44,-3.60,-39.20,16.69,25.57,-1.00
11023.00,-7.53,-4.41,5.68,0.78,1.17,-3.10,-39.20,16.69,25.57,-1.00
11035.00,-7.53,-4.41,5.68,0.78,1.17,-3.10,-39.20,16.69,25.57,-1.00
11049.00,-8.05,-4.10,5.34,-0.32,0.93,-2.40,-46.06,18.79,16.44,-1.00
11061.00,-8.26,-3.84,3.79,-1.16,0.51,-1.67,-46.06,18.79,16.44,-1.00
11073.00,-8.26,-3.84,3.79,-1.16,0.51,-1.67,-46.06,18.79,16.44,-1.00
11087.00,-7.20,-1.59,3.18,-2.11,-0.29,-1.01,-46.06,18.79,16.44,-1.00
11099.00,-6.56,-0.81,2.74,-1.15,-0.87,-0.16,-46.06,18.79,16.44,-1.00
11111.00,-6.56,-0.81,2.74,-1.15,-0.87,-0.16,-46.06,18.79,16.44,-1.00
11123.00,-6.57,1.15,6.39,-0.19,-1.27,0.46,-46.06,18.79,16.44,-1.00
11137.00,-8.45,6.64,12.31,0.08,-1.00,0.22,-46.06,18.79,16.44,-1.00
11149.00,-8.45,6.64,12.31,0.08,-1.00,0.22,-46.06,18.79,16.44,-1.00
11161.00,-9.96,11.51,10.88,-0.43,0.21,-1.62,-39.39,30.43,19.09,-1.00
11173.00,-9.96,11.51,10.88,-0.43,0.21,-1.62,-39.39,30.43,19.09,-1.00
11187.00,-8.04,4.17,5.04,-1.91,0.82,-4.49,-39.39,30.43,19.09,-1.00
11199.00,-6.72,-2.65,6.17,-2.63,0.37,-5.30,-39.39,30.43,19.09,-1.00
11211.00,-6.72,-2.65,6.17,-2.63,0.37,-5.30,-39.39,30.43,19.09,-1.00
11225.00,-6.99,-0.43,7.31,-2.22,0.33,-4.27,-39.39,30.43,19.09,-1.00
11237.00,-7.42,0.34,6.52,-1.83,0.62,-3.91,-39.39,30.43,19.09,-1.00
11249.00,-7.42,0.34,6.52,-1.83,0.62,-3.91,-39.39,30.43,19.09,-1.00
11261.00,-7.93,0.83,6.87,-1.73,0.61,-3.90,-39.39,30.43,19.09,-1.00
11276.00,-7.70,0.01,6.88,-1.81,0.56,-4.11,-39.39,30.43,19.09,-1.00
11287.00,-7.70,0.01,6.88,-1.81,0.56,-4.11,-39.39,30.43,19.09,-1.00
11299.00,-7.62,-1.68,6.25,-1.79,0.50,-4.20,-44.49,19.76,23.74,-1.00
11311.00,-7.62,-1.68,6.25,-1.79,0.50,-4.20,-44.49,19.76,23.74,-1.00
11325.00,-7.52,-3.00,6.17,-1.37,0.37,-3.95,-44.49,19.76,23.74,-1.00
11337.00,-8.49,-1.83,6.22,-0.76,0.24,-3.56,-44.49,19.76,23.74,-1.00
11349.00,-8.49,-1.83,6.22,-0.76,0.24,-3.56,-44.49,19.76,23.74,-1.00
11361.00,-7.83,-0.98,6.30,-0.54,0.04,-3.47,-44.49,19.76,23.74,-1.00
11375.00,-7.62,-0.68,6.18,-0.47,0.04,-3.52,-44.49,19.76,23.74,-1.00
11387.00,-7.62,-0.68,6.18,-0.47,0.04,-3.52,-44.49,19.76,23.74,-1.00
11399.00,-7.06,-1.46,4.36,0.01,0.07,-3.61,-44.49,19.76,23.74,-1.00
11413.00,-7.06,-1.46,4.36,0.01,0.07,-3.61,-44.49,19.76,23.74,-1.00
11425.00,-7.48,-3.57,4.12,0.22,-0.22,-3.36,-46.25,14.42,23.58,-1.00
11437.00,-3.95,-1.71,4.65,1.42,-0.17,-2.82,-46.25,14.42,23.58,-1.00
11449.00,-3.95,-1.71,4.65,1.42,-0.17,-2.82,-46.25,14.42,23.58,-1.00
11463.00,-6.27,0.89,4.24,3.83,-0.05,-2.36,-46.25,14.42,23.58,-1.00
11475.00,-9.49,-0.16,8.84,4.54,-0.18,-2.49,-46.25,14.42,23.58,-1.00
11487.00,-9.49,-0.16,8.84,4.54,-0.18,-2.49,-46.25,14.42,23.58,-1.00
11499.00,-8.03,0.05,8.21,2.32,0.08,-3.11,-46.25,14.42,23.58,-1.00
11513.00,-8.03,0.05,8.21,2.32,0.08,-3.11,-46.25,14.42,23.58,-1.00
11525.00,-8.11,-1.56,7.44,1.19,0.37,-3.43,-46.25,14.42,23.58,-1.00
11537.00,-9.14,-2.82,8.26,0.02,0.56,-3.45,-45.66,26.22,15.44,-1.00
11552.00,-9.14,-2.82,8.26,0.02,0.56,-3.45,-45.66,26.22,15.44,-1.00
11563.00,-7.79,-1.01,6.58,-1.54,0.62,-3.32,-45.66,26.22,15.44,-1.00
11575.00,-7.68,0.80,6.97,-1.61,0.69,-3.34,-45.66,26.22,15.44,-1.00
11587.00,-7.68,0.80,6.97,-1.61,0.69,-3.34,-45.66,26.22,15.44,-1.00
11601.00,-7.89,-0.36,5.46,-1.94,0.67,-3.58,-45.66,26.22,15.44,-1.00
11613.00,-7.89,-0.36,5.46,-1.94,0.67,-3.58,-45.66,26.22,15.44,-1.00
11625.00,-7.51,-0.70,5.15,-2.24,0.39,-3.54,-45.66,26.22,15.44,-1.00
11637.00,-5.41,-0.31,5.95,-2.03,0.15,-3.22,-45.66,26.22,15.44,-1.00
11651.00,-5.41,-0.31,5.95,-2.03,0.15,-3.22,-45.66,26.22,15.44,-1.00
11663.00,-7.38,0.82,5.84,-1.63,0.12,-3.13,-46.06,20.40,18.43,-1.00
11675.00,-8.22,-0.41,6.49,-1.09,0.21,-3.34,-46.06,20.40,18.43,-1.00
11687.00,-8.22,-0.41,6.49,-1.09,0.21,-3.34,-46.06,20.40,18.43,-1.00
11702.00,-8.20,-0.52,5.65,-1.27,0.15,-3.45,-46.06,20.40,18.43,-1.00
11713.00,-8.20,-0.52,5.65,-1.27,0.15,-3.45,-46.06,20.40,18.43,-1.00
11725.00,-7.70,-0.69,5.80,-1.24,0.00,-3.50,-46.06,20.40,18.43,-1.00
11739.00,-7.65,-0.79,5.54,-0.80,0.02,-3.40,-46.06,20.40,18.43,-1.00
11751.00,-7.65,-0.79,5.54,-0.80,0.02,-3.40,-46.06,20.40,18.43,-1.00
11763.00,-8.09,-0.87,6.19,-0.72,0.02,-3.32,-46.06,20.40,18.43,-1.00
11775.00,-8.46,-1.78,5.39,-0.81,0.11,-3.46,-46.45,19.43,20.09,-1.00
11789.00,-8.46,-1.78,5.39,-0.81,0.11,-3.46,-46.45,19.43,20.09,-1.00
11801.00,-8.17,-2.79,4.94,-0.69,0.11,-3.57,-46.45,19.43,20.09,-1.00
11813.00,-8.17,-2.79,4.94,-0.69,0.11,-3.57,-46.45,19.43,20.09,-1.00
11825.00,-8.01,-2.19,5.02,-0.58,0.08,-3.45,-46.45,19.43,20.09,-1.00
11839.00,-7.51,-2.30,4.91,-0.54,0.16,-3.42,-46.45,19.43,20.09,-1.00
11851.00,-7.51,-2.30,4.91,-0.54,0.16,-3.42,-46.45,19.43,20.09,-1.00
11863.00,-7.96,-2.32,5.22,-0.48,0.26,-3.35,-46.45,19.43,20.09,-1.00
11875.00,-8.91,-1.80,5.34,-0.31,0.29,-3.21,-46.45,19.43,20.09,-1.00
11889.00,-8.91,-1.80,5.34,-0.31,0.29,-3.21,-46.45,19.43,20.09,-1.00
11901.00,-8.49,-0.72,5.53,-0.42,0.15,-3.12,-46.25,17.33,21.58,-1.00
11913.00,-8.49,-0.72,5.53,-0.42,0.15,-3.12,-46.25,17.33,21.58,-1.00
11927.00,-7.69,-1.09,5.67,-0.58,0.06,-3.24,-46.25,17.33,21.58,-1.00
11939.00,-7.33,-1.94,5.74,-0.44,0.13,-3.34,-46.25,17.33,21.58,-1.00
11951.00,-7.33,-1.94,5.74,-0.44,0.13,-3.34,-46.25,17.33,21.58,-1.00
11963.00,-7.76,-1.77,5.32,-0.29,0.18,-3.20,-46.25,17.33,21.58,-1.00
11978.00,-7.98,-1.73,5.50,-0.31,0.07,-3.10,-46.25,17.33,21.58,-1.00
11989.00,-7.98,-1.73,5.50,-0.31,0.07,-3.10,-46.25,17.33,21.58,-1.00
12001.00,-7.91,-1.75,5.36,-0.34,0.01,-3.09,-46.25,17.33,21.58,-1.00
12013.00,-7.91,-1.75,5.36,-0.34,0.01,-3.09,-46.25,17.33,21.58,-1.00
12027.00,-7.93,-2.02,5.48,-0.27,0.03,-3.15,-46.25,17.33,21.58,-1.00
12039.00,-8.10,-2.06,5.37,-0.17,0.07,-3.21,-46.84,18.79,20.42,-1.00
12051.00,-8.10,-2.06,5.37,-0.17,0.07,-3.21,-46.84,18.79,20.42,-1.00
12065.00,-8.04,-2.21,5.55,-0.10,0.09,-3.28,-46.84,18.79,20.42,-1.00
12077.00,-7.85,-1.90,5.35,-0.10,0.14,-3.30,-46.84,18.79,20.42,-1.00
12089.00,-7.85,-1.90,5.35,-0.10,0.14,-3.30,-46.84,18.79,20.42,-1.00
12101.00,-8.14,-1.53,5.46,-0.08,0.15,-3.27,-46.84,18.79,20.42,-1.00
12115.00,-8.67,-1.25,5.48,-0.15,0.12,-3.25,-46.84,18.79,20.42,-1.00
12127.00,-8.67,-1.25,5.48,-0.15,0.12,-3.25,-46.84,18.79,20.42,-1.00
12139.00,-8.52,-1.20,5.74,-0.33,0.07,-3.32,-46.84,18.79,20.42,-1.00
12151.00,-8.52,-1.20,5.74,-0.33,0.07,-3.32,-46.84,18.79,20.42,-1.00
12166.00,-8.32,-1.73,5.45,-0.48,0.08,-3.38,-46.64,18.30,19.59,-1.00
12177.00,-7.80,-1.96,5.38,-0.52,0.06,-3.30,-46.64,18.30,19.59,-1.00
12189.00,-7.80,-1.96,5.38,-0.52,0.06,-3.30,-46.64,18.30,19.59,-1.00
12204.00,-8.16,-1.70,5.49,-0.42,0.07,-3.22,-46.64,18.30,19.59,-1.00
12216.00,-7.99,-2.21,5.49,-0.40,0.13,-3.26,-46.64,18.30,19.59,-1.00
12228.00,-7.99,-2.21,5.49,-0.40,0.13,-3.26,-46.64,18.30,19.59,-1.00
12240.00,-7.94,-2.26,5.40,-0.37,0.21,-3.23,-46.64,18.30,19.59,-1.00
12254.00,-8.00,-1.87,5.27,-0.30,0.25,-3.19,-46.64,18.30,19.59,-1.00
12266.00,-8.00,-1.87,5.27,-0.30,0.25,-3.19,-46.64,18.30,19.59,-1.00
12278.00,-7.99,-1.45,5.10,-0.29,0.20,-3.17,-48.21,17.33,20.59,-1.00
12290.00,-7.99,-1.45,5.10,-0.29,0.20,-3.17,-48.21,17.33,20.59,-1.00
12304.00,-8.10,-1.41,5.36,-0.35,0.11,-3.17,-48.21,17.33,20.59,-1.00
12316.00,-8.11,-1.62,5.45,-0.32,0.09,-3.25,-48.21,17.33,20.59,-1.00
12328.00,-8.11,-1.62,5.45,-0.32,0.09,-3.25,-48.21,17.33,20.59,-1.00
12340.00,-8.17,-1.72,5.15,-0.23,0.09,-3.30,-48.21,17.33,20.59,-1.00
12354.00,-8.14,-1.49,5.21,-0.22,0.05,-3.29,-48.21,17.33,20.59,-1.00
12442.00,-8.10,-1.99,5.23,-0.17,0.04,-3.44,-46.84,18.46,20.42,-1.00
12530.00,-7.79,-2.06,5.65,0.06,0.32,-3.22,-48.41,19.11,19.09,-1.00
12544.00,-8.03,-1.74,5.31,0.08,0.41,-3.12,-48.41,19.11,19.09,-1.00
12556.00,-8.66,-1.09,6.32,0.03,0.29,-3.08,-48.41,19.11,19.09,-1.00
12568.00,-8.66,-1.09,6.32,0.03,0.29,-3.08,-48.41,19.11,19.09,-1.00
12580.00,-8.53,-0.63,4.37,-0.15,0.30,-3.11,-48.41,19.11,19.09,-1.00
12594.00,-8.64,-1.09,4.85,-0.18,0.20,-3.26,-48.41,19.11,19.09,-1.00
12606.00,-8.64,-1.09,4.85,-0.18,0.20,-3.26,-48.41,19.11,19.09,-1.00
12618.00,-8.39,-1.36,5.22,-0.27,0.14,-3.37,-48.41,19.11,19.09,-1.00
12630.00,-8.39,-1.36,5.22,-0.27,0.14,-3.37,-48.41,19.11,19.09,-1.00
12644.00,-8.24,-1.63,5.02,-0.39,0.15,-3.36,-48.41,19.11,19.09,-1.00
12656.00,-8.22,-1.81,4.75,-0.52,0.10,-3.34,-47.82,16.69,16.27,-1.00
12668.00,-8.22,-1.81,4.75,-0.52,0.10,-3.34,-47.82,16.69,16.27,-1.00
12682.00,-8.36,-1.86,5.21,-0.53,0.06,-3.29,-47.82,16.69,16.27,-1.00
12694.00,-8.22,-1.83,4.93,-0.50,0.06,-3.25,-47.82,16.69,16.27,-1.00
12706.00,-8.22,-1.83,4.93,-0.50,0.06,-3.25,-47.82,16.69,16.27,-1.00
12718.00,-8.30,-1.86,4.98,-0.42,0.05,-3.28,-47.82,16.69,16.27,-1.00
12732.00,-8.30,-1.86,4.98,-0.42,0.05,-3.28,-47.82,16.69,16.27,-1.00
12744.00,-8.46,-1.78,5.49,-0.33,0.06,-3.28,-47.82,16.69,16.27,-1.00
12756.00,-8.30,-1.52,4.87,-0.38,0.11,-3.24,-47.82,16.69,16.27,-1.00
12768.00,-8.30,-1.52,4.87,-0.38,0.11,-3.24,-47.82,16.69,16.27,-1.00
12783.00,-8.35,-1.65,5.05,-0.36,0.11,-3.27,-49.00,17.98,17.93,-1.00
12794.00,-8.40,-1.67,5.27,-0.39,0.11,-3.30,-49.00,17.98,17.93,-1.00
12806.00,-8.40,-1.67,5.27,-0.39,0.11,-3.30,-49.00,17.98,17.93,-1.00
12818.00,-8.48,-0.99,4.84,-0.48,0.12,-3.25,-49.00,17.98,17.93,-1.00
12832.00,-8.48,-0.99,4.84,-0.48,0.12,-3.25,-49.00,17.98,17.93,-1.00
12844.00,-8.37,-1.65,4.71,-0.55,0.10,-3.26,-49.00,17.98,17.93,-1.00
12856.00,-8.31,-1.73,5.09,-0.51,0.04,-3.14,-49.00,17.98,17.93,-1.00
12870.00,-8.31,-1.73,5.09,-0.51,0.04,-3.14,-49.00,17.98,17.93,-1.00
12882.00,-8.44,-1.72,5.55,-0.50,0.02,-3.14,-49.00,17.98,17.93,-1.00
12894.00,-8.54,-1.02,4.93,-0.60,0.05,-3.11,-47.62,19.43,17.43,-1.00
12906.00,-8.54,-1.02,4.93,-0.60,0.05,-3.11,-47.62,19.43,17.43,-1.00
12920.00,-7.89,-1.49,4.65,-0.64,0.05,-3.08,-47.62,19.43,17.43,-1.00
12933.00,-7.89,-1.49,4.65,-0.64,0.05,-3.08,-47.62,19.43,17.43,-1.00
12944.00,-8.60,-1.70,5.57,-0.65,0.01,-3.09,-47.62,19.43,17.43,-1.00
12956.00,-8.50,-1.10,5.33,-0.70,0.00,-3.09,-47.62,19.43,17.43,-1.00
12970.00,-8.50,-1.10,5.33,-0.70,0.00,-3.09,-47.62,19.43,17.43,-1.00
12982.00,-8.05,-2.03,4.96,-0.72,-0.02,-3.07,-47.62,19.43,17.43,-1.00
12994.00,-8.13,-2.58,5.40,-0.69,-0.06,-3.02,-47.62,19.43,17.43,-1.00
13008.00,-8.13,-2.58,5.40,-0.69,-0.06,-3.02,-47.62,19.43,17.43,-1.00
13020.00,-8.09,-2.31,4.95,-0.67,-0.07,-3.03,-47.04,17.98,19.59,-1.00
13032.00,-8.09,-2.31,4.95,-0.67,-0.07,-3.03,-47.04,17.98,19.59,-1.00
13044.00,-8.71,-1.50,5.18,-0.58,-0.09,-2.97,-47.04,17.98,19.59,-1.00
13059.00,-7.91,-2.06,4.73,-0.54,-0.09,-2.94,-47.04,17.98,19.59,-1.00
13070.00,-7.91,-2.06,4.73,-0.54,-0.09,-2.94,-47.04,17.98,19.59,-1.00
13082.00,-7.89,-1.80,4.55,-0.41,-0.16,-2.87,-47.04,17.98,19.59,-1.00
13094.00,-7.83,-1.79,4.70,-0.38,-0.15,-2.93,-47.04,17.98,19.59,-1.00
13108.00,-7.83,-1.79,4.70,-0.38,-0.15,-2.93,-47.04,17.98,19.59,-1.00
13120.00,-7.77,-1.59,5.37,-0.35,-0.13,-3.00,-47.04,17.98,19.59,-1.00
13132.00,-7.77,-1.59,5.37,-0.35,-0.13,-3.00,-47.04,17.98,19.59,-1.00
13146.00,-8.38,-1.18,5.19,-0.38,-0.10,-3.03,-46.64,18.63,20.26,-1.00
13158.00,-7.90,-2.30,5.16,-0.47,-0.10,-3.07,-46.64,18.63,20.26,-1.00
13170.00,-7.90,-2.30,5.16,-0.47,-0.10,-3.07,-46.64,18.63,20.26,-1.00
13182.00,-8.79,-1.84,4.87,-0.48,-0.06,-3.08,-46.64,18.63,20.26,-1.00
13196.00,-8.24,-1.95,5.27,-0.46,0.03,-3.16,-46.64,18.63,20.26,-1.00
13208.00,-8.24,-1.95,5.27,-0.46,0.03,-3.16,-46.64,18.63,20.26,-1.00
13220.00,-8.53,-2.10,5.60,-0.41,0.02,-3.18,-46.64,18.63,20.26,-1.00
13232.00,-8.53,-2.10,5.60,-0.41,0.02,-3.18,-46.64,18.63,20.26,-1.00
13247.00,-8.21,-2.02,4.59,-0.36,0.01,-3.19,-46.64,18.63,20.26,-1.00
13258.00,-8.55,-1.88,4.81,-0.26,-0.03,-3.18,-46.45,19.11,21.09,-1.00
13270.00,-8.55,-1.88,4.81,-0.26,-0.03,-3.18,-46.45,19.11,21.09,-1.00
13284.00,-8.38,-1.58,4.55,-0.20,-0.01,-3.19,-46.45,19.11,21.09,-1.00
13296.00,-8.72,-1.08,4.95,-0.16,0.04,-3.21,-46.45,19.11,21.09,-1.00
13308.00,-8.72,-1.08,4.95,-0.16,0.04,-3.21,-46.45,19.11,21.09,-1.00
13320.00,-8.48,-0.86,4.70,-0.27,0.06,-3.25,-46.45,19.11,21.09,-1.00
13334.00,-8.36,-1.46,4.67,-0.29,0.04,-3.30,-46.45,19.11,21.09,-1.00
13346.00,-8.36,-1.46,4.67,-0.29,0.04,-3.30,-46.45,19.11,21.09,-1.00
13359.00,-8.56,-1.24,5.22,-0.22,0.03,-3.33,-46.45,19.11,21.09,-1.00
13370.00,-8.56,-1.24,5.22,-0.22,0.03,-3.33,-46.45,19.11,21.09,-1.00
13384.00,-8.12,-2.49,5.08,-0.19,0.09,-3.44,-46.45,19.11,21.09,-1.00
13396.00,-8.24,-1.73,4.93,-0.11,0.10,-3.37,-46.64,19.60,21.58,-1.00
13408.00,-8.24,-1.73,4.93,-0.11,0.10,-3.37,-46.64,19.60,21.58,-1.00
13420.00,-8.12,-2.18,4.92,-0.07,0.11,-3.39,-46.64,19.60,21.58,-1.00
13434.00,-8.67,-0.96,5.65,-0.10,0.13,-3.38,-46.64,19.60,21.58,-1.00
13446.00,-8.67,-0.96,5.65,-0.10,0.13,-3.38,-46.64,19.60,21.58,-1.00
13458.00,-8.42,-1.69,4.92,-0.16,0.17,-3.57,-46.64,19.60,21.58,-1.00
13472.00,-8.38,-1.76,4.94,-0.12,0.18,-3.55,-46.64,19.60,21.58,-1.00
13484.00,-8.38,-1.76,4.94,-0.12,0.18,-3.55,-46.64,19.60,21.58,-1.00
13496.00,-8.60,-1.49,5.16,-0.15,0.20,-3.49,-46.64,19.60,21.58,-1.00
13508.00,-8.60,-1.49,5.16,-0.15,0.20,-3.49,-46.64,19.60,21.58,-1.00
13523.00,-8.35,-2.09,4.21,-0.18,0.21,-3.53,-48.02,19.11,20.09,-1.00
13534.00,-8.80,-1.57,5.64,-0.11,0.18,-3.51,-48.02,19.11,20.09,-1.00
13546.00,-8.80,-1.57,5.64,-0.11,0.18,-3.51,-48.02,19.11,20.09,-1.00
13558.00,-8.20,-2.59,4.84,-0.13,0.24,-3.55,-48.02,19.11,20.09,-1.00
13572.00,-8.32,-1.68,4.69,-0.09,0.25,-3.46,-48.02,19.11,20.09,-1.00
13584.00,-8.32,-1.68,4.69,-0.09,0.25,-3.46,-48.02,19.11,20.09,-1.00
13596.00,-8.72,-1.90,5.33,-0.05,0.23,-3.47,-48.02,19.11,20.09,-1.00
13610.00,-8.72,-1.90,5.33,-0.05,0.23,-3.47,-48.02,19.11,20.09,-1.00
13622.00,-8.57,-1.69,4.61,-0.06,0.25,-3.50,-48.02,19.11,20.09,-1.00
13634.00,-8.39,-2.36,4.87,-0.01,0.23,-3.51,-48.80,18.46,19.76,-1.00
13646.00,-8.39,-2.36,4.87,-0.01,0.23,-3.51,-48.80,18.46,19.76,-1.00
13660.00,-8.31,-1.70,5.64,-0.06,0.21,-3.49,-48.80,18.46,19.76,-1.00
13672.00,-8.46,-1.84,5.77,-0.09,0.20,-3.45,-48.80,18.46,19.76,-1.00
13684.00,-8.46,-1.84,5.77,-0.09,0.20,-3.45,-48.80,18.46,19.76,-1.00
13696.00,-9.17,-1.76,6.08,-0.10,0.18,-3.44,-48.80,18.46,19.76,-1.00
13710.00,-9.17,-1.76,6.08,-0.10,0.18,-3.44,-48.80,18.46,19.76,-1.00
13722.00,-8.41,-1.81,4.64,-0.16,0.19,-3.43,-48.80,18.46,19.76,-1.00
13734.00,-8.36,-1.57,4.56,-0.15,0.14,-3.38,-48.80,18.46,19.76,-1.00
13748.00,-8.36,-1.57,4.56,-0.15,0.14,-3.38,-48.80,18.46,19.76,-1.00
13760.00,-8.40,-1.33,4.03,-0.15,0.14,-3.39,-47.23,17.49,18.10,-1.00
13772.00,-8.57,-1.25,4.61,-0.17,0.14,-3.38,-47.23,17.49,18.10,-1.00
13784.00,-8.57,-1.25,4.61,-0.17,0.14,-3.38,-47.23,17.49,18.10,-1.00
13799.00,-8.35,-1.33,4.47,-0.24,0.14,-3.40,-47.23,17.49,18.10,-1.00
13810.00,-8.35,-1.33,4.47,-0.24,0.14,-3.40,-47.23,17.49,18.10,-1.00
13822.00,-8.62,-1.62,5.76,-0.31,0.11,-3.40,-47.23,17.49,18.10,-1.00
13834.00,-8.50,-1.80,5.15,-0.39,0.12,-3.40,-47.23,17.49,18.10,-1.00
13848.00,-8.50,-1.80,5.15,-0.39,0.12,-3.40,-47.23,17.49,18.10,-1.00
13860.00,-8.20,-2.26,5.06,-0.43,0.09,-3.30,-47.23,17.49,18.10,-1.00
13872.00,-8.44,-1.77,5.19,-0.42,0.03,-3.16,-48.21,17.66,19.26,-1.00
13884.00,-8.44,-1.77,5.19,-0.42,0.03,-3.16,-48.21,17.66,19.26,-1.00
13898.00,-8.33,-1.55,5.14,-0.45,0.02,-3.12,-48.21,17.66,19.26,-1.00
13910.00,-8.33,-1.55,5.14,-0.45,0.02,-3.12,-48.21,17.66,19.26,-1.00
13922.00,-8.14,-1.77,5.45,-0.50,-0.02,-3.11,-48.21,17.66,19.26,-1.00
13936.00,-8.44,-1.83,5.21,-0.58,-0.03,-3.11,-48.21,17.66,19.26,-1.00
13948.00,-8.44,-1.83,5.21,-0.58,-0.03,-3.11,-48.21,17.66,19.26,-1.00
13960.00,-8.38,-1.83,5.40,-0.63,-0.07,-3.05,-48.21,17.66,19.26,-1.00
13972.00,-8.60,-1.39,4.92,-0.63,-0.06,-3.03,-48.21,17.66,19.26,-1.00
13986.00,-8.60,-1.39,4.92,-0.63,-0.06,-3.03,-48.21,17.66,19.26,-1.00
13998.00,-7.96,-1.57,5.07,-0.62,-0.08,-3.05,-48.21,17.66,19.26,-1.00
14010.00,-7.96,-1.57,5.07,-0.62,-0.08,-3.05,-48.21,17.66,19.26,-1.00
14022.00,-8.01,-2.26,5.69,-0.64,-0.10,-3.07,-47.23,16.52,19.76,-1.00
14036.00,-8.41,-2.63,5.63,-0.67,-0.08,-3.02,-47.23,16.52,19.76,-1.00
14048.00,-8.41,-2.63,5.63,-0.67,-0.08,-3.02,-47.23,16.52,19.76,-1.00
14060.00,-8.52,-1.64,4.65,-0.64,-0.06,-2.95,-47.23,16.52,19.76,-1.00
14075.00,-8.39,-1.72,5.56,-0.62,-0.07,-3.00,-47.23,16.52,19.76,-1.00
14086.00,-8.39,-1.72,5.56,-0.62,-0.07,-3.00,-47.23,16.52,19.76,-1.00
14099.00,-8.60,-2.08,5.51,-0.63,-0.06,-3.05,-47.23,16.52,19.76,-1.00
14111.00,-8.60,-2.08,5.51,-0.63,-0.06,-3.05,-47.23,16.52,19.76,-1.00
14125.00,-8.13,-2.21,4.99,-0.64,-0.04,-3.08,-47.23,16.52,19.76,-1.00
14137.00,-8.20,-2.72,4.67,-0.64,-0.04,-3.09,-46.84,18.79,21.42,-1.00
14149.00,-8.20,-2.72,4.67,-0.64,-0.04,-3.09,-46.84,18.79,21.42,-1.00
14161.00,-8.53,-2.82,4.89,-0.54,-0.08,-3.11,-46.84,18.79,21.42,-1.00
14175.00,-8.49,-2.88,4.55,-0.46,-0.03,-3.15,-46.84,18.79,21.42,-1.00
14187.00,-8.49,-2.88,4.55,-0.46,-0.03,-3.15,-46.84,18.79,21.42,-1.00
14199.00,-8.52,-1.97,4.51,-0.33,-0.03,-3.16,-46.84,18.79,21.42,-1.00
14213.00,-8.43,-2.54,4.26,-0.30,-0.05,-3.22,-46.84,18.79,21.42,-1.00
14225.00,-8.43,-2.54,4.26,-0.30,-0.05,-3.22,-46.84,18.79,21.42,-1.00
14237.00,-8.70,-2.19,4.85,-0.23,-0.01,-3.22,-46.84,18.79,21.42,-1.00
14249.00,-8.70,-2.19,4.85,-0.23,-0.01,-3.22,-46.84,18.79,21.42,-1.00
14264.00,-8.36,-2.31,4.49,-0.21,0.05,-3.26,-46.25,17.66,21.92,-1.00
14275.00,-8.37,-1.98,4.03,-0.19,0.01,-3.25,-46.25,17.66,21.92,-1.00
14287.00,-8.37,-1.98,4.03,-0.19,0.01,-3.25,-46.25,17.66,21.92,-1.00
14299.00,-8.56,-1.46,4.40,-0.16,-0.01,-3.21,-46.25,17.66,21.92,-1.00
14313.00,-8.55,-1.40,4.57,-0.14,0.02,-3.26,-46.25,17.66,21.92,-1.00
14325.00,-8.55,-1.40,4.57,-0.14,0.02,-3.26,-46.25,17.66,21.92,-1.00
14337.00,-8.61,-1.94,4.97,-0.12,0.05,-3.33,-46.25,17.66,21.92,-1.00
14351.00,-8.39,-2.04,4.85,-0.12,0.08,-3.40,-46.25,17.66,21.92,-1.00
14363.00,-8.39,-2.04,4.85,-0.12,0.08,-3.40,-46.25,17.66,21.92,-1.00
14375.00,-8.47,-2.32,4.84,-0.07,0.12,-3.47,-46.84,19.11,21.42,-1.00
14387.00,-8.47,-2.32,4.84,-0.07,0.12,-3.47,-46.84,19.11,21.42,-1.00
14401.00,-8.49,-2.23,4.80,-0.01,0.13,-3.43,-46.84,19.11,21.42,-1.00
14413.00,-8.58,-1.58,4.89,-0.06,0.15,-3.37,-46.84,19.11,21.42,-1.00
14425.00,-8.58,-1.58,4.89,-0.06,0.15,-3.37,-46.84,19.11,21.42,-1.00
14437.00,-8.50,-2.26,4.85,-0.09,0.17,-3.44,-46.84,19.11,21.42,-1.00
14451.00,-8.38,-2.12,4.78,-0.07,0.18,-3.45,-46.84,19.11,21.42,-1.00
14463.00,-8.38,-2.12,4.78,-0.07,0.18,-3.45,-46.84,19.11,21.42,-1.00
14475.00,-8.58,-2.14,4.49,-0.03,0.18,-3.44,-46.84,19.11,21.42,-1.00
14489.00,-8.58,-2.14,4.49,-0.03,0.18,-3.44,-46.84,19.11,21.42,-1.00
14501.00,-8.61,-1.32,4.54,-0.06,0.19,-3.47,-48.02,17.49,21.09,-1.00
14513.00,-8.65,-1.47,4.57,-0.11,0.17,-3.52,-48.02,17.49,21.09,-1.00
14525.00,-8.65,-1.47,4.57,-0.11,0.17,-3.52,-48.02,17.49,21.09,-1.00
14540.00,-8.86,-1.97,5.42,-0.11,0.16,-3.50,-48.02,17.49,21.09,-1.00
14551.00,-8.83,-1.25,4.88,-0.10,0.19,-3.48,-48.02,17.49,21.09,-1.00
14563.00,-8.83,-1.25,4.88,-0.10,0.19,-3.48,-48.02,17.49,21.09,-1.00
14575.00,-8.50,-2.18,4.09,-0.10,0.21,-3.53,-48.02,17.49,21.09,-1.00
14589.00,-8.50,-2.18,4.09,-0.10,0.21,-3.53,-48.02,17.49,21.09,-1.00
14601.00,-8.82,-2.30,4.92,-0.07,0.20,-3.50,-48.02,17.49,21.09,-1.00
14613.00,-8.45,-1.39,3.67,-0.09,0.22,-3.45,-48.02,17.49,21.09,-1.00
14625.00,-8.45,-1.39,3.67,-0.09,0.22,-3.45,-48.02,17.49,21.09,-1.00
14639.00,-8.56,-1.89,4.49,-0.07,0.15,-3.44,-48.02,17.49,21.09,-1.00
14729.00,-8.44,-1.59,4.69,-0.25,0.08,-3.31,-48.02,17.49,21.09,-1.00
14815.00,-8.01,-1.91,5.05,-0.51,-0.01,-3.14,-47.82,16.69,21.25,-1.00
14829.00,-8.01,-1.91,5.05,-0.51,-0.01,-3.14,-47.82,16.69,21.25,-1.00
14841.00,-8.27,-1.53,5.17,-0.57,-0.01,-3.14,-47.82,16.69,21.25,-1.00
14853.00,-8.58,-1.55,5.16,-0.62,-0.02,-3.11,-47.82,16.69,21.25,-1.00
14866.00,-8.58,-1.55,5.16,-0.62,-0.02,-3.11,-47.82,16.69,21.25,-1.00
14880.00,-7.72,-1.97,5.41,-0.63,-0.04,-3.04,-48.21,17.33,20.26,-1.00
14892.00,-8.20,-2.05,5.18,-0.65,-0.06,-3.07,-48.21,17.33,20.26,-1.00
14904.00,-8.20,-2.05,5.18,-0.65,-0.06,-3.07,-48.21,17.33,20.26,-1.00
14916.00,-8.20,-2.55,5.46,-0.67,-0.10,-3.10,-48.21,17.33,20.26,-1.00
14930.00,-8.07,-2.66,5.22,-0.66,-0.12,-3.05,-48.21,17.33,20.26,-1.00
14942.00,-8.07,-2.66,5.22,-0.66,-0.12,-3.05,-48.21,17.33,20.26,-1.00
14954.00,-8.61,-1.99,5.45,-0.61,-0.14,-3.01,-48.21,17.33,20.26,-1.00
14968.00,-8.61,-1.99,5.45,-0.61,-0.14,-3.01,-48.21,17.33,20.26,-1.00
14980.00,-7.93,-2.49,4.73,-0.60,-0.15,-3.03,-48.21,17.33,20.26,-1.00
14992.00,-8.33,-2.49,5.51,-0.56,-0.19,-2.96,-46.25,16.04,21.25,-1.00
15004.00,-8.33,-2.49,5.51,-0.56,-0.19,-2.96,-46.25,16.04,21.25,-1.00
15019.00,-8.65,-2.37,5.32,-0.51,-0.18,-2.99,-46.25,16.04,21.25,-1.00
15031.00,-8.43,-1.83,5.40,-0.48,-0.14,-3.02,-46.25,16.04,21.25,-1.00
15043.00,-8.43,-1.83,5.40,-0.48,-0.14,-3.02,-46.25,16.04,21.25,-1.00
15057.00,-8.33,-2.25,4.83,-0.48,-0.08,-3.09,-46.25,16.04,21.25,-1.00
15069.00,-8.33,-2.25,4.83,-0.48,-0.08,-3.09,-46.25,16.04,21.25,-1.00
15081.00,-8.59,-2.41,4.77,-0.44,-0.08,-3.12,-46.25,16.04,21.25,-1.00
15093.00,-8.42,-2.48,4.68,-0.36,-0.06,-3.10,-46.25,16.04,21.25,-1.00
15107.00,-8.42,-2.48,4.68,-0.36,-0.06,-3.10,-46.25,16.04,21.25,-1.00
15119.00,-9.21,-2.00,4.64,-0.24,-0.01,-3.11,-45.08,19.27,20.59,-1.00
15131.00,-8.67,-2.66,4.29,-0.21,0.03,-3.23,-45.08,19.27,20.59,-1.00
15143.00,-8.67,-2.66,4.29,-0.21,0.03,-3.23,-45.08,19.27,20.59,-1.00
15157.00,-8.57,-2.04,4.37,-0.16,0.05,-3.25,-45.08,19.27,20.59,-1.00
15169.00,-8.57,-2.04,4.37,-0.16,0.05,-3.25,-45.08,19.27,20.59,-1.00
15181.00,-8.97,-1.97,4.62,-0.12,0.09,-3.25,-45.08,19.27,20.59,-1.00
15193.00,-8.50,-1.72,4.52,-0.13,0.15,-3.33,-45.08,19.27,20.59,-1.00
15207.00,-8.50,-1.72,4.52,-0.13,0.15,-3.33,-45.08,19.27,20.59,-1.00
15219.00,-8.44,-2.97,4.23,-0.16,0.15,-3.43,-45.08,19.27,20.59,-1.00
15231.00,-8.59,-1.77,4.59,-0.15,0.14,-3.38,-47.04,18.63,21.58,-1.00
15245.00,-8.59,-1.77,4.59,-0.15,0.14,-3.38,-47.04,18.63,21.58,-1.00
15257.00,-8.82,-2.00,4.89,-0.15,0.19,-3.45,-47.04,18.63,21.58,-1.00
15269.00,-8.82,-2.00,4.89,-0.15,0.19,-3.45,-47.04,18.63,21.58,-1.00
15281.00,-8.49,-2.36,4.57,-0.18,0.23,-3.48,-47.04,18.63,21.58,-1.00
15296.00,-7.98,-2.45,4.18,-0.16,0.26,-3.46,-47.04,18.63,21.58,-1.00
15307.00,-7.98,-2.45,4.18,-0.16,0.26,-3.46,-47.04,18.63,21.58,-1.00
15319.00,-8.86,-2.48,5.32,-0.10,0.27,-3.51,-47.04,18.63,21.58,-1.00
15331.00,-8.64,-1.42,4.59,-0.10,0.29,-3.49,-47.04,18.63,21.58,-1.00
15345.00,-8.64,-1.42,4.59,-0.10,0.29,-3.49,-47.04,18.63,21.58,-1.00
15357.00,-8.40,-1.93,3.60,0.01,0.21,-3.49,-47.04,18.63,21.58,-1.00
15369.00,-8.40,-1.93,3.60,0.01,0.21,-3.49,-47.04,18.63,21.58,-1.00
15383.00,-8.68,-1.50,4.07,0.07,0.16,-3.41,-47.04,17.33,20.26,-1.00
15395.00,-8.77,-0.90,5.00,0.01,0.16,-3.42,-47.04,17.33,20.26,-1.00
15407.00,-8.77,-0.90,5.00,0.01,0.16,-3.42,-47.04,17.33,20.26,-1.00
15419.00,-8.59,-1.67,4.73,-0.06,0.25,-3.53,-47.04,17.33,20.26,-1.00
15433.00,-8.39,-0.96,3.86,-0.17,0.28,-3.54,-47.04,17.33,20.26,-1.00
15445.00,-8.39,-0.96,3.86,-0.17,0.28,-3.54,-47.04,17.33,20.26,-1.00
15457.00,-8.68,-0.99,4.85,-0.26,0.24,-3.54,-47.04,17.33,20.26,-1.00
15469.00,-8.68,-0.99,4.85,-0.26,0.24,-3.54,-47.04,17.33,20.26,-1.00
15484.00,-8.63,-1.92,5.02,-0.27,0.21,-3.50,-47.04,17.33,20.26,-1.00
15495.00,-8.56,-1.43,4.49,-0.26,0.15,-3.38,-48.02,17.82,18.76,-1.00
15507.00,-8.56,-1.43,4.49,-0.26,0.15,-3.38,-48.02,17.82,18.76,-1.00
15519.00,-8.54,-1.63,3.92,-0.31,0.11,-3.36,-48.02,17.82,18.76,-1.00
15533.00,-8.65,-1.63,5.31,-0.32,0.07,-3.31,-48.02,17.82,18.76,-1.00
15545.00,-8.65,-1.63,5.31,-0.32,0.07,-3.31,-48.02,17.82,18.76,-1.00
15557.00,-8.73,-1.16,4.22,-0.34,0.13,-3.30,-48.02,17.82,18.76,-1.00
15571.00,-8.47,-1.92,4.69,-0.37,0.09,-3.32,-48.02,17.82,18.76,-1.00
15583.00,-8.47,-1.92,4.69,-0.37,0.09,-3.32,-48.02,17.82,18.76,-1.00
15595.00,-8.72,-1.55,4.88,-0.38,0.06,-3.28,-48.02,17.82,18.76,-1.00
15607.00,-8.72,-1.55,4.88,-0.38,0.06,-3.28,-48.02,17.82,18.76,-1.00
15621.00,-8.47,-1.73,4.17,-0.42,0.06,-3.24,-48.02,17.82,19.09,-1.00
15633.00,-8.35,-2.34,5.10,-0.44,0.04,-3.26,-48.02,17.82,19.09,-1.00
15645.00,-8.35,-2.34,5.10,-0.44,0.04,-3.26,-48.02,17.82,19.09,-1.00
15657.00,-8.71,-1.68,4.57,-0.47,0.03,-3.21,-48.02,17.82,19.09,-1.00
15671.00,-8.19,-1.77,4.12,-0.54,0.03,-3.18,-48.02,17.82,19.09,-1.00
15683.00,-8.19,-1.77,4.12,-0.54,0.03,-3.18,-48.02,17.82,19.09,-1.00
15695.00,-8.74,-1.67,4.74,-0.55,-0.01,-3.13,-48.02,17.82,19.09,-1.00
15709.00,-8.18,-2.01,4.62,-0.60,-0.04,-3.13,-48.02,17.82,19.09,-1.00
15721.00,-8.18,-2.01,4.62,-0.60,-0.04,-3.13,-48.02,17.82,19.09,-1.00
15733.00,-8.20,-2.21,4.50,-0.64,-0.05,-3.11,-46.84,15.88,19.43,-1.00
15745.00,-8.20,-2.21,4.50,-0.64,-0.05,-3.11,-46.84,15.88,19.43,-1.00
15760.00,-8.05,-2.03,4.07,-0.64,-0.05,-3.11,-46.84,15.88,19.43,-1.00
15771.00,-7.82,-2.33,4.87,-0.63,-0.09,-3.12,-46.84,15.88,19.43,-1.00
15783.00,-7.82,-2.33,4.87,-0.63,-0.09,-3.12,-46.84,15.88,19.43,-1.00
15795.00,-7.97,-3.09,4.89,-0.61,-0.08,-3.14,-46.84,15.88,19.43,-1.00
15809.00,-8.02,-3.22,4.81,-0.56,-0.10,-3.14,-46.84,15.88,19.43,-1.00
15821.00,-8.02,-3.22,4.81,-0.56,-0.10,-3.14,-46.84,15.88,19.43,-1.00
15833.00,-8.44,-2.74,4.92,-0.51,-0.13,-3.07,-46.84,15.88,19.43,-1.00
15847.00,-8.44,-2.74,4.92,-0.51,-0.13,-3.07,-46.84,15.88,19.43,-1.00
15859.00,-8.15,-2.66,5.15,-0.48,-0.16,-3.00,-46.25,16.36,20.26,-1.00
15871.00,-8.47,-2.11,5.18,-0.50,-0.15,-3.02,-46.25,16.36,20.26,-1.00
15883.00,-8.47,-2.11,5.18,-0.50,-0.15,-3.02,-46.25,16.36,20.26,-1.00
15897.00,-8.29,-2.91,5.36,-0.53,-0.12,-3.08,-46.25,16.36,20.26,-1.00
15909.00,-8.96,-2.39,4.93,-0.49,-0.09,-3.08,-46.25,16.36,20.26,-1.00
15921.00,-8.96,-2.39,4.93,-0.49,-0.09,-3.08,-46.25,16.36,20.26,-1.00
15933.00,-8.60,-2.70,4.63,-0.40,-0.04,-3.14,-46.25,16.36,20.26,-1.00
15947.00,-8.60,-2.70,4.63,-0.40,-0.04,-3.14,-46.25,16.36,20.26,-1.00
15959.00,-8.44,-3.06,4.00,-0.36,-0.03,-3.15,-46.25,16.36,20.26,-1.00
15971.00,-8.98,-2.89,4.62,-0.28,0.01,-3.15,-46.25,16.36,20.26,-1.00
15985.00,-8.98,-2.89,4.62,-0.28,0.01,-3.15,-46.25,16.36,20.26,-1.00
15997.00,-8.76,-3.25,4.46,-0.20,0.06,-3.24,-46.06,16.52,21.42,-1.00
16009.00,-8.74,-2.40,4.07,-0.17,0.10,-3.26,-46.06,16.52,21.42,-1.00
16021.00,-8.74,-2.40,4.07,-0.17,0.10,-3.26,-46.06,16.52,21.42,-1.00
16036.00,-8.32,-2.39,3.67,-0.15,0.12,-3.34,-46.06,16.52,21.42,-1.00
16047.00,-8.32,-2.39,3.67,-0.15,0.12,-3.34,-46.06,16.52,21.42,-1.00
16059.00,-8.51,-2.66,4.22,-0.11,0.09,-3.35,-46.06,16.52,21.42,-1.00
16071.00,-8.56,-2.73,4.03,-0.10,0.09,-3.36,-46.06,16.52,21.42,-1.00
16085.00,-8.56,-2.73,4.03,-0.10,0.09,-3.36,-46.06,16.52,21.42,-1.00
16097.00,-8.87,-2.15,4.57,-0.11,0.11,-3.32,-46.06,16.52,21.42,-1.00
16109.00,-8.76,-2.61,4.62,-0.13,0.19,-3.45,-46.64,16.36,22.25,-1.00
16123.00,-8.76,-2.61,4.62,-0.13,0.19,-3.45,-46.64,16.36,22.25,-1.00
16135.00,-8.30,-2.48,4.18,-0.15,0.20,-3.45,-46.64,16.36,22.25,-1.00
16147.00,-8.30,-2.48,4.18,-0.15,0.20,-3.45,-46.64,16.36,22.25,-1.00
16159.00,-8.69,-2.10,4.33,-0.11,0.14,-3.41,-46.64,16.36,22.25,-1.00
16173.00,-8.64,-2.67,3.76,-0.06,0.15,-3.43,-46.64,16.36,22.25,-1.00
16185.00,-8.64,-2.67,3.76,-0.06,0.15,-3.43,-46.64,16.36,22.25,-1.00
16197.00,-8.68,-2.03,4.29,0.01,0.16,-3.42,-46.64,16.36,22.25,-1.00
16209.00,-8.91,-2.22,4.82,0.01,0.14,-3.43,-46.64,16.36,22.25,-1.00
16223.00,-8.91,-2.22,4.82,0.01,0.14,-3.43,-46.64,16.36,22.25,-1.00
16311.00,-8.77,-0.98,4.65,-0.08,0.03,-3.34,-47.23,15.88,21.09,-1.00
16400.00,-8.66,-2.08,5.10,-0.24,0.07,-3.33,-46.64,16.36,21.25,-1.00
16487.00,-8.38,-2.35,5.01,-0.40,0.03,-3.24,-47.43,15.39,20.92,-1.00
16501.00,-8.27,-2.19,4.93,-0.42,0.03,-3.19,-47.43,15.39,20.92,-1.00
16513.00,-8.63,-1.65,4.73,-0.45,0.02,-3.14,-47.43,15.39,20.92,-1.00
16525.00,-8.63,-1.65,4.73,-0.45,0.02,-3.14,-47.43,15.39,20.92,-1.00
16539.00,-8.60,-1.74,4.49,-0.50,-0.00,-3.16,-47.43,15.39,20.92,-1.00
16551.00,-8.50,-1.30,4.70,-0.50,-0.02,-3.13,-47.43,15.39,20.92,-1.00
16563.00,-8.50,-1.30,4.70,-0.50,-0.02,-3.13,-47.43,15.39,20.92,-1.00
16575.00,-8.82,-1.78,5.06,-0.55,-0.02,-3.15,-47.43,15.39,20.92,-1.00
16589.00,-8.27,-2.37,5.06,-0.61,-0.01,-3.16,-47.23,15.88,22.08,-1.00
16601.00,-8.27,-2.37,5.06,-0.61,-0.01,-3.16,-47.23,15.88,22.08,-1.00
16613.00,-8.34,-2.32,5.10,-0.59,-0.01,-3.10,-47.23,15.88,22.08,-1.00
16625.00,-8.34,-2.32,5.10,-0.59,-0.01,-3.10,-47.23,15.88,22.08,-1.00
16639.00,-8.00,-1.64,4.53,-0.61,-0.03,-3.06,-47.23,15.88,22.08,-1.00
16651.00,-7.75,-1.82,4.76,-0.61,-0.07,-3.07,-47.23,15.88,22.08,-1.00
16663.00,-7.75,-1.82,4.76,-0.61,-0.07,-3.07,-47.23,15.88,22.08,-1.00
16677.00,-8.00,-2.44,4.87,-0.61,-0.08,-3.08,-47.23,15.88,22.08,-1.00
16689.00,-8.46,-2.46,4.79,-0.65,-0.09,-3.06,-47.23,15.88,22.08,-1.00
16701.00,-8.46,-2.46,4.79,-0.65,-0.09,-3.06,-47.23,15.88,22.08,-1.00
16713.00,-8.40,-2.51,4.75,-0.65,-0.10,-3.04,-47.23,15.88,22.08,-1.00
16727.00,-8.40,-2.51,4.75,-0.65,-0.10,-3.04,-47.23,15.88,22.08,-1.00
16739.00,-7.99,-3.18,4.95,-0.56,-0.10,-3.05,-44.29,16.36,23.91,-1.00
16751.00,-8.03,-2.81,4.62,-0.46,-0.09,-3.06,-44.29,16.36,23.91,-1.00
16763.00,-8.03,-2.81,4.62,-0.46,-0.09,-3.06,-44.29,16.36,23.91,-1.00
16778.00,-8.40,-3.25,4.70,-0.39,-0.10,-3.12,-44.29,16.36,23.91,-1.00
16790.00,-8.19,-3.11,4.13,-0.33,-0.07,-3.15,-44.29,16.36,23.91,-1.00
16802.00,-8.19,-3.11,4.13,-0.33,-0.07,-3.15,-44.29,16.36,23.91,-1.00
16817.00,-8.56,-2.78,4.44,-0.20,-0.04,-3.16,-44.29,16.36,23.91,-1.00
16828.00,-8.37,-2.61,4.39,-0.11,-0.02,-3.21,-44.29,16.36,23.91,-1.00
16840.00,-8.37,-2.61,4.39,-0.11,-0.02,-3.21,-44.29,16.36,23.91,-1.00
16852.00,-8.78,-2.16,4.69,-0.05,-0.03,-3.22,-44.10,15.88,22.75,-1.00
16866.00,-8.78,-2.16,4.69,-0.05,-0.03,-3.22,-44.10,15.88,22.75,-1.00
16878.00,-8.81,-2.05,4.31,-0.08,0.01,-3.27,-44.10,15.88,22.75,-1.00
16890.00,-8.71,-2.02,4.14,-0.14,0.08,-3.34,-44.10,15.88,22.75,-1.00
16902.00,-8.71,-2.02,4.14,-0.14,0.08,-3.34,-44.10,15.88,22.75,-1.00
16916.00,-8.72,-1.92,4.03,-0.08,0.10,-3.41,-44.10,15.88,22.75,-1.00
16928.00,-8.82,-2.55,4.19,0.01,0.14,-3.52,-44.10,15.88,22.75,-1.00
16940.00,-8.82,-2.55,4.19,0.01,0.14,-3.52,-44.10,15.88,22.75,-1.00
16954.00,-8.78,-3.11,3.92,0.05,0.19,-3.57,-44.10,15.88,22.75,-1.00
16966.00,-8.78,-3.11,3.92,0.05,0.19,-3.57,-44.10,15.88,22.75,-1.00
16978.00,-8.67,-2.73,4.31,0.03,0.28,-3.60,-44.68,16.69,22.25,-1.00
16990.00,-8.61,-3.03,4.59,0.04,0.34,-3.69,-44.68,16.69,22.25,-1.00
17004.00,-8.61,-3.03,4.59,0.04,0.34,-3.69,-44.68,16.69,22.25,-1.00
17016.00,-8.43,-2.50,4.05,0.09,0.33,-3.59,-44.68,16.69,22.25,-1.00
17028.00,-8.59,-1.67,3.40,0.09,0.27,-3.44,-44.68,16.69,22.25,-1.00
17040.00,-8.59,-1.67,3.40,0.09,0.27,-3.44,-44.68,16.69,22.25,-1.00
17054.00,-8.47,-1.54,4.08,0.08,0.22,-3.46,-44.68,16.69,22.25,-1.00
17066.00,-8.47,-1.54,4.08,0.08,0.22,-3.46,-44.68,16.69,22.25,-1.00
17078.00,-8.69,-1.06,5.34,0.05,0.15,-3.42,-44.68,16.69,22.25,-1.00
17090.00,-8.65,-1.22,5.12,-0.05,0.16,-3.44,-47.04,17.01,20.59,-1.00
17104.00,-8.65,-1.22,5.12,-0.05,0.16,-3.44,-47.04,17.01,20.59,-1.00
17116.00,-8.82,-1.26,4.62,-0.16,0.12,-3.40,-47.04,17.01,20.59,-1.00
17128.00,-8.19,-1.76,4.62,-0.24,0.11,-3.38,-47.04,17.01,20.59,-1.00
17142.00,-8.19,-1.76,4.62,-0.24,0.11,-3.38,-47.04,17.01,20.59,-1.00
17229.00,-8.26,-1.57,4.52,-0.38,0.08,-3.26,-46.64,17.66,20.26,-1.00
17318.00,-8.20,-2.56,4.75,-0.49,0.03,-3.21,-46.64,17.66,20.26,-1.00
17405.00,-8.30,-2.18,5.02,-0.52,-0.04,-3.07,-44.68,15.39,21.92,-1.00
17419.00,-8.39,-1.91,4.76,-0.52,-0.09,-3.06,-44.68,15.39,21.92,-1.00
17432.00,-8.58,-2.42,4.71,-0.49,-0.04,-3.11,-44.68,15.39,21.92,-1.00
17444.00,-8.58,-2.42,4.71,-0.49,-0.04,-3.11,-44.68,15.39,21.92,-1.00
17456.00,-8.74,-1.76,4.20,-0.47,-0.05,-3.08,-44.68,15.39,21.92,-1.00
17470.00,-8.36,-2.45,4.74,-0.47,-0.09,-3.07,-44.68,15.72,21.92,-1.00
17482.00,-8.36,-2.45,4.74,-0.47,-0.09,-3.07,-44.68,15.72,21.92,-1.00
17494.00,-8.08,-2.26,4.62,-0.45,-0.12,-3.03,-44.68,15.72,21.92,-1.00
17508.00,-8.54,-2.42,4.61,-0.48,-0.09,-3.09,-44.68,15.72,21.92,-1.00
17520.00,-8.54,-2.42,4.61,-0.48,-0.09,-3.09,-44.68,15.72,21.92,-1.00
17532.00,-8.21,-2.78,4.92,-0.52,-0.10,-3.17,-44.68,15.72,21.92,-1.00
17544.00,-8.21,-2.78,4.92,-0.52,-0.10,-3.17,-44.68,15.72,21.92,-1.00
17559.00,-8.25,-2.76,4.51,-0.51,-0.10,-3.17,-44.68,15.72,21.92,-1.00
17570.00,-8.18,-2.99,4.52,-0.43,-0.11,-3.12,-44.68,15.72,21.92,-1.00
17582.00,-8.18,-2.99,4.52,-0.43,-0.11,-3.12,-44.68,15.72,21.92,-1.00
17594.00,-8.30,-2.48,4.64,-0.36,-0.13,-3.05,-46.45,16.20,23.74,-1.00
17608.00,-8.63,-2.76,5.20,-0.32,-0.11,-3.10,-46.45,16.20,23.74,-1.00
17620.00,-8.63,-2.76,5.20,-0.32,-0.11,-3.10,-46.45,16.20,23.74,-1.00
17632.00,-8.79,-2.91,4.79,-0.28,-0.06,-3.14,-46.45,16.20,23.74,-1.00
17646.00,-8.79,-2.91,4.79,-0.28,-0.06,-3.14,-46.45,16.20,23.74,-1.00
17658.00,-8.70,-2.01,4.17,-0.27,-0.00,-3.19,-46.45,16.20,23.74,-1.00
17670.00,-8.50,-2.09,4.07,-0.28,0.03,-3.25,-46.45,16.20,23.74,-1.00
17682.00,-8.50,-2.09,4.07,-0.28,0.03,-3.25,-46.45,16.20,23.74,-1.00
17696.00,-8.64,-2.60,4.47,-0.27,0.05,-3.29,-46.45,16.20,23.74,-1.00
17708.00,-8.75,-2.30,4.02,-0.26,0.11,-3.32,-42.14,16.52,22.41,-1.00
17720.00,-8.75,-2.30,4.02,-0.26,0.11,-3.32,-42.14,16.52,22.41,-1.00
17732.00,-8.69,-2.74,4.24,-0.23,0.13,-3.35,-42.14,16.52,22.41,-1.00
17747.00,-8.69,-2.74,4.24,-0.23,0.13,-3.35,-42.14,16.52,22.41,-1.00
17758.00,-8.50,-2.62,4.02,-0.14,0.16,-3.39,-42.14,16.52,22.41,-1.00
17770.00,-8.60,-2.45,3.88,-0.07,0.16,-3.42,-42.14,16.52,22.41,-1.00
17784.00,-8.60,-2.45,3.88,-0.07,0.16,-3.42,-42.14,16.52,22.41,-1.00
17796.00,-8.62,-2.37,4.34,-0.05,0.16,-3.41,-42.14,16.52,22.41,-1.00
17808.00,-8.34,-2.54,4.45,-0.07,0.19,-3.44,-42.14,16.52,22.41,-1.00
17820.00,-8.34,-2.54,4.45,-0.07,0.19,-3.44,-42.14,16.52,22.41,-1.00
17834.00,-8.47,-2.69,4.11,-0.10,0.24,-3.52,-46.64,17.98,20.92,-1.00
17846.00,-8.47,-2.69,4.11,-0.10,0.24,-3.52,-46.64,17.98,20.92,-1.00
17858.00,-8.50,-2.39,3.86,-0.09,0.26,-3.48,-46.64,17.98,20.92,-1.00
17870.00,-9.09,-1.94,4.47,-0.08,0.24,-3.47,-46.64,17.98,20.92,-1.00
17884.00,-9.09,-1.94,4.47,-0.08,0.24,-3.47,-46.64,17.98,20.92,-1.00
17896.00,-8.51,-2.41,4.03,-0.08,0.25,-3.50,-46.64,17.98,20.92,-1.00
17908.00,-8.92,-1.55,4.56,-0.03,0.21,-3.48,-46.64,17.98,20.92,-1.00
17920.00,-8.92,-1.55,4.56,-0.03,0.21,-3.48,-46.64,17.98,20.92,-1.00
17934.00,-8.59,-2.36,4.58,-0.05,0.21,-3.56,-46.64,17.98,20.92,-1.00
17946.00,-8.47,-2.29,4.39,-0.05,0.23,-3.51,-46.64,17.98,20.92,-1.00
17958.00,-8.47,-2.29,4.39,-0.05,0.23,-3.51,-46.06,15.55,21.75,-1.00
17972.00,-8.58,-2.36,3.48,-0.07,0.25,-3.45,-46.06,15.55,21.75,-1.00
17984.00,-8.58,-2.36,3.48,-0.07,0.25,-3.45,-46.06,15.55,21.75,-1.00
17996.00,-8.39,-2.32,4.32,-0.13,0.18,-3.36,-46.06,15.55,21.75,-1.00
18008.00,-8.47,-1.98,4.71,-0.16,0.16,-3.31,-46.06,15.55,21.75,-1.00
18023.00,-8.47,-1.98,4.71,-0.16,0.16,-3.31,-46.06,15.55,21.75,-1.00
18034.00,-8.72,-1.85,4.76,-0.21,0.12,-3.33,-46.06,15.55,21.75,-1.00
18046.00,-8.70,-2.00,4.60,-0.26,0.12,-3.33,-46.06,15.55,21.75,-1.00
18058.00,-8.70,-2.00,4.60,-0.26,0.12,-3.33,-46.06,15.55,21.75,-1.00
18072.00,-8.53,-2.05,4.50,-0.26,0.12,-3.31,-46.06,15.55,21.75,-1.00
18084.00,-8.53,-2.05,4.50,-0.26,0.12,-3.31,-46.06,15.55,21.75,-1.00
18096.00,-8.56,-2.04,5.08,-0.32,0.10,-3.30,-46.64,16.36,20.92,-1.00
18110.00,-8.37,-1.98,4.62,-0.38,0.08,-3.30,-46.64,16.36,20.92,-1.00
18122.00,-8.37,-1.98,4.62,-0.38,0.08,-3.30,-46.64,16.36,20.92,-1.00
18134.00,-8.70,-1.77,5.21,-0.42,0.03,-3.25,-46.64,16.36,20.92,-1.00
18146.00,-8.63,-1.88,4.61,-0.44,0.03,-3.20,-46.64,16.36,20.92,-1.00
18160.00,-8.63,-1.88,4.61,-0.44,0.03,-3.20,-46.64,16.36,20.92,-1.00
18172.00,-8.39,-2.08,4.45,-0.48,0.00,-3.18,-46.64,16.36,20.92,-1.00
18184.00,-8.39,-2.08,4.45,-0.48,0.00,-3.18,-46.64,16.36,20.92,-1.00
18196.00,-8.66,-2.04,4.02,-0.48,0.01,-3.16,-46.64,16.36,20.92,-1.00
18210.00,-8.38,-2.22,4.23,-0.48,0.01,-3.21,-45.86,15.39,20.92,-1.00
18222.00,-8.38,-2.22,4.23,-0.48,0.01,-3.21,-45.86,15.39,20.92,-1.00
18234.00,-8.24,-2.32,4.75,-0.49,-0.01,-3.13,-45.86,15.39,20.92,-1.00
18248.00,-8.49,-1.74,4.39,-0.53,-0.05,-3.10,-45.86,15.39,20.92,-1.00
18260.00,-8.49,-1.74,4.39,-0.53,-0.05,-3.10,-45.86,15.39,20.92,-1.00
18272.00,-8.71,-2.08,5.11,-0.54,-0.10,-3.06,-45.86,15.39,20.92,-1.00
18284.00,-8.71,-2.08,5.11,-0.54,-0.10,-3.06,-45.86,15.39,20.92,-1.00
18299.00,-8.29,-2.03,4.46,-0.55,-0.09,-3.06,-45.86,15.39,20.92,-1.00
18310.00,-7.93,-2.65,5.19,-0.54,-0.09,-3.05,-45.86,15.39,20.92,-1.00
18322.00,-7.93,-2.65,5.19,-0.54,-0.09,-3.05,-45.86,15.39,20.92,-1.00
18334.00,-8.19,-2.81,4.70,-0.58,-0.10,-3.02,-44.88,16.20,21.75,-1.00
18348.00,-8.42,-2.00,4.71,-0.58,-0.17,-2.95,-44.88,16.20,21.75,-1.00
18360.00,-8.42,-2.00,4.71,-0.58,-0.17,-2.95,-44.88,16.20,21.75,-1.00
18372.00,-8.17,-3.00,4.74,-0.56,-0.17,-3.04,-44.88,16.20,21.75,-1.00
18386.00,-8.75,-2.71,4.38,-0.50,-0.12,-3.09,-44.88,16.20,21.75,-1.00
18398.00,-8.75,-2.71,4.38,-0.50,-0.12,-3.09,-44.88,16.20,21.75,-1.00
18410.00,-8.16,-3.25,4.66,-0.44,-0.08,-3.15,-44.88,16.20,21.75,-1.00
18422.00,-8.16,-3.25,4.66,-0.44,-0.08,-3.15,-44.88,16.20,21.75,-1.00
18436.00,-8.18,-3.17,4.24,-0.41,-0.08,-3.11,-44.88,16.20,21.75,-1.00
18448.00,-8.11,-3.65,4.26,-0.35,-0.09,-3.13,-44.10,15.88,24.41,-1.00
18460.00,-8.11,-3.65,4.26,-0.35,-0.09,-3.13,-44.10,15.88,24.41,-1.00
18472.00,-8.48,-3.32,4.60,-0.28,-0.05,-3.13,-44.10,15.88,24.41,-1.00
18486.00,-8.67,-3.13,4.40,-0.26,0.01,-3.18,-44.10,15.88,24.41,-1.00
18498.00,-8.67,-3.13,4.40,-0.26,0.01,-3.18,-44.10,15.88,24.41,-1.00
18510.00,-8.52,-2.67,3.90,-0.22,0.06,-3.20,-44.10,15.88,24.41,-1.00
18524.00,-8.52,-2.67,3.90,-0.22,0.06,-3.20,-44.10,15.88,24.41,-1.00
18536.00,-8.65,-2.66,4.20,-0.20,0.08,-3.25,-44.10,15.88,24.41,-1.00
18548.00,-8.67,-2.40,4.24,-0.19,0.06,-3.27,-44.10,15.88,24.41,-1.00
18560.00,-8.67,-2.40,4.24,-0.19,0.06,-3.27,-44.10,15.88,24.41,-1.00
18575.00,-9.00,-2.74,4.96,-0.15,0.03,-3.28,-43.70,17.49,23.41,-1.00
18586.00,-8.76,-1.89,3.85,-0.15,0.08,-3.32,-43.70,17.49,23.41,-1.00
18599.00,-8.76,-1.89,3.85,-0.15,0.08,-3.32,-43.70,17.49,23.41,-1.00
18611.00,-8.75,-1.94,3.94,-0.12,0.07,-3.34,-43.70,17.49,23.41,-1.00
18626.00,-8.64,-2.54,3.61,-0.16,0.12,-3.42,-43.70,17.49,23.41,-1.00
18638.00,-8.64,-2.54,3.61,-0.16,0.12,-3.42,-43.70,17.49,23.41,-1.00
18650.00,-8.63,-1.97,4.69,-0.13,0.13,-3.40,-43.70,17.49,23.41,-1.00
18662.00,-8.63,-1.97,4.69,-0.13,0.13,-3.40,-43.70,17.49,23.41,-1.00
18676.00,-8.75,-2.42,4.08,-0.13,0.20,-3.47,-43.70,17.49,23.41,-1.00
18688.00,-8.70,-1.99,3.90,-0.11,0.18,-3.47,-43.70,17.49,23.41,-1.00
18700.00,-8.70,-1.99,3.90,-0.11,0.18,-3.47,-43.70,17.49,23.41,-1.00
18714.00,-8.53,-2.88,4.63,-0.07,0.19,-3.50,-45.27,18.46,23.41,-1.00
18726.00,-8.88,-2.89,4.41,-0.06,0.17,-3.47,-45.27,18.46,23.41,-1.00
18738.00,-8.88,-2.89,4.41,-0.06,0.17,-3.47,-45.27,18.46,23.41,-1.00
18751.00,-8.75,-2.04,4.86,-0.05,0.20,-3.45,-45.27,18.46,23.41,-1.00
18765.00,-8.59,-2.30,4.59,-0.06,0.20,-3.46,-45.27,18.46,23.41,-1.00
18852.00,-8.62,-1.95,4.74,-0.12,0.08,-3.41,-45.86,15.72,21.25,-1.00
18942.00,-8.73,-2.17,4.92,-0.25,0.08,-3.33,-45.86,15.72,21.25,-1.00
19029.00,-8.50,-1.79,4.68,-0.37,0.08,-3.26,-45.08,15.07,22.25,-1.00
19044.00,-8.50,-1.79,4.68,-0.37,0.08,-3.26,-45.08,15.07,22.25,-1.00
19055.00,-8.87,-1.39,4.61,-0.41,0.07,-3.25,-45.08,15.07,22.25,-1.00
19067.00,-8.38,-1.56,3.98,-0.45,0.01,-3.17,-44.88,14.91,21.75,-1.00
19081.00,-8.38,-1.56,3.98,-0.45,0.01,-3.17,-44.88,14.91,21.75,-1.00
19093.00,-8.78,-1.91,4.84,-0.49,-0.08,-3.10,-44.88,14.91,21.75,-1.00
19105.00,-8.16,-2.38,5.28,-0.49,-0.11,-3.08,-44.88,14.91,21.75,-1.00
19117.00,-8.16,-2.38,5.28,-0.49,-0.11,-3.08,-44.88,14.91,21.75,-1.00
19131.00,-8.29,-1.93,4.79,-0.50,-0.09,-3.03,-44.88,14.91,21.75,-1.00
19143.00,-8.29,-1.93,4.79,-0.50,-0.09,-3.03,-44.88,14.91,21.75,-1.00
19155.00,-8.18,-1.59,4.70,-0.48,-0.16,-3.00,-44.88,14.91,21.75,-1.00
19167.00,-7.96,-2.24,4.49,-0.51,-0.19,-3.00,-44.88,14.91,21.75,-1.00
19181.00,-7.96,-2.24,4.49,-0.51,-0.19,-3.00,-44.88,14.91,21.75,-1.00
19193.00,-9.00,-2.34,5.10,-0.50,-0.21,-2.94,-44.88,16.20,22.41,-1.00
19205.00,-8.63,-2.01,4.92,-0.50,-0.19,-2.92,-44.88,16.20,22.41,-1.00
19220.00,-8.63,-2.01,4.92,-0.50,-0.19,-2.92,-44.88,16.20,22.41,-1.00
19231.00,-8.33,-2.09,4.97,-0.51,-0.22,-2.95,-44.88,16.20,22.41,-1.00
19243.00,-8.33,-2.09,4.97,-0.51,-0.22,-2.95,-44.88,16.20,22.41,-1.00
19255.00,-7.92,-2.00,4.84,-0.56,-0.22,-3.01,-44.88,16.20,22.41,-1.00
19269.00,-8.21,-2.76,4.74,-0.52,-0.17,-3.10,-44.88,16.20,22.41,-1.00
19281.00,-8.21,-2.76,4.74,-0.52,-0.17,-3.10,-44.88,16.20,22.41,-1.00
19293.00,-7.82,-3.39,4.99,-0.44,-0.10,-3.11,-44.88,16.20,22.41,-1.00
19305.00,-7.97,-2.99,3.98,-0.37,-0.07,-3.12,-43.70,17.17,23.74,-1.00
19319.00,-7.97,-2.99,3.98,-0.37,-0.07,-3.12,-43.70,17.17,23.74,-1.00
19331.00,-8.38,-2.63,4.35,-0.33,-0.05,-3.14,-43.70,17.17,23.74,-1.00
19343.00,-8.38,-2.63,4.35,-0.33,-0.05,-3.14,-43.70,17.17,23.74,-1.00
19357.00,-8.83,-3.00,4.60,-0.29,-0.01,-3.26,-43.70,17.17,23.74,-1.00
19370.00,-8.76,-3.29,4.43,-0.24,0.07,-3.30,-43.70,17.17,23.74,-1.00
19381.00,-8.76,-3.29,4.43,-0.24,0.07,-3.30,-43.70,17.17,23.74,-1.00
19393.00,-8.61,-2.81,4.30,-0.18,0.10,-3.32,-43.70,17.17,23.74,-1.00
19407.00,-8.35,-2.40,3.94,-0.20,0.12,-3.34,-43.70,17.17,23.74,-1.00
19419.00,-8.35,-2.40,3.94,-0.20,0.12,-3.34,-43.70,17.17,23.74,-1.00
19431.00,-8.70,-2.32,4.42,-0.12,0.11,-3.37,-43.70,17.17,23.74,-1.00
19443.00,-8.70,-2.32,4.42,-0.12,0.11,-3.37,-43.70,17.17,23.74,-1.00
19457.00,-8.78,-2.06,4.39,-0.11,0.14,-3.37,-43.12,17.33,25.57,-1.00
19469.00,-8.70,-2.79,4.18,-0.16,0.17,-3.49,-43.12,17.33,25.57,-1.00
19481.00,-8.70,-2.79,4.18,-0.16,0.17,-3.49,-43.12,17.33,25.57,-1.00
19496.00,-8.59,-3.34,4.35,-0.11,0.19,-3.50,-43.12,17.33,25.57,-1.00
19507.00,-8.92,-1.96,4.67,-0.04,0.22,-3.45,-43.12,17.33,25.57,-1.00
19519.00,-8.92,-1.96,4.67,-0.04,0.22,-3.45,-43.12,17.33,25.57,-1.00
19531.00,-8.46,-2.64,3.96,-0.08,0.29,-3.56,-43.12,17.33,25.57,-1.00
19545.00,-8.57,-2.20,4.64,-0.02,0.25,-3.53,-43.12,17.33,25.57,-1.00
19557.00,-8.57,-2.20,4.64,-0.02,0.25,-3.53,-43.12,17.33,25.57,-1.00
19569.00,-8.63,-1.95,4.21,-0.03,0.23,-3.48,-43.70,16.85,21.75,-1.00
19581.00,-8.63,-1.95,4.21,-0.03,0.23,-3.48,-43.70,16.85,21.75,-1.00
19595.00,-8.79,-2.05,4.17,-0.03,0.21,-3.51,-43.70,16.85,21.75,-1.00
19607.00,-8.50,-1.98,3.89,-0.02,0.24,-3.48,-43.70,16.85,21.75,-1.00
19619.00,-8.50,-1.98,3.89,-0.02,0.24,-3.48,-43.70,16.85,21.75,-1.00
19631.00,-8.70,-1.82,4.64,-0.08,0.19,-3.47,-43.70,16.85,21.75,-1.00
19646.00,-8.51,-1.98,4.25,-0.11,0.17,-3.45,-43.70,16.85,21.75,-1.00
19657.00,-8.51,-1.98,4.25,-0.11,0.17,-3.45,-43.70,16.85,21.75,-1.00
19669.00,-8.50,-2.20,4.64,-0.12,0.13,-3.41,-43.70,16.85,21.75,-1.00
19684.00,-8.50,-2.20,4.64,-0.12,0.13,-3.41,-43.70,16.85,21.75,-1.00
19770.00,-8.67,-1.49,4.82,-0.25,0.12,-3.34,-45.08,16.36,21.25,-1.00
19860.00,-8.58,-1.62,4.81,-0.40,0.03,-3.21,-44.49,15.23,22.08,-1.00
19946.00,-9.03,-1.69,4.90,-0.61,-0.05,-3.08,-44.10,15.88,22.75,-1.00
19961.00,-9.03,-1.69,4.90,-0.61,-0.05,-3.08,-44.10,15.88,22.75,-1.00
19972.00,-8.04,-1.97,3.97,-0.65,-0.06,-3.06,-44.10,15.88,22.75,-1.00
19984.00,-8.31,-2.52,4.93,-0.65,-0.11,-3.01,-44.10,15.88,22.75,-1.00
19996.00,-8.31,-2.52,4.93,-0.65,-0.11,-3.01,-44.10,15.88,22.75,-1.00
20010.00,-8.96,-2.22,5.00,-0.63,-0.15,-2.95,-44.10,15.88,22.75,-1.00
20022.00,-8.96,-2.22,5.00,-0.63,-0.15,-2.95,-44.10,15.88,22.75,-1.00
20034.00,-8.27,-2.18,4.70,-0.60,-0.16,-2.98,-44.10,15.88,22.75,-1.00
20048.00,-8.22,-2.67,4.30,-0.58,-0.16,-3.03,-44.10,15.88,22.75,-1.00
20060.00,-8.22,-2.67,4.30,-0.58,-0.16,-3.03,-44.10,15.88,22.75,-1.00
20072.00,-8.13,-2.85,4.57,-0.54,-0.17,-3.06,-42.92,15.23,25.07,-1.00
20084.00,-8.52,-2.90,4.96,-0.48,-0.15,-3.05,-42.92,15.23,25.07,-1.00
20098.00,-8.52,-2.90,4.96,-0.48,-0.15,-3.05,-42.92,15.23,25.07,-1.00
20110.00,-8.00,-2.66,4.87,-0.43,-0.11,-3.09,-42.92,15.23,25.07,-1.00
20122.00,-8.00,-2.66,4.87,-0.43,-0.11,-3.09,-42.92,15.23,25.07,-1.00
20134.00,-8.18,-2.84,4.20,-0.41,-0.07,-3.15,-42.92,15.23,25.07,-1.00
20149.00,-8.39,-3.06,4.52,-0.37,-0.05,-3.22,-42.92,15.23,25.07,-1.00
20160.00,-8.39,-3.06,4.52,-0.37,-0.05,-3.22,-42.92,15.23,25.07,-1.00
20172.00,-8.50,-3.04,4.33,-0.30,-0.03,-3.23,-42.92,15.23,25.07,-1.00
20186.00,-8.45,-2.87,3.92,-0.25,0.02,-3.24,-40.76,15.72,24.24,-1.00
20198.00,-8.45,-2.87,3.92,-0.25,0.02,-3.24,-40.76,15.72,24.24,-1.00
20210.00,-8.53,-2.76,4.17,-0.19,0.06,-3.29,-40.76,15.72,24.24,-1.00
20222.00,-8.53,-2.76,4.17,-0.19,0.06,-3.29,-40.76,15.72,24.24,-1.00
20236.00,-8.85,-1.87,4.02,-0.15,0.07,-3.31,-40.76,15.72,24.24,-1.00
20248.00,-8.65,-2.61,4.06,-0.13,0.10,-3.37,-40.76,15.72,24.24,-1.00
20261.00,-8.65,-2.61,4.06,-0.13,0.10,-3.37,-40.76,15.72,24.24,-1.00
20272.00,-9.01,-1.78,4.22,-0.12,0.13,-3.40,-40.76,15.72,24.24,-1.00
20286.00,-8.92,-2.25,4.93,-0.12,0.20,-3.49,-40.76,15.72,24.24,-1.00
20298.00,-8.92,-2.25,4.93,-0.12,0.20,-3.49,-40.76,15.72,24.24,-1.00
20310.00,-8.74,-2.46,4.68,-0.12,0.26,-3.51,-42.53,16.52,25.07,-1.00
20324.00,-8.35,-3.03,4.20,-0.11,0.30,-3.50,-42.53,16.52,25.07,-1.00
20336.00,-8.35,-3.03,4.20,-0.11,0.30,-3.50,-42.53,16.52,25.07,-1.00
20348.00,-8.71,-2.20,3.91,-0.08,0.27,-3.44,-42.53,16.52,25.07,-1.00
20360.00,-8.71,-2.20,3.91,-0.08,0.27,-3.44,-42.53,16.52,25.07,-1.00
20374.00,-8.95,-1.99,4.78,-0.04,0.24,-3.46,-42.53,16.52,25.07,-1.00
20386.00,-8.84,-2.35,3.96,-0.07,0.24,-3.46,-42.53,16.52,25.07,-1.00
20398.00,-8.84,-2.35,3.96,-0.07,0.24,-3.46,-42.53,16.52,25.07,-1.00
20410.00,-8.65,-2.37,3.88,-0.05,0.24,-3.49,-42.53,16.52,25.07,-1.00
20424.00,-8.51,-1.80,4.13,-0.03,0.23,-3.48,-44.10,16.52,23.41,-1.00
20436.00,-8.51,-1.80,4.13,-0.03,0.23,-3.48,-44.10,16.52,23.41,-1.00
20448.00,-8.70,-1.84,5.50,-0.06,0.19,-3.48,-44.10,16.52,23.41,-1.00
20462.00,-8.70,-1.84,5.50,-0.06,0.19,-3.48,-44.10,16.52,23.41,-1.00
20474.00,-8.72,-2.26,4.69,-0.04,0.16,-3.43,-44.10,16.52,23.41,-1.00
20486.00,-8.76,-2.15,4.80,0.00,0.13,-3.36,-44.10,16.52,23.41,-1.00
20498.00,-8.76,-2.15,4.80,0.00,0.13,-3.36,-44.10,16.52,23.41,-1.00
20512.00,-8.74,-1.49,5.33,-0.04,0.14,-3.34,-44.10,16.52,23.41,-1.00
20524.00,-8.72,-1.94,4.62,-0.11,0.18,-3.41,-44.10,16.52,23.41,-1.00
20536.00,-8.72,-1.94,4.62,-0.11,0.18,-3.41,-44.10,16.52,23.41,-1.00
20548.00,-8.72,-1.78,4.66,-0.18,0.14,-3.38,-44.29,15.39,23.58,-1.00
20562.00,-8.72,-1.78,4.66,-0.18,0.14,-3.38,-44.29,15.39,23.58,-1.00
20574.00,-8.72,-2.00,5.12,-0.24,0.15,-3.40,-44.29,15.39,23.58,-1.00
20586.00,-8.23,-1.94,4.48,-0.30,0.16,-3.39,-44.29,15.39,23.58,-1.00
20598.00,-8.23,-1.94,4.48,-0.30,0.16,-3.39,-44.29,15.39,23.58,-1.00
20612.00,-8.09,-2.10,4.60,-0.32,0.11,-3.31,-44.29,15.39,23.58,-1.00
20624.00,-8.66,-1.88,5.12,-0.36,0.05,-3.27,-44.29,15.39,23.58,-1.00
20636.00,-8.66,-1.88,5.12,-0.36,0.05,-3.27,-44.29,15.39,23.58,-1.00
20650.00,-8.50,-2.23,4.58,-0.39,0.08,-3.28,-44.29,15.39,23.58,-1.00
20662.00,-8.50,-2.23,4.58,-0.39,0.08,-3.28,-44.29,15.39,23.58,-1.00
20674.00,-8.47,-2.05,4.95,-0.40,0.06,-3.25,-44.29,15.39,23.58,-1.00
20686.00,-8.63,-2.05,4.59,-0.44,0.05,-3.24,-44.29,15.39,23.58,-1.00
20701.00,-8.63,-2.05,4.59,-0.44,0.05,-3.24,-44.29,15.39,23.58,-1.00
20712.00,-8.87,-1.89,4.42,-0.50,0.00,-3.18,-44.29,15.39,23.58,-1.00
20724.00,-8.50,-2.05,4.40,-0.50,-0.01,-3.14,-44.29,15.39,23.58,-1.00
20736.00,-8.50,-2.05,4.40,-0.50,-0.01,-3.14,-44.29,15.39,23.58,-1.00
20750.00,-8.61,-1.59,4.07,-0.52,-0.01,-3.12,-44.29,15.39,23.58,-1.00
20762.00,-8.79,-1.64,4.60,-0.54,-0.02,-3.15,-44.29,15.39,23.58,-1.00
20774.00,-8.79,-1.64,4.60,-0.54,-0.02,-3.15,-44.29,15.39,23.58,-1.00
20788.00,-8.37,-2.67,4.42,-0.56,-0.08,-3.13,-44.29,15.39,23.58,-1.00
20800.00,-8.37,-2.67,4.42,-0.56,-0.08,-3.13,-44.29,15.39,23.58,-1.00
20812.00,-8.26,-2.22,4.47,-0.58,-0.15,-3.04,-42.53,15.55,23.41,-1.00
20824.00,-8.71,-2.25,4.44,-0.61,-0.16,-3.02,-42.53,15.55,23.41,-1.00
20838.00,-8.71,-2.25,4.44,-0.61,-0.16,-3.02,-42.53,15.55,23.41,-1.00
20850.00,-8.19,-2.69,4.26,-0.60,-0.20,-3.02,-42.53,15.55,23.41,-1.00
20862.00,-8.78,-2.68,4.73,-0.56,-0.21,-3.02,-42.53,15.55,23.41,-1.00
20874.00,-8.78,-2.68,4.73,-0.56,-0.21,-3.02,-42.53,15.55,23.41,-1.00
20888.00,-7.70,-3.13,4.55,-0.54,-0.24,-3.04,-42.53,15.55,23.41,-1.00
20900.00,-7.70,-3.13,4.55,-0.54,-0.24,-3.04,-42.53,15.55,23.41,-1.00
20912.00,-8.77,-2.98,4.76,-0.44,-0.21,-3.04,-42.53,15.55,23.41,-1.00
20926.00,-8.71,-2.65,4.43,-0.39,-0.14,-3.11,-40.96,16.20,25.40,-1.00
20938.00,-8.71,-2.65,4.43,-0.39,-0.14,-3.11,-40.96,16.20,25.40,-1.00
20950.00,-8.91,-3.28,5.05,-0.31,-0.16,-3.17,-40.96,16.20,25.40,-1.00
20962.00,-8.53,-3.30,4.24,-0.28,-0.07,-3.21,-40.96,16.20,25.40,-1.00
20977.00,-8.53,-3.30,4.24,-0.28,-0.07,-3.21,-40.96,16.20,25.40,-1.00
20988.00,-8.88,-3.18,4.42,-0.16,0.02,-3.25,-40.96,16.20,25.40,-1.00
21000.00,-8.88,-3.18,4.42,-0.16,0.02,-3.25,-40.96,16.20,25.40,-1.00
21012.00,-8.89,-2.86,4.08,-0.16,0.09,-3.30,-40.96,16.20,25.40,-1.00
21026.00,-8.89,-2.66,3.49,-0.12,0.18,-3.35,-40.96,16.20,25.40,-1.00
21038.00,-8.89,-2.66,3.49,-0.12,0.18,-3.35,-40.96,16.20,25.40,-1.00
21050.00,-8.89,-2.47,4.18,-0.09,0.22,-3.42,-42.14,16.20,25.73,-1.00
21064.00,-8.94,-2.36,4.27,-0.06,0.30,-3.47,-42.14,16.20,25.73,-1.00
21076.00,-8.94,-2.36,4.27,-0.06,0.30,-3.47,-42.14,16.20,25.73,-1.00
21088.00,-8.74,-2.02,3.83,-0.09,0.32,-3.48,-42.14,16.20,25.73,-1.00
21100.00,-8.74,-2.02,3.83,-0.09,0.32,-3.48,-42.14,16.20,25.73,-1.00
21114.00,-8.62,-2.97,3.94,-0.04,0.27,-3.51,-42.14,16.20,25.73,-1.00
21126.00,-8.51,-2.29,3.96,-0.01,0.32,-3.49,-42.14,16.20,25.73,-1.00
21138.00,-8.51,-2.29,3.96,-0.01,0.32,-3.49,-42.14,16.20,25.73,-1.00
21150.00,-9.07,-1.96,3.95,-0.01,0.37,-3.57,-42.14,16.20,25.73,-1.00
21165.00,-8.27,-2.91,3.97,-0.02,0.35,-3.61,-44.49,16.20,25.07,-1.00
21176.00,-8.27,-2.91,3.97,-0.02,0.35,-3.61,-44.49,16.20,25.07,-1.00
21188.00,-8.73,-2.49,4.26,-0.04,0.22,-3.51,-44.49,16.20,25.07,-1.00
21202.00,-8.91,-2.23,3.75,-0.03,0.18,-3.47,-44.49,16.20,25.07,-1.00
21214.00,-8.91,-2.23,3.75,-0.03,0.18,-3.47,-44.49,16.20,25.07,-1.00
21226.00,-8.76,-1.97,4.14,-0.01,0.21,-3.45,-44.49,16.20,25.07,-1.00
21238.00,-8.76,-1.97,4.14,-0.01,0.21,-3.45,-44.49,16.20,25.07,-1.00
21252.00,-8.42,-2.11,3.60,-0.06,0.25,-3.47,-44.49,16.20,25.07,-1.00
21264.00,-8.68,-1.39,4.44,-0.08,0.18,-3.45,-44.49,16.20,25.07,-1.00
21276.00,-8.68,-1.39,4.44,-0.08,0.18,-3.45,-44.49,16.20,25.07,-1.00
21288.00,-8.51,-2.12,4.37,-0.13,0.12,-3.41,-42.53,15.88,22.41,-1.00
21302.00,-8.94,-1.65,4.19,-0.15,0.08,-3.33,-42.53,15.88,22.41,-1.00
21314.00,-8.94,-1.65,4.19,-0.15,0.08,-3.33,-42.53,15.88,22.41,-1.00
21326.00,-8.53,-1.95,3.71,-0.23,0.09,-3.34,-42.53,15.88,22.41,-1.00
21338.00,-8.53,-1.95,3.71,-0.23,0.09,-3.34,-42.53,15.88,22.41,-1.00
21352.00,-8.74,-1.69,4.35,-0.28,0.07,-3.29,-42.53,15.88,22.41,-1.00
21440.00,-8.36,-2.67,4.50,-0.48,0.02,-3.22,-43.70,14.26,23.41,-1.00
21529.00,-8.30,-2.18,4.42,-0.63,-0.07,-3.05,-43.70,14.26,23.41,-1.00
21542.00,-8.05,-2.61,4.08,-0.61,-0.06,-3.05,-43.90,14.42,22.91,-1.00
21554.00,-8.05,-2.61,4.08,-0.61,-0.06,-3.05,-43.90,14.42,22.91,-1.00
21566.00,-7.99,-2.57,3.85,-0.62,-0.12,-3.04,-43.90,14.42,22.91,-1.00
21578.00,-7.99,-2.57,3.85,-0.62,-0.12,-3.04,-43.90,14.42,22.91,-1.00
21592.00,-8.06,-2.57,4.24,-0.61,-0.16,-3.03,-43.90,14.42,22.91,-1.00
21604.00,-8.54,-2.37,4.18,-0.62,-0.20,-2.97,-43.90,14.42,22.91,-1.00
21616.00,-8.54,-2.37,4.18,-0.62,-0.20,-2.97,-43.90,14.42,22.91,-1.00
21628.00,-8.23,-2.59,3.97,-0.61,-0.25,-2.96,-43.90,14.42,22.91,-1.00
21642.00,-8.51,-2.55,4.80,-0.54,-0.26,-2.97,-43.90,14.42,22.91,-1.00
21654.00,-8.51,-2.55,4.80,-0.54,-0.26,-2.97,-43.90,14.42,22.91,-1.00
21666.00,-8.59,-2.78,4.59,-0.54,-0.20,-3.06,-42.72,15.39,25.90,-1.00
21680.00,-8.59,-2.78,4.59,-0.54,-0.20,-3.06,-42.72,15.39,25.90,-1.00
21692.00,-8.15,-2.84,4.63,-0.51,-0.17,-3.08,-42.72,15.39,25.90,-1.00
21704.00,-7.60,-2.89,4.34,-0.47,-0.16,-3.05,-42.72,15.39,25.90,-1.00
21716.00,-7.60,-2.89,4.34,-0.47,-0.16,-3.05,-42.72,15.39,25.90,-1.00
21730.00,-8.69,-2.35,4.25,-0.45,-0.17,-3.07,-42.72,15.39,25.90,-1.00
21742.00,-8.42,-3.44,4.36,-0.38,-0.07,-3.20,-42.72,15.39,25.90,-1.00
21754.00,-8.42,-3.44,4.36,-0.38,-0.07,-3.20,-42.72,15.39,25.90,-1.00
21768.00,-8.57,-2.97,4.05,-0.29,0.01,-3.24,-42.72,15.39,25.90,-1.00
21780.00,-8.57,-2.97,4.05,-0.29,0.01,-3.24,-42.72,15.39,25.90,-1.00
21792.00,-8.63,-2.78,4.36,-0.19,-0.00,-3.24,-40.76,15.39,25.90,-1.00
21804.00,-8.69,-2.27,3.89,-0.18,0.06,-3.29,-40.76,15.39,25.90,-1.00
21818.00,-8.69,-2.27,3.89,-0.18,0.06,-3.29,-40.76,15.39,25.90,-1.00
21830.00,-8.94,-2.25,4.45,-0.16,0.07,-3.33,-40.76,15.39,25.90,-1.00
21842.00,-8.69,-2.82,3.94,-0.15,0.10,-3.36,-40.76,15.39,25.90,-1.00
21854.00,-8.69,-2.82,3.94,-0.15,0.10,-3.36,-40.76,15.39,25.90,-1.00
21868.00,-8.97,-1.90,4.24,-0.11,0.08,-3.31,-40.76,15.39,25.90,-1.00
21880.00,-8.97,-1.90,4.24,-0.11,0.08,-3.31,-40.76,15.39,25.90,-1.00
21892.00,-8.93,-2.60,4.30,-0.07,0.12,-3.39,-40.76,15.39,25.90,-1.00
21904.00,-9.09,-2.22,4.73,-0.08,0.17,-3.41,-39.98,16.69,25.24,-1.00
21918.00,-9.09,-2.22,4.73,-0.08,0.17,-3.41,-39.98,16.69,25.24,-1.00
21931.00,-8.77,-3.09,4.11,-0.07,0.25,-3.50,-39.98,16.69,25.24,-1.00
21943.00,-9.11,-2.61,4.12,-0.03,0.30,-3.49,-39.98,16.69,25.24,-1.00
21957.00,-9.11,-2.61,4.12,-0.03,0.30,-3.49,-39.98,16.69,25.24,-1.00
21969.00,-8.66,-2.51,3.62,-0.03,0.36,-3.53,-39.98,16.69,25.24,-1.00
21981.00,-8.98,-1.83,4.03,0.01,0.36,-3.53,-39.98,16.69,25.24,-1.00
21993.00,-8.98,-1.83,4.03,0.01,0.36,-3.53,-39.98,16.69,25.24,-1.00
22007.00,-8.74,-2.47,4.24,0.01,0.37,-3.53,-39.98,16.69,25.24,-1.00
22019.00,-8.74,-2.47,4.24,0.01,0.37,-3.53,-39.98,16.69,25.24,-1.00
22031.00,-8.67,-2.19,3.94,-0.01,0.38,-3.51,-39.98,16.69,25.24,-1.00
22043.00,-8.81,-2.10,4.20,-0.01,0.33,-3.54,-41.55,15.72,23.58,-1.00
22058.00,-8.81,-2.10,4.20,-0.01,0.33,-3.54,-41.55,15.72,23.58,-1.00
22069.00,-9.06,-1.90,3.95,-0.01,0.31,-3.50,-41.55,15.72,23.58,-1.00
22081.00,-8.92,-1.35,3.95,0.02,0.33,-3.47,-41.55,15.72,23.58,-1.00
22096.00,-8.92,-1.35,3.95,0.02,0.33,-3.47,-41.55,15.72,23.58,-1.00
22107.00,-8.97,-1.46,3.90,-0.04,0.34,-3.47,-41.55,15.72,23.58,-1.00
22119.00,-8.97,-1.46,3.90,-0.04,0.34,-3.47,-41.55,15.72,23.58,-1.00
22131.00,-8.58,-1.61,3.68,-0.17,0.34,-3.44,-41.55,15.72,23.58,-1.00
22145.00,-8.44,-2.33,4.49,-0.32,0.20,-3.29,-41.55,15.72,23.58,-1.00
22157.00,-8.44,-2.33,4.49,-0.32,0.20,-3.29,-41.55,15.72,23.58,-1.00
22169.00,-8.80,-1.40,4.41,-0.47,0.10,-3.03,-42.72,15.07,22.25,-1.00
22181.00,-8.73,-1.89,4.71,-0.55,0.08,-2.89,-42.72,15.07,22.25,-1.00
22195.00,-8.73,-1.89,4.71,-0.55,0.08,-2.89,-42.72,15.07,22.25,-1.00
22207.00,-9.06,-2.49,3.47,-0.51,0.07,-2.77,-42.72,15.07,22.25,-1.00
22219.00,-9.06,-2.49,3.47,-0.51,0.07,-2.77,-42.72,15.07,22.25,-1.00
22231.00,-10.59,-2.15,2.02,-0.54,-0.37,-2.89,-42.72,15.07,22.25,-1.00
22246.00,-10.26,-2.33,4.25,-0.93,-1.40,-3.49,-42.72,15.07,22.25,-1.00
22257.00,-10.26,-2.33,4.25,-0.93,-1.40,-3.49,-42.72,15.07,22.25,-1.00
22269.00,-9.80,-4.71,4.98,-1.31,-2.18,-3.86,-42.72,15.07,22.25,-1.00
22283.00,-8.20,-5.10,5.09,-0.81,-2.68,-3.64,-39.00,11.03,27.73,-1.00
22295.00,-8.20,-5.10,5.09,-0.81,-2.68,-3.64,-39.00,11.03,27.73,-1.00
22307.00,-7.72,-5.03,5.77,0.41,-2.98,-3.43,-39.00,11.03,27.73,-1.00
22319.00,-7.72,-5.03,5.77,0.41,-2.98,-3.43,-39.00,11.03,27.73,-1.00
22333.00,-7.23,-5.37,8.78,1.75,-2.96,-3.04,-39.00,11.03,27.73,-1.00
22345.00,-5.82,-2.73,6.28,2.94,-2.48,-2.36,-39.00,11.03,27.73,-1.00
22357.00,-5.82,-2.73,6.28,2.94,-2.48,-2.36,-39.00,11.03,27.73,-1.00
22369.00,-4.62,-1.21,7.60,4.47,-2.25,-1.81,-39.00,11.03,27.73,-1.00
22383.00,-5.34,1.18,7.97,5.61,-1.81,-1.36,-39.00,11.03,27.73,-1.00
22395.00,-5.34,1.18,7.97,5.61,-1.81,-1.36,-39.00,11.03,27.73,-1.00
22407.00,-5.26,3.64,7.56,6.91,-1.21,-1.16,-27.24,29.46,26.07,-1.00
22421.00,-6.44,3.80,9.61,7.31,-0.70,-1.25,-27.24,29.46,26.07,-1.00
22433.00,-6.44,3.80,9.61,7.31,-0.70,-1.25,-27.24,29.46,26.07,-1.00
22445.00,-5.64,3.70,8.86,6.17,0.09,-1.40,-27.24,29.46,26.07,-1.00
22457.00,-5.64,3.70,8.86,6.17,0.09,-1.40,-27.24,29.46,26.07,-1.00
22471.00,-5.89,4.57,6.23,3.52,0.46,-1.83,-27.24,29.46,26.07,-1.00
22483.00,-5.38,4.50,5.39,1.32,0.37,-2.43,-27.24,29.46,26.07,-1.00
22495.00,-5.38,4.50,5.39,1.32,0.37,-2.43,-27.24,29.46,26.07,-1.00
22507.00,-5.06,4.45,4.83,-0.09,0.08,-2.80,-27.24,29.46,26.07,-1.00
22522.00,-5.25,4.38,4.63,-0.55,-0.14,-3.00,-24.30,39.64,12.29,-1.00
22533.00,-5.25,4.38,4.63,-0.55,-0.14,-3.00,-24.30,39.64,12.29,-1.00
22545.00,-4.65,4.64,5.09,-0.47,-0.23,-3.20,-24.30,39.64,12.29,-1.00
22557.00,-4.65,4.64,5.09,-0.47,-0.23,-3.20,-24.30,39.64,12.29,-1.00
22571.00,-5.03,4.29,5.74,-0.41,0.02,-3.31,-24.30,39.64,12.29,-1.00
22583.00,-5.71,4.50,5.31,-0.17,0.30,-3.38,-24.30,39.64,12.29,-1.00
22595.00,-5.71,4.50,5.31,-0.17,0.30,-3.38,-24.30,39.64,12.29,-1.00
22609.00,-5.83,4.41,5.44,0.08,0.37,-3.42,-24.30,39.64,12.29,-1.00
22621.00,-5.81,5.07,5.31,-0.03,0.31,-3.45,-24.30,39.64,12.29,-1.00
22633.00,-5.81,5.07,5.31,-0.03,0.31,-3.45,-24.30,39.64,12.29,-1.00
22645.00,-6.36,5.56,5.46,-0.01,0.27,-3.58,-23.51,39.00,12.62,-1.00
22659.00,-6.36,5.56,5.46,-0.01,0.27,-3.58,-23.51,39.00,12.62,-1.00
22671.00,-6.95,5.18,6.24,0.22,0.34,-3.69,-23.51,39.00,12.62,-1.00
22683.00,-6.93,5.36,6.06,0.03,0.40,-3.81,-23.51,39.00,12.62,-1.00
22695.00,-6.93,5.36,6.06,0.03,0.40,-3.81,-23.51,39.00,12.62,-1.00
22709.00,-6.94,5.28,5.73,0.46,0.52,-3.81,-23.51,39.00,12.62,-1.00
22721.00,-7.46,5.32,5.67,1.35,0.67,-3.82,-23.51,39.00,12.62,-1.00
22733.00,-7.46,5.32,5.67,1.35,0.67,-3.82,-23.51,39.00,12.62,-1.00
22745.00,-7.24,5.04,5.24,1.30,0.51,-4.05,-23.51,39.00,12.62,-1.00
22759.00,-7.24,5.04,5.24,1.30,0.51,-4.05,-23.51,39.00,12.62,-1.00
22771.00,-6.31,4.88,5.27,1.17,0.33,-4.31,-23.51,39.00,12.62,-1.00
22783.00,-6.23,5.02,5.39,1.59,0.52,-4.20,-30.57,39.64,6.31,-1.00
22795.00,-6.23,5.02,5.39,1.59,0.52,-4.20,-30.57,39.64,6.31,-1.00
22809.00,-6.88,5.64,4.15,1.71,0.82,-3.95,-30.57,39.64,6.31,-1.00
22821.00,-6.71,5.70,4.97,2.43,1.15,-3.73,-30.57,39.64,6.31,-1.00
22833.00,-6.71,5.70,4.97,2.43,1.15,-3.73,-30.57,39.64,6.31,-1.00
22847.00,-7.18,6.29,4.28,3.02,1.60,-3.67,-30.57,39.64,6.31,-1.00
22859.00,-7.18,6.29,4.28,3.02,1.60,-3.67,-30.57,39.64,6.31,-1.00
22871.00,-7.42,6.96,2.48,2.86,1.68,-3.84,-30.57,39.64,6.31,-1.00
22883.00,-7.13,6.47,3.19,2.35,1.56,-4.19,-30.57,39.64,6.31,-1.00
22897.00,-7.13,6.47,3.19,2.35,1.56,-4.19,-30.57,39.64,6.31,-1.00
22909.00,-7.17,3.23,6.42,1.70,1.93,-4.38,-33.90,36.89,-8.46,-1.00
22921.00,-7.29,4.79,2.34,1.86,2.93,-3.99,-33.90,36.89,-8.46,-1.00
22933.00,-7.29,4.79,2.34,1.86,2.93,-3.99,-33.90,36.89,-8.46,-1.00
22948.00,-7.57,5.44,0.16,2.30,3.40,-3.68,-33.90,36.89,-8.46,-1.00
22959.00,-7.57,5.44,0.16,2.30,3.40,-3.68,-33.90,36.89,-8.46,-1.00
22971.00,-7.36,5.74,-0.64,1.99,3.45,-3.51,-33.90,36.89,-8.46,-1.00
22983.00,-8.01,8.72,-2.10,1.95,3.29,-3.69,-33.90,36.89,-8.46,-1.00
22997.00,-8.01,8.72,-2.10,1.95,3.29,-3.69,-33.90,36.89,-8.46,-1.00
23009.00,-9.11,7.70,2.06,1.55,2.96,-4.71,-33.90,36.89,-8.46,-1.00
23021.00,-8.95,7.35,-0.05,-2.22,2.89,-6.06,-28.61,31.24,-25.89,-1.00
23033.00,-8.95,7.35,-0.05,-2.22,2.89,-6.06,-28.61,31.24,-25.89,-1.00
23047.00,-7.95,6.72,-1.07,-5.18,2.95,-6.94,-28.61,31.24,-25.89,-1.00
23059.00,-7.44,7.26,-5.43,-6.41,3.02,-7.38,-28.61,31.24,-25.89,-1.00
23071.00,-7.44,7.26,-5.43,-6.41,3.02,-7.38,-28.61,31.24,-25.89,-1.00
23085.00,-7.82,5.62,-4.02,-4.19,2.89,-7.31,-28.61,31.24,-25.89,-1.00
23098.00,-7.82,5.62,-4.02,-4.19,2.89,-7.31,-28.61,31.24,-25.89,-1.00
23110.00,-7.89,2.43,-3.99,-4.06,2.48,-7.49,-28.61,31.24,-25.89,-1.00
23122.00,-6.22,-1.65,-3.75,-3.92,2.32,-7.02,-28.61,31.24,-25.89,-1.00
23136.00,-6.22,-1.65,-3.75,-3.92,2.32,-7.02,-28.61,31.24,-25.89,-1.00
23148.00,-6.12,0.36,-4.96,-3.64,2.29,-6.11,-35.86,30.10,-17.76,-1.00
23160.00,-6.49,0.98,-3.99,-2.49,2.24,-5.40,-35.86,30.10,-17.76,-1.00
23172.00,-6.49,0.98,-3.99,-2.49,2.24,-5.40,-35.86,30.10,-17.76,-1.00
23186.00,-7.59,2.35,-2.19,-2.22,2.24,-4.97,-35.86,30.10,-17.76,-1.00
23198.00,-7.59,2.35,-2.19,-2.22,2.24,-4.97,-35.86,30.10,-17.76,-1.00
23210.00,-8.64,4.51,-0.80,-3.15,2.61,-5.21,-35.86,30.10,-17.76,-1.00
23225.00,-7.74,3.07,-1.62,-4.24,3.22,-6.10,-35.86,30.10,-17.76,-1.00
23236.00,-7.74,3.07,-1.62,-4.24,3.22,-6.10,-35.86,30.10,-17.76,-1.00
23248.00,-6.13,2.47,0.01,-4.70,3.99,-6.66,-35.86,30.10,-17.76,-1.00
23260.00,-3.44,-1.52,-4.24,-5.17,4.97,-6.44,-41.16,30.91,-16.27,-1.00
23274.00,-3.44,-1.52,-4.24,-5.17,4.97,-6.44,-41.16,30.91,-16.27,-1.00
23286.00,-3.41,1.38,-8.67,-4.09,5.28,-4.95,-41.16,30.91,-16.27,-1.00
23298.00,-3.41,1.38,-8.67,-4.09,5.28,-4.95,-41.16,30.91,-16.27,-1.00
23310.00,-4.60,6.77,-7.62,-2.67,4.88,-4.39,-41.16,30.91,-16.27,-1.00
23324.00,-4.59,3.84,-6.79,-2.53,4.57,-5.64,-41.16,30.91,-16.27,-1.00
23336.00,-4.59,3.84,-6.79,-2.53,4.57,-5.64,-41.16,30.91,-16.27,-1.00
23348.00,-4.46,-2.74,-8.26,-1.82,4.79,-6.05,-41.16,30.91,-16.27,-1.00
23362.00,-3.80,-0.57,-9.09,-0.35,4.88,-4.71,-41.16,30.91,-16.27,-1.00
23374.00,-3.80,-0.57,-9.09,-0.35,4.88,-4.71,-41.16,30.91,-16.27,-1.00
23386.00,-3.38,4.27,-9.66,0.38,4.50,-3.79,-41.16,30.91,-16.27,-1.00
23398.00,-3.38,4.27,-9.66,0.38,4.50,-3.79,-41.16,30.91,-16.27,-1.00
23413.00,-2.99,5.29,-9.79,0.62,4.09,-4.28,-30.18,28.65,-28.55,-1.00
23424.00,-2.18,-1.71,-9.69,0.93,3.77,-4.99,-30.18,28.65,-28.55,-1.00
23436.00,-2.18,-1.71,-9.69,0.93,3.77,-4.99,-30.18,28.65,-28.55,-1.00
23450.00,-1.59,-2.05,-9.30,1.01,3.78,-4.40,-30.18,28.65,-28.55,-1.00
23462.00,-1.35,-0.12,-9.11,2.06,4.35,-3.71,-30.18,28.65,-28.55,-1.00
23474.00,-1.35,-0.12,-9.11,2.06,4.35,-3.71,-30.18,28.65,-28.55,-1.00
23486.00,-0.16,-1.05,-9.59,3.15,5.03,-3.58,-30.18,28.65,-28.55,-1.00
23500.00,2.41,-2.28,-9.97,3.78,5.54,-3.60,-30.18,28.65,-28.55,-1.00
23512.00,2.41,-2.28,-9.97,3.78,5.54,-3.60,-30.18,28.65,-28.55,-1.00
23524.00,3.45,2.47,-16.29,3.80,5.28,-3.89,-4.70,15.07,-44.49,-1.00
23536.00,3.45,2.47,-16.29,3.80,5.28,-3.89,-4.70,15.07,-44.49,-1.00
23550.00,4.30,-3.29,-18.62,2.46,3.14,-5.10,-4.70,15.07,-44.49,-1.00
23562.00,2.96,-6.91,-12.39,1.25,0.37,-4.69,-4.70,15.07,-44.49,-1.00
23574.00,2.96,-6.91,-12.39,1.25,0.37,-4.69,-4.70,15.07,-44.49,-1.00
23586.00,5.24,-6.81,-17.67,-0.40,-0.88,-3.88,-4.70,15.07,-44.49,-1.00
23600.00,3.01,-3.73,-7.87,-1.02,-0.90,-3.67,-4.70,15.07,-44.49,-1.00
23612.00,3.01,-3.73,-7.87,-1.02,-0.90,-3.67,-4.70,15.07,-44.49,-1.00
23624.00,3.17,-4.20,-8.76,-0.92,-0.77,-3.61,-4.70,15.07,-44.49,-1.00
23638.00,3.17,-4.20,-8.76,-0.92,-0.77,-3.61,-4.70,15.07,-44.49,-1.00
23728.00,1.58,-0.87,-10.40,-1.56,-0.46,-3.37,-2.35,11.19,-43.82,-1.00
23815.00,1.28,0.04,-10.35,-1.38,-0.68,-3.41,-8.42,17.49,-43.66,-1.00
23904.00,0.88,0.79,-10.34,-0.84,-0.82,-3.53,-12.54,23.15,-40.50,-1.00
23918.00,0.56,0.54,-10.20,-0.29,-1.08,-3.54,-12.54,23.15,-40.50,-1.00
23930.00,0.56,0.54,-10.20,-0.29,-1.08,-3.54,-12.54,23.15,-40.50,-1.00
23942.00,-0.60,0.68,-10.57,-0.05,-1.27,-3.54,-12.54,23.15,-40.50,-1.00
23956.00,-0.60,0.68,-10.57,-0.05,-1.27,-3.54,-12.54,23.15,-40.50,-1.00
23968.00,-0.63,0.56,-10.28,1.52,-0.84,-3.74,-12.54,23.15,-40.50,-1.00
23980.00,-0.21,-3.09,-8.47,1.93,-0.30,-3.67,-12.54,23.15,-40.50,-1.00
23992.00,-0.21,-3.09,-8.47,1.93,-0.30,-3.67,-12.54,23.15,-40.50,-1.00
24006.00,-0.25,-0.43,-10.23,0.36,0.00,-3.33,-17.24,19.27,-41.17,-1.00
24018.00,-0.07,-1.33,-9.69,0.56,0.05,-3.30,-17.24,19.27,-41.17,-1.00
24030.00,-0.07,-1.33,-9.69,0.56,0.05,-3.30,-17.24,19.27,-41.17,-1.00
24042.00,-0.18,-1.28,-9.89,0.18,0.03,-3.29,-17.24,19.27,-41.17,-1.00
24056.00,-0.18,-1.28,-9.89,0.18,0.03,-3.29,-17.24,19.27,-41.17,-1.00
24068.00,-0.17,-1.72,-9.68,-0.23,0.02,-3.27,-17.24,19.27,-41.17,-1.00
24080.00,-0.20,-0.68,-10.00,-0.58,0.02,-3.26,-17.24,19.27,-41.17,-1.00
24094.00,-0.20,-0.68,-10.00,-0.58,0.02,-3.26,-17.24,19.27,-41.17,-1.00
24106.00,-0.20,-1.02,-10.00,-0.31,0.05,-3.27,-17.24,19.27,-41.17,-1.00
24118.00,-0.20,-0.71,-10.11,-0.30,0.06,-3.27,-17.24,19.27,-41.17,-1.00
24130.00,-0.20,-0.71,-10.11,-0.30,0.06,-3.27,-17.24,19.27,-41.17,-1.00
24145.00,-0.24,-0.82,-10.10,-0.14,0.08,-3.28,-17.44,19.76,-40.34,-1.00
24156.00,-0.24,-0.82,-10.10,-0.14,0.08,-3.28,-17.44,19.76,-40.34,-1.00
24168.00,-0.17,-2.04,-9.32,-0.12,0.08,-3.28,-17.44,19.76,-40.34,-1.00
24183.00,-0.29,-1.62,-9.48,-1.02,0.05,-3.27,-17.44,19.76,-40.34,-1.00
24194.00,-0.29,-1.62,-9.48,-1.02,0.05,-3.27,-17.44,19.76,-40.34,-1.00
24206.00,-0.03,-0.62,-9.84,-1.74,0.01,-3.36,-17.44,19.76,-40.34,-1.00
24218.00,-0.22,-0.27,-9.91,-1.86,-0.00,-3.25,-17.44,19.76,-40.34,-1.00
24232.00,-0.22,-0.27,-9.91,-1.86,-0.00,-3.25,-17.44,19.76,-40.34,-1.00
24244.00,-0.18,-0.17,-9.85,-1.93,-0.01,-3.23,-17.44,19.76,-40.34,-1.00
24256.00,-0.18,-0.17,-9.85,-1.93,-0.01,-3.23,-17.44,19.76,-40.34,-1.00
24268.00,-0.21,-0.10,-9.50,-2.24,-0.02,-3.21,-17.63,24.12,-39.51,-1.00
24282.00,-0.18,0.01,-9.06,-2.88,-0.03,-3.19,-17.63,24.12,-39.51,-1.00
24295.00,-0.18,0.01,-9.06,-2.88,-0.03,-3.19,-17.63,24.12,-39.51,-1.00
24307.00,-0.21,0.81,-9.03,-3.84,-0.08,-3.16,-17.63,24.12,-39.51,-1.00
24321.00,-0.25,1.27,-8.22,-4.94,-0.13,-3.13,-17.63,24.12,-39.51,-1.00
24333.00,-0.25,1.27,-8.22,-4.94,-0.13,-3.13,-17.63,24.12,-39.51,-1.00
24345.00,-0.33,1.86,-6.44,-6.72,-0.16,-3.07,-17.63,24.12,-39.51,-1.00
24357.00,-0.33,1.86,-6.44,-6.72,-0.16,-3.07,-17.63,24.12,-39.51,-1.00
24371.00,-0.61,5.16,-6.68,-9.12,0.06,-2.86,-17.63,24.12,-39.51,-1.00
24383.00,-0.63,7.67,-3.61,-5.18,0.74,-2.23,-17.83,42.71,-16.43,-1.00
24395.00,-0.63,7.67,-3.61,-5.18,0.74,-2.23,-17.83,42.71,-16.43,-1.00
24409.00,1.65,11.85,-9.47,-1.06,-0.02,-3.31,-17.83,42.71,-16.43,-1.00
24421.00,-0.42,6.49,-7.40,-0.53,-0.21,-3.55,-17.83,42.71,-16.43,-1.00
24433.00,-0.42,6.49,-7.40,-0.53,-0.21,-3.55,-17.83,42.71,-16.43,-1.00
24445.00,-0.28,6.51,-7.70,0.00,0.13,-3.11,-17.83,42.71,-16.43,-1.00
24460.00,-0.19,6.27,-7.78,-0.24,0.04,-3.22,-17.83,42.71,-16.43,-1.00
24471.00,-0.19,6.27,-7.78,-0.24,0.04,-3.22,-17.83,42.71,-16.43,-1.00
24483.00,-0.08,6.20,-7.84,-0.26,-0.01,-3.19,-17.83,42.71,-16.43,-1.00
24495.00,-0.08,6.20,-7.84,-0.26,-0.01,-3.19,-17.83,42.71,-16.43,-1.00
24509.00,-0.14,6.24,-7.79,-0.27,-0.04,-3.16,-17.44,43.36,-15.44,-1.00
24521.00,-0.10,6.20,-7.78,-0.27,0.04,-3.26,-17.44,43.36,-15.44,-1.00
24533.00,-0.10,6.20,-7.78,-0.27,0.04,-3.26,-17.44,43.36,-15.44,-1.00
24547.00,-0.11,6.24,-7.78,-0.27,0.05,-3.27,-17.44,43.36,-15.44,-1.00
24559.00,-0.10,6.25,-7.80,-0.27,0.05,-3.28,-17.44,43.36,-15.44,-1.00
24571.00,-0.10,6.25,-7.80,-0.27,0.05,-3.28,-17.44,43.36,-15.44,-1.00
24583.00,-0.10,6.23,-7.80,-0.27,0.05,-3.27,-17.44,43.36,-15.44,-1.00
24597.00,-0.11,6.23,-7.79,-0.27,0.05,-3.28,-17.44,43.36,-15.44,-1.00
24609.00,-0.11,6.23,-7.79,-0.27,0.05,-3.28,-17.44,43.36,-15.44,-1.00
24621.00,-0.15,6.21,-7.77,-0.27,0.05,-3.28,-16.85,42.23,-16.93,-1.00
24633.00,-0.15,6.21,-7.77,-0.27,0.05,-3.28,-16.85,42.23,-16.93,-1.00
24647.00,-0.14,6.24,-7.83,-0.27,0.05,-3.28,-16.85,42.23,-16.93,-1.00
24659.00,-0.13,6.23,-7.83,-0.27,0.05,-3.27,-16.85,42.23,-16.93,-1.00
24671.00,-0.13,6.23,-7.83,-0.27,0.05,-3.27,-16.85,42.23,-16.93,-1.00
24685.00,-0.11,6.21,-7.79,-0.27,0.05,-3.27,-16.85,42.23,-16.93,-1.00
24697.00,-0.10,6.20,-7.79,-0.27,0.05,-3.27,-16.85,42.23,-16.93,-1.00
24709.00,-0.10,6.20,-7.79,-0.27,0.05,-3.27,-16.85,42.23,-16.93,-1.00
24721.00,-0.09,6.23,-7.81,-0.27,0.05,-3.28,-16.85,42.23,-16.93,-1.00
24735.00,-0.09,6.23,-7.81,-0.27,0.05,-3.28,-16.85,42.23,-16.93,-1.00
24747.00,-0.08,6.22,-7.79,-0.27,0.05,-3.28,-16.85,42.23,-16.93,-1.00
24759.00,-0.11,6.20,-7.78,-0.27,0.05,-3.27,-18.42,44.49,-16.93,-1.00
24773.00,-0.11,6.20,-7.78,-0.27,0.05,-3.27,-18.42,44.49,-16.93,-1.00
24785.00,-0.13,6.24,-7.82,-0.27,0.05,-3.28,-18.42,44.49,-16.93,-1.00
24797.00,-0.13,6.23,-7.82,-0.27,0.05,-3.28,-18.42,44.49,-16.93,-1.00
24809.00,-0.13,6.23,-7.82,-0.27,0.05,-3.28,-18.42,44.49,-16.93,-1.00
24823.00,-0.13,6.25,-7.82,-0.27,0.05,-3.28,-18.42,44.49,-16.93,-1.00
24835.00,-0.13,6.25,-7.82,-0.27,0.05,-3.28,-18.42,44.49,-16.93,-1.00
24847.00,-0.14,6.18,-7.76,-0.27,0.05,-3.27,-18.42,44.49,-16.93,-1.00
24859.00,-0.12,6.21,-7.80,-0.27,0.05,-3.28,-18.42,44.49,-16.93,-1.00
24873.00,-0.12,6.21,-7.80,-0.27,0.05,-3.28,-18.42,44.49,-16.93,-1.00
24886.00,-0.11,6.24,-7.84,-0.27,0.05,-3.28,-18.22,43.36,-16.76,-1.00
24897.00,-0.08,6.21,-7.78,-0.27,0.05,-3.27,-18.22,43.36,-16.76,-1.00
24911.00,-0.08,6.21,-7.78,-0.27,0.05,-3.27,-18.22,43.36,-16.76,-1.00
24923.00,-0.10,6.22,-7.82,-0.27,0.05,-3.28,-18.22,43.36,-16.76,-1.00
24935.00,-0.10,6.22,-7.82,-0.27,0.05,-3.28,-18.22,43.36,-16.76,-1.00
24947.00,-0.11,6.23,-7.80,-0.27,0.05,-3.28,-18.22,43.36,-16.76,-1.00
24961.00,-0.12,6.21,-7.79,-0.27,0.05,-3.28,-18.22,43.36,-16.76,-1.00
24973.00,-0.12,6.21,-7.79,-0.27,0.05,-3.28,-18.22,43.36,-16.76,-1.00
24985.00,-0.12,6.22,-7.81,-0.27,0.05,-3.28,-18.22,43.36,-16.76,-1.00
24997.00,-0.13,6.23,-7.82,-0.27,0.05,-3.28,-18.03,43.85,-16.93,-1.00
25011.00,-0.13,6.23,-7.82,-0.27,0.05,-3.28,-18.03,43.85,-16.93,-1.00
25023.00,-0.13,6.22,-7.78,-0.27,0.05,-3.28,-18.03,43.85,-16.93,-1.00
25035.00,-0.13,6.22,-7.78,-0.27,0.05,-3.28,-18.03,43.85,-16.93,-1.00
25050.00,-0.12,6.25,-7.82,-0.27,0.05,-3.28,-18.03,43.85,-16.93,-1.00
25061.00,-0.11,6.24,-7.78,-0.27,0.05,-3.28,-18.03,43.85,-16.93,-1.00
25073.00,-0.11,6.24,-7.78,-0.27,0.05,-3.28,-18.03,43.85,-16.93,-1.00
25085.00,-0.11,6.20,-7.76,-0.27,0.05,-3.27,-18.03,43.85,-16.93,-1.00
25100.00,-0.12,6.23,-7.81,-0.27,0.05,-3.28,-18.03,43.85,-16.93,-1.00
25112.00,-0.12,6.23,-7.81,-0.27,0.05,-3.28,-18.03,43.85,-16.93,-1.00
25124.00,-0.11,6.21,-7.80,-0.27,0.05,-3.28,-18.42,42.88,-16.93,-1.00
25136.00,-0.11,6.21,-7.80,-0.27,0.05,-3.28,-18.42,42.88,-16.93,-1.00
25150.00,-0.12,6.20,-7.83,-0.27,0.05,-3.28,-18.42,42.88,-16.93,-1.00
25162.00,-0.12,6.20,-7.81,-0.27,0.05,-3.28,-18.42,42.88,-16.93,-1.00
25174.00,-0.12,6.20,-7.81,-0.27,0.05,-3.28,-18.42,42.88,-16.93,-1.00
25188.00,-0.11,6.20,-7.80,-0.27,0.05,-3.28,-18.42,42.88,-16.93,-1.00
25200.00,-0.12,6.23,-7.80,-0.27,0.05,-3.27,-18.42,42.88,-16.93,-1.00
25212.00,-0.12,6.23,-7.80,-0.27,0.05,-3.27,-18.42,42.88,-16.93,-1.00
25224.00,-0.11,6.23,-7.81,-0.27,0.05,-3.27,-18.42,42.88,-16.93,-1.00
25238.00,-0.12,6.22,-7.76,-0.27,0.05,-3.27,-18.61,42.71,-17.43,-1.00
25250.00,-0.12,6.22,-7.76,-0.27,0.05,-3.27,-18.61,42.71,-17.43,-1.00
25262.00,-0.11,6.25,-7.81,-0.27,0.05,-3.28,-18.61,42.71,-17.43,-1.00
25274.00,-0.11,6.25,-7.81,-0.27,0.05,-3.28,-18.61,42.71,-17.43,-1.00
25288.00,-0.14,6.25,-7.80,-0.27,0.05,-3.27,-18.61,42.71,-17.43,-1.00
25300.00,-0.12,6.22,-7.78,-0.27,0.05,-3.28,-18.61,42.71,-17.43,-1.00
25313.00,-0.12,6.22,-7.78,-0.27,0.05,-3.28,-18.61,42.71,-17.43,-1.00
25328.00,-0.11,6.23,-7.79,-0.27,0.05,-3.28,-18.61,42.71,-17.43,-1.00
25339.00,-0.12,6.21,-7.81,-0.27,0.05,-3.28,-18.61,42.71,-17.43,-1.00
25351.00,-0.12,6.21,-7.81,-0.27,0.05,-3.28,-18.61,42.71,-17.43,-1.00
25363.00,-0.12,6.21,-7.78,-0.27,0.05,-3.27,-16.46,42.23,-15.60,-1.00
25377.00,-0.11,6.23,-7.84,-0.27,0.05,-3.27,-16.46,42.23,-15.60,-1.00
25389.00,-0.11,6.23,-7.84,-0.27,0.05,-3.27,-16.46,42.23,-15.60,-1.00
25401.00,-0.11,6.21,-7.79,-0.27,0.05,-3.28,-16.46,42.23,-15.60,-1.00
