time,ax,ay,az,gx,gy,gz,mx,my,mz,pressure
223.00,-0.26,6.25,-7.70,-0.55,-0.66,0.88,10.47,13.56,-25.98,-1.00
235.00,-0.24,6.25,-7.73,-0.55,-0.66,0.88,10.47,13.56,-25.98,-1.00
247.00,-0.23,6.24,-7.72,-0.55,-0.66,0.88,10.47,13.56,-25.98,-1.00
259.00,-0.23,6.24,-7.72,-0.55,-0.66,0.88,10.47,13.56,-25.98,-1.00
272.00,-0.27,6.24,-7.75,-0.55,-0.66,0.88,9.89,14.02,-28.31,-1.00
284.00,-0.27,6.24,-7.75,-0.55,-0.66,0.88,9.89,14.02,-28.31,-1.00
296.00,-0.26,6.25,-7.72,-0.55,-0.66,0.88,9.89,14.02,-28.31,-1.00
308.00,-0.27,6.25,-7.73,-0.55,-0.66,0.88,9.89,14.02,-28.31,-1.00
321.00,-0.27,6.25,-7.73,-0.55,-0.66,0.88,9.89,14.02,-28.31,-1.00
333.00,-0.26,6.25,-7.72,-0.55,-0.66,0.88,9.89,14.02,-28.31,-1.00
345.00,-0.25,6.25,-7.72,-0.55,-0.66,0.88,9.89,14.02,-28.31,-1.00
359.00,-0.25,6.25,-7.72,-0.55,-0.66,0.88,9.89,14.02,-28.31,-1.00
370.00,-0.24,6.25,-7.74,-0.55,-0.66,0.88,9.89,14.02,-28.31,-1.00
382.00,-0.24,6.25,-7.74,-0.55,-0.66,0.88,9.89,14.02,-28.31,-1.00
394.00,-0.23,6.13,-7.68,-0.55,-0.66,0.88,8.33,14.32,-26.52,-1.00
407.00,-0.24,6.31,-7.78,-0.55,-0.66,0.88,8.33,14.32,-26.52,-1.00
419.00,-0.24,6.31,-7.78,-0.55,-0.66,0.88,8.33,14.32,-26.52,-1.00
431.00,-0.28,6.28,-7.62,-0.55,-0.65,0.88,8.33,14.32,-26.52,-1.00
443.00,-0.28,6.28,-7.62,-0.55,-0.65,0.88,8.33,14.32,-26.52,-1.00
456.00,-0.27,6.24,-7.63,-0.55,-0.66,0.88,8.33,14.32,-26.52,-1.00
468.00,-0.25,6.33,-7.82,-0.55,-0.66,0.88,8.33,14.32,-26.52,-1.00
480.00,-0.25,6.33,-7.82,-0.55,-0.66,0.88,8.33,14.32,-26.52,-1.00
492.00,-0.25,6.17,-7.76,-0.55,-0.66,0.88,8.33,14.32,-26.52,-1.00
505.00,-0.27,6.23,-7.83,-0.55,-0.66,0.88,9.11,12.50,-26.87,-1.00
517.00,-0.27,6.23,-7.83,-0.55,-0.66,0.88,9.11,12.50,-26.87,-1.00
529.00,-0.29,6.27,-7.76,-0.55,-0.66,0.88,9.11,12.50,-26.87,-1.00
541.00,-0.29,6.27,-7.76,-0.55,-0.66,0.88,9.11,12.50,-26.87,-1.00
554.00,-0.30,6.29,-7.65,-0.55,-0.65,0.88,9.11,12.50,-26.87,-1.00
566.00,-0.26,6.30,-7.72,-0.55,-0.66,0.88,9.11,12.50,-26.87,-1.00
578.00,-0.26,6.30,-7.72,-0.55,-0.66,0.88,9.11,12.50,-26.87,-1.00
590.00,-0.22,6.23,-7.74,-0.55,-0.66,0.88,9.11,12.50,-26.87,-1.00
603.00,-0.22,6.23,-7.74,-0.55,-0.66,0.88,9.11,12.50,-26.87,-1.00
615.00,-0.23,6.22,-7.72,-0.55,-0.66,0.88,9.11,12.50,-26.87,-1.00
627.00,-0.26,6.25,-7.75,-0.55,-0.66,0.88,9.50,12.81,-26.16,-1.00
639.00,-0.26,6.25,-7.75,-0.55,-0.66,0.88,9.50,12.81,-26.16,-1.00
652.00,-0.27,6.26,-7.68,-0.55,-0.66,0.88,9.50,12.81,-26.16,-1.00
664.00,-0.26,6.29,-7.75,-0.55,-0.66,0.88,9.50,12.81,-26.16,-1.00
676.00,-0.26,6.29,-7.75,-0.55,-0.66,0.88,9.50,12.81,-26.16,-1.00
688.00,-0.25,6.26,-7.72,-0.55,-0.66,0.88,9.50,12.81,-26.16,-1.00
701.00,-0.25,6.26,-7.72,-0.55,-0.66,0.88,9.50,12.81,-26.16,-1.00
713.00,-0.23,6.24,-7.74,-0.55,-0.66,0.88,9.50,12.81,-26.16,-1.00
725.00,-0.23,6.22,-7.76,-0.55,-0.66,0.88,9.50,12.81,-26.16,-1.00
738.00,-0.23,6.22,-7.76,-0.55,-0.66,0.88,9.50,12.81,-26.16,-1.00
750.00,-0.26,6.24,-7.75,-0.55,-0.66,0.88,9.50,12.81,-26.16,-1.00
762.00,-0.26,6.24,-7.75,-0.55,-0.66,0.88,9.50,12.81,-26.16,-1.00
774.00,-0.28,6.28,-7.73,-0.55,-0.66,0.88,8.72,13.41,-27.95,-1.00
788.00,-0.27,6.29,-7.71,-0.55,-0.66,0.88,8.72,13.41,-27.95,-1.00
799.00,-0.27,6.29,-7.71,-0.55,-0.66,0.88,8.72,13.41,-27.95,-1.00
811.00,-0.24,6.26,-7.69,-0.55,-0.66,0.88,8.72,13.41,-27.95,-1.00
823.00,-0.24,6.26,-7.69,-0.55,-0.66,0.88,8.72,13.41,-27.95,-1.00
836.00,-0.22,6.25,-7.75,-0.55,-0.66,0.88,8.72,13.41,-27.95,-1.00
848.00,-0.24,6.22,-7.74,-0.55,-0.66,0.88,8.72,13.41,-27.95,-1.00
860.00,-0.24,6.22,-7.74,-0.55,-0.66,0.88,8.72,13.41,-27.95,-1.00
872.00,-0.28,6.25,-7.74,-0.55,-0.66,0.88,8.72,13.41,-27.95,-1.00
885.00,-0.32,6.27,-7.74,-0.55,-0.66,0.88,8.91,12.96,-28.49,-1.00
897.00,-0.32,6.27,-7.74,-0.55,-0.66,0.88,8.91,12.96,-28.49,-1.00
909.00,-0.29,6.27,-7.75,-0.55,-0.66,0.88,8.91,12.96,-28.49,-1.00
921.00,-0.29,6.27,-7.75,-0.55,-0.66,0.88,8.91,12.96,-28.49,-1.00
934.00,-0.22,6.26,-7.70,-0.55,-0.66,0.88,8.91,12.96,-28.49,-1.00
1023.00,-0.30,6.25,-7.72,-0.55,-0.66,0.88,10.47,12.96,-27.41,-1.00
1110.00,-0.28,6.24,-7.71,-0.55,-0.65,0.88,10.47,12.96,-27.41,-1.00
1199.00,-0.22,6.25,-7.76,-0.55,-0.66,0.88,9.50,13.41,-27.95,-1.00
1212.00,-0.24,6.19,-7.74,-0.55,-0.66,0.88,9.50,13.41,-27.95,-1.00
1224.00,-0.26,6.25,-7.76,-0.55,-0.66,0.88,9.50,13.41,-27.95,-1.00
1236.00,-0.26,6.25,-7.76,-0.55,-0.66,0.88,9.50,13.41,-27.95,-1.00
1248.00,-0.28,6.27,-7.70,-0.55,-0.65,0.88,9.69,13.26,-25.26,-1.00
1261.00,-0.28,6.27,-7.70,-0.55,-0.65,0.88,9.69,13.26,-25.26,-1.00
1273.00,-1.09,6.58,-7.47,-0.57,-0.61,0.81,9.69,13.26,-25.26,-1.00
1285.00,-0.01,6.36,-7.70,-0.57,-0.04,0.13,9.69,13.26,-25.26,-1.00
1299.00,-0.01,6.36,-7.70,-0.57,-0.04,0.13,9.69,13.26,-25.26,-1.00
1310.00,-0.06,6.12,-7.87,-0.58,-0.11,0.21,9.69,13.26,-25.26,-1.00
1322.00,-0.06,6.12,-7.87,-0.58,-0.11,0.21,9.69,13.26,-25.26,-1.00
1334.00,-0.51,5.46,-8.25,-0.60,-0.82,0.61,9.69,13.26,-25.26,-1.00
1347.00,-0.68,7.73,-9.70,-2.23,-1.56,0.82,9.69,13.26,-25.26,-1.00
1359.00,-0.68,7.73,-9.70,-2.23,-1.56,0.82,9.69,13.26,-25.26,-1.00
1371.00,-0.12,8.70,-7.84,-0.84,-1.02,1.22,9.69,13.26,-25.26,-1.00
1383.00,-1.55,9.02,-6.26,3.06,-0.33,1.29,8.13,15.08,-25.26,-1.00
1396.00,-1.55,9.02,-6.26,3.06,-0.33,1.29,8.13,15.08,-25.26,-1.00
1408.00,-0.37,7.00,-8.20,4.66,-0.29,1.00,8.13,15.08,-25.26,-1.00
1420.00,-0.37,7.00,-8.20,4.66,-0.29,1.00,8.13,15.08,-25.26,-1.00
1432.00,-0.30,5.28,-8.98,5.37,-0.21,0.85,8.13,15.08,-25.26,-1.00
1445.00,-0.38,2.30,-7.65,6.10,-0.02,0.81,8.13,15.08,-25.26,-1.00
1457.00,-0.38,2.30,-7.65,6.10,-0.02,0.81,8.13,15.08,-25.26,-1.00
1469.00,0.57,-2.95,-8.14,4.69,0.34,0.93,8.13,15.08,-25.26,-1.00
1481.00,0.57,-2.95,-8.14,4.69,0.34,0.93,8.13,15.08,-25.26,-1.00
1494.00,3.80,-4.82,-11.18,1.61,0.48,1.89,8.13,15.08,-25.26,-1.00
1506.00,0.39,4.22,-14.72,-0.32,-0.12,2.76,15.54,-11.00,-33.87,-1.00
1518.00,0.39,4.22,-14.72,-0.32,-0.12,2.76,15.54,-11.00,-33.87,-1.00
1530.00,-2.78,9.31,-15.63,0.48,-0.60,2.13,15.54,-11.00,-33.87,-1.00
1543.00,-1.37,5.91,-16.70,2.19,-0.88,0.51,15.54,-11.00,-33.87,-1.00
1555.00,-1.37,5.91,-16.70,2.19,-0.88,0.51,15.54,-11.00,-33.87,-1.00
1567.00,0.01,-0.85,-13.07,3.22,-1.73,-0.22,15.54,-11.00,-33.87,-1.00
1581.00,0.01,-0.85,-13.07,3.22,-1.73,-0.22,15.54,-11.00,-33.87,-1.00
1592.00,-0.91,0.01,-10.48,3.04,-2.38,0.30,15.54,-11.00,-33.87,-1.00
1604.00,-2.60,0.21,-10.23,3.27,-2.37,0.54,15.54,-11.00,-33.87,-1.00
1616.00,-2.60,0.21,-10.23,3.27,-2.37,0.54,15.54,-11.00,-33.87,-1.00
1629.00,-3.52,-3.50,-12.73,4.12,-2.06,0.34,13.01,-26.01,-30.82,-1.00
1641.00,-3.52,-3.50,-12.73,4.12,-2.06,0.34,13.01,-26.01,-30.82,-1.00
1653.00,-2.12,-6.31,-17.47,4.72,-2.30,0.33,13.01,-26.01,-30.82,-1.00
1665.00,0.06,-7.60,-15.40,5.78,-3.57,0.82,13.01,-26.01,-30.82,-1.00
1678.00,0.06,-7.60,-15.40,5.78,-3.57,0.82,13.01,-26.01,-30.82,-1.00
1690.00,0.33,-5.92,-8.72,5.15,-4.98,1.49,13.01,-26.01,-30.82,-1.00
1702.00,0.33,-5.92,-8.72,5.15,-4.98,1.49,13.01,-26.01,-30.82,-1.00
1715.00,1.05,0.73,-7.36,2.85,-5.64,1.87,13.01,-26.01,-30.82,-1.00
1727.00,0.65,1.60,-4.23,1.37,-5.87,1.74,13.01,-26.01,-30.82,-1.00
1739.00,0.65,1.60,-4.23,1.37,-5.87,1.74,13.01,-26.01,-30.82,-1.00
1751.00,-2.96,-3.74,-2.03,1.89,-5.94,1.52,-5.32,-43.29,-14.31,-1.00
1765.00,-4.35,-8.76,1.85,5.23,-5.19,1.99,-5.32,-43.29,-14.31,-1.00
1776.00,-4.35,-8.76,1.85,5.23,-5.19,1.99,-5.32,-43.29,-14.31,-1.00
1788.00,-5.07,-2.69,-1.30,6.80,-4.25,2.58,-5.32,-43.29,-14.31,-1.00
1800.00,-5.07,-2.69,-1.30,6.80,-4.25,2.58,-5.32,-43.29,-14.31,-1.00
1813.00,-6.38,-1.23,-1.83,4.61,-4.52,2.02,-5.32,-43.29,-14.31,-1.00
1825.00,-1.32,-1.98,-2.09,0.96,-4.88,1.22,-5.32,-43.29,-14.31,-1.00
1837.00,-1.32,-1.98,-2.09,0.96,-4.88,1.22,-5.32,-43.29,-14.31,-1.00
1849.00,-0.35,-7.98,2.96,0.51,-4.70,1.34,-5.32,-43.29,-14.31,-1.00
1862.00,-3.77,-10.63,4.03,0.53,-3.86,2.19,-5.32,-43.29,-14.31,-1.00
1874.00,-3.77,-10.63,4.03,0.53,-3.86,2.19,-17.81,-49.05,17.64,-1.00
1886.00,-6.14,-7.92,-3.17,0.09,-3.49,2.70,-17.81,-49.05,17.64,-1.00
1900.00,-6.14,-7.92,-3.17,0.09,-3.49,2.70,-17.81,-49.05,17.64,-1.00
1912.00,-4.58,-5.00,-5.96,1.15,-4.32,2.77,-17.81,-49.05,17.64,-1.00
1924.00,-1.79,-3.69,-1.41,3.67,-4.97,2.91,-17.81,-49.05,17.64,-1.00
1936.00,-1.79,-3.69,-1.41,3.67,-4.97,2.91,-17.81,-49.05,17.64,-1.00
1949.00,1.85,-4.43,5.59,3.94,-4.52,2.92,-17.81,-49.05,17.64,-1.00
1961.00,1.85,-4.43,5.59,3.94,-4.52,2.92,-17.81,-49.05,17.64,-1.00
1973.00,-1.42,-2.47,3.74,1.26,-3.52,2.54,-17.81,-49.05,17.64,-1.00
1985.00,-6.95,-3.74,6.55,0.93,-2.85,2.03,-17.81,-49.05,17.64,-1.00
1998.00,-6.95,-3.74,6.55,0.93,-2.85,2.03,-17.81,-49.05,17.64,-1.00
2010.00,-10.23,-5.33,8.28,1.28,-2.15,1.63,-17.81,-49.05,17.64,-1.00
2022.00,-6.91,-5.51,2.96,1.42,-1.61,1.65,-17.81,-49.05,17.64,-1.00
2034.00,-6.91,-5.51,2.96,1.42,-1.61,1.65,-17.81,-49.05,17.64,-1.00
2048.00,-5.79,-2.21,4.34,1.76,-1.68,2.13,-17.81,-49.05,17.64,-1.00
2060.00,-5.79,-2.21,4.34,1.76,-1.68,2.13,-17.81,-49.05,17.64,-1.00
2072.00,-7.84,-1.68,8.61,1.20,-1.47,2.14,-17.81,-49.05,17.64,-1.00
2085.00,-9.24,-1.37,6.52,-0.20,-0.86,1.60,-17.81,-49.05,17.64,-1.00
2097.00,-9.24,-1.37,6.52,-0.20,-0.86,1.60,-17.81,-49.05,17.64,-1.00
2109.00,-9.39,-4.82,3.91,-0.85,-0.81,1.01,-17.81,-49.05,17.64,-1.00
2121.00,-9.39,-4.82,3.91,-0.85,-0.81,1.01,-17.81,-49.05,17.64,-1.00
2134.00,-6.98,-5.53,4.75,-0.55,-1.26,1.19,-25.61,-32.37,52.81,-1.00
2146.00,-6.28,-4.25,7.80,-0.10,-1.29,1.86,-25.61,-32.37,52.81,-1.00
2158.00,-6.28,-4.25,7.80,-0.10,-1.29,1.86,-25.61,-32.37,52.81,-1.00
2170.00,-7.32,-4.02,7.34,0.18,-0.95,2.02,-25.61,-32.37,52.81,-1.00
2183.00,-10.32,-3.80,7.19,0.72,-0.93,1.92,-25.61,-32.37,52.81,-1.00
2195.00,-10.32,-3.80,7.19,0.72,-0.93,1.92,-25.61,-32.37,52.81,-1.00
2207.00,-10.89,-1.90,9.35,0.75,-1.06,1.79,-25.61,-32.37,52.81,-1.00
2219.00,-10.89,-1.90,9.35,0.75,-1.06,1.79,-25.61,-32.37,52.81,-1.00
2232.00,-9.57,-1.41,9.25,0.31,-0.83,1.52,-25.61,-32.37,52.81,-1.00
2244.00,-7.74,-1.56,6.35,0.22,-0.50,1.49,-26.78,-26.92,54.97,-1.00
2256.00,-7.74,-1.56,6.35,0.22,-0.50,1.49,-26.78,-26.92,54.97,-1.00
2269.00,-6.32,0.08,4.79,0.22,-0.55,1.50,-26.78,-26.92,54.97,-1.00
2281.00,-6.32,0.08,4.79,0.22,-0.55,1.50,-26.78,-26.92,54.97,-1.00
2293.00,-7.45,-0.91,5.49,-0.05,-0.84,1.11,-26.78,-26.92,54.97,-1.00
2305.00,-7.59,-3.91,6.10,-0.56,-1.16,0.92,-26.78,-26.92,54.97,-1.00
2319.00,-7.59,-3.91,6.10,-0.56,-1.16,0.92,-26.78,-26.92,54.97,-1.00
2330.00,-7.93,-1.87,6.35,-0.18,-1.14,1.60,-26.78,-26.92,54.97,-1.00
2342.00,-7.95,0.88,9.08,0.27,-0.98,1.71,-26.78,-26.92,54.97,-1.00
2354.00,-7.95,0.88,9.08,0.27,-0.98,1.71,-26.78,-26.92,54.97,-1.00
2367.00,-7.42,-0.35,8.75,-0.03,-0.72,0.99,-29.51,-22.67,57.84,-1.00
2379.00,-7.42,-0.35,8.75,-0.03,-0.72,0.99,-29.51,-22.67,57.84,-1.00
2391.00,-7.53,-2.96,6.57,-0.49,-0.58,0.56,-29.51,-22.67,57.84,-1.00
2403.00,-7.40,-2.82,6.53,-0.53,-0.73,0.79,-29.51,-22.67,57.84,-1.00
2416.00,-7.40,-2.82,6.53,-0.53,-0.73,0.79,-29.51,-22.67,57.84,-1.00
2428.00,-7.52,-1.61,7.51,-0.44,-0.85,1.05,-29.51,-22.67,57.84,-1.00
2440.00,-7.52,-1.61,7.51,-0.44,-0.85,1.05,-29.51,-22.67,57.84,-1.00
2454.00,-6.92,-1.11,7.37,-0.43,-0.79,1.04,-29.51,-22.67,57.84,-1.00
2466.00,-5.93,-0.86,6.80,-0.46,-0.69,0.94,-29.51,-22.67,57.84,-1.00
2478.00,-5.93,-0.86,6.80,-0.46,-0.69,0.94,-29.51,-22.67,57.84,-1.00
2490.00,-6.60,-1.17,6.90,-0.47,-0.57,0.89,-27.56,-22.06,57.48,-1.00
2503.00,-7.30,-1.30,6.87,-0.45,-0.53,0.97,-27.56,-22.06,57.48,-1.00
2515.00,-7.30,-1.30,6.87,-0.45,-0.53,0.97,-27.56,-22.06,57.48,-1.00
2527.00,-7.58,-0.55,7.24,-0.29,-0.61,1.09,-27.56,-22.06,57.48,-1.00
2539.00,-7.58,-0.55,7.24,-0.29,-0.61,1.09,-27.56,-22.06,57.48,-1.00
2552.00,-7.48,-0.44,7.10,-0.26,-0.71,1.02,-27.56,-22.06,57.48,-1.00
2564.00,-6.72,-0.97,6.49,-0.31,-0.73,0.91,-27.56,-22.06,57.48,-1.00
2576.00,-6.72,-0.97,6.49,-0.31,-0.73,0.91,-27.56,-22.06,57.48,-1.00
2590.00,-6.89,-1.35,6.24,-0.26,-0.65,0.95,-27.56,-22.06,57.48,-1.00
2677.00,-6.73,-0.24,6.83,-0.51,-0.77,1.07,-26.97,-20.09,60.17,-1.00
2765.00,-7.29,0.22,7.32,-0.37,-0.50,1.14,-28.73,-20.24,57.84,-1.00
2853.00,-8.13,-0.79,6.74,-0.53,-0.64,1.06,-28.73,-20.24,57.84,-1.00
2867.00,-7.88,0.26,6.25,-0.54,-0.70,1.18,-29.31,-19.49,56.58,-1.00
2879.00,-7.88,0.26,6.25,-0.54,-0.70,1.18,-29.31,-19.49,56.58,-1.00
2891.00,-7.37,0.44,6.38,-0.69,-0.79,1.05,-29.31,-19.49,56.58,-1.00
2903.00,-6.52,-0.17,6.76,-0.86,-0.79,0.81,-29.31,-19.49,56.58,-1.00
2917.00,-6.52,-0.17,6.76,-0.86,-0.79,0.81,-29.31,-19.49,56.58,-1.00
2928.00,-6.42,-1.45,6.66,-0.89,-0.72,0.75,-29.31,-19.49,56.58,-1.00
2941.00,-6.42,-1.45,6.66,-0.89,-0.72,0.75,-29.31,-19.49,56.58,-1.00
2952.00,-7.14,-1.56,7.11,-0.71,-0.68,0.93,-29.31,-19.49,56.58,-1.00
2965.00,-7.71,-1.23,7.30,-0.64,-0.67,1.02,-29.31,-19.49,56.58,-1.00
2977.00,-7.71,-1.23,7.30,-0.64,-0.67,1.02,-29.31,-19.49,56.58,-1.00
2989.00,-7.41,-1.18,6.85,-0.64,-0.69,1.00,-29.31,-19.79,57.30,-1.00
3002.00,-7.04,-0.59,6.67,-0.60,-0.71,1.05,-29.31,-19.79,57.30,-1.00
3014.00,-7.04,-0.59,6.67,-0.60,-0.71,1.05,-29.31,-19.79,57.30,-1.00
3026.00,-6.98,-0.34,6.78,-0.60,-0.68,1.07,-29.31,-19.79,57.30,-1.00
3038.00,-6.98,-0.34,6.78,-0.60,-0.68,1.07,-29.31,-19.79,57.30,-1.00
3051.00,-7.11,-0.13,6.61,-0.56,-0.62,1.06,-29.31,-19.79,57.30,-1.00
3063.00,-7.30,-0.40,6.78,-0.58,-0.65,1.00,-29.31,-19.79,57.30,-1.00
3075.00,-7.30,-0.40,6.78,-0.58,-0.65,1.00,-29.31,-19.79,57.30,-1.00
3087.00,-7.52,-0.66,6.86,-0.64,-0.69,0.96,-29.31,-19.79,57.30,-1.00
3102.00,-7.46,-0.40,6.71,-0.67,-0.72,0.99,-29.70,-19.49,59.45,-1.00
3113.00,-7.46,-0.40,6.71,-0.67,-0.72,0.99,-29.70,-19.49,59.45,-1.00
3125.00,-7.01,-0.14,6.70,-0.69,-0.74,1.00,-29.70,-19.49,59.45,-1.00
3138.00,-7.01,-0.14,6.70,-0.69,-0.74,1.00,-29.70,-19.49,59.45,-1.00
3150.00,-6.61,-0.30,6.94,-0.70,-0.75,0.93,-29.70,-19.49,59.45,-1.00
3162.00,-6.52,-0.42,7.08,-0.64,-0.72,0.87,-29.70,-19.49,59.45,-1.00
3174.00,-6.52,-0.42,7.08,-0.64,-0.72,0.87,-29.70,-19.49,59.45,-1.00
3187.00,-7.06,-0.82,7.37,-0.59,-0.67,0.83,-29.70,-19.49,59.45,-1.00
3199.00,-7.06,-0.82,7.37,-0.59,-0.67,0.83,-29.70,-19.49,59.45,-1.00
3211.00,-7.67,-1.41,7.26,-0.58,-0.64,0.85,-29.70,-19.49,59.45,-1.00
3223.00,-7.72,-0.99,7.13,-0.58,-0.68,0.95,-27.95,-19.34,58.92,-1.00
3237.00,-7.72,-0.99,7.13,-0.58,-0.68,0.95,-27.95,-19.34,58.92,-1.00
3249.00,-7.10,-0.45,6.55,-0.62,-0.70,0.97,-27.95,-19.34,58.92,-1.00
3261.00,-6.70,-0.36,6.66,-0.64,-0.71,0.93,-27.95,-19.34,58.92,-1.00
3274.00,-6.70,-0.36,6.66,-0.64,-0.71,0.93,-27.95,-19.34,58.92,-1.00
3286.00,-6.77,-0.60,6.86,-0.56,-0.63,0.94,-27.95,-19.34,58.92,-1.00
3298.00,-6.77,-0.60,6.86,-0.56,-0.63,0.94,-27.95,-19.34,58.92,-1.00
3310.00,-7.54,-1.08,6.94,-0.56,-0.58,0.97,-27.95,-19.34,58.92,-1.00
3323.00,-7.80,-1.08,7.48,-0.62,-0.66,1.03,-27.95,-19.34,58.92,-1.00
3335.00,-7.80,-1.08,7.48,-0.62,-0.66,1.03,-27.95,-19.34,58.92,-1.00
3347.00,-7.42,-0.32,7.39,-0.63,-0.70,1.08,-27.95,-19.34,58.92,-1.00
3359.00,-7.42,-0.32,7.39,-0.63,-0.70,1.08,-27.95,-19.34,58.92,-1.00
3373.00,-6.74,-0.04,6.60,-0.71,-0.72,0.97,-27.75,-19.18,59.45,-1.00
3384.00,-6.34,-0.46,6.59,-0.77,-0.73,0.81,-27.75,-19.18,59.45,-1.00
3397.00,-6.34,-0.46,6.59,-0.77,-0.73,0.81,-27.75,-19.18,59.45,-1.00
3409.00,-6.79,-1.02,6.63,-0.63,-0.64,0.78,-27.75,-19.18,59.45,-1.00
3422.00,-7.49,-1.26,6.73,-0.52,-0.59,0.86,-27.75,-19.18,59.45,-1.00
3434.00,-7.49,-1.26,6.73,-0.52,-0.59,0.86,-27.75,-19.18,59.45,-1.00
3446.00,-7.62,-0.88,6.87,-0.48,-0.62,0.94,-27.75,-19.18,59.45,-1.00
3459.00,-7.62,-0.88,6.87,-0.48,-0.62,0.94,-27.75,-19.18,59.45,-1.00
3471.00,-7.27,-0.55,6.60,-0.51,-0.62,0.99,-27.75,-19.18,59.45,-1.00
3483.00,-7.19,-0.45,6.74,-0.54,-0.66,1.00,-29.70,-19.79,59.81,-1.00
3495.00,-7.19,-0.45,6.74,-0.54,-0.66,1.00,-29.70,-19.79,59.81,-1.00
3508.00,-7.03,-0.23,6.97,-0.51,-0.70,1.02,-29.70,-19.79,59.81,-1.00
3597.00,-6.88,-0.96,7.21,-0.86,-0.78,1.04,-29.70,-19.79,59.81,-1.00
3684.00,-7.19,-0.48,6.40,-0.35,-0.60,0.93,-29.51,-20.55,58.20,-1.00
3773.00,-7.23,0.56,6.59,0.69,-0.97,1.02,-30.09,-18.58,58.02,-1.00
3786.00,-6.33,0.57,7.35,1.05,-1.00,0.88,-30.09,-18.58,58.02,-1.00
3798.00,-6.33,0.57,7.35,1.05,-1.00,0.88,-30.09,-18.58,58.02,-1.00
3810.00,-6.92,0.19,5.97,1.15,-1.05,0.77,-30.09,-18.58,58.02,-1.00
3822.00,-6.86,0.74,6.78,1.42,-1.23,0.90,-30.09,-18.58,58.02,-1.00
3835.00,-6.86,0.74,6.78,1.42,-1.23,0.90,-30.09,-18.58,58.02,-1.00
3847.00,-6.64,1.99,7.94,1.41,-1.35,0.92,-27.56,-11.45,59.99,-1.00
3859.00,-6.64,1.99,7.94,1.41,-1.35,0.92,-27.56,-11.45,59.99,-1.00
3873.00,-6.28,2.04,9.20,1.27,-1.24,0.64,-27.56,-11.45,59.99,-1.00
3884.00,-6.21,1.12,8.89,0.50,-1.10,0.32,-27.56,-11.45,59.99,-1.00
3896.00,-6.21,1.12,8.89,0.50,-1.10,0.32,-27.56,-11.45,59.99,-1.00
3908.00,-6.32,0.40,8.17,-0.09,-1.00,0.35,-27.56,-11.45,59.99,-1.00
3921.00,-6.62,1.10,8.41,0.24,-0.81,0.70,-27.56,-11.45,59.99,-1.00
3933.00,-6.62,1.10,8.41,0.24,-0.81,0.70,-27.56,-11.45,59.99,-1.00
3945.00,-7.22,2.17,8.69,0.61,-0.57,0.85,-27.56,-11.45,59.99,-1.00
3957.00,-7.22,2.17,8.69,0.61,-0.57,0.85,-27.56,-11.45,59.99,-1.00
3970.00,-6.30,1.32,8.75,0.52,-0.53,0.64,-26.19,-6.75,61.25,-1.00
3982.00,-6.34,2.20,8.44,0.72,-0.70,0.68,-26.19,-6.75,61.25,-1.00
3994.00,-6.34,2.20,8.44,0.72,-0.70,0.68,-26.19,-6.75,61.25,-1.00
4006.00,-6.96,3.09,9.32,1.05,-1.00,0.88,-26.19,-6.75,61.25,-1.00
4019.00,-7.08,4.27,9.81,1.15,-0.84,0.89,-26.19,-6.75,61.25,-1.00
4031.00,-7.08,4.27,9.81,1.15,-0.84,0.89,-26.19,-6.75,61.25,-1.00
4043.00,-5.29,3.72,8.29,1.05,-0.39,0.70,-26.19,-6.75,61.25,-1.00
4055.00,-5.29,3.72,8.29,1.05,-0.39,0.70,-26.19,-6.75,61.25,-1.00
4068.00,-3.88,4.21,7.11,0.63,-0.23,0.50,-26.19,-6.75,61.25,-1.00
4080.00,-4.49,2.77,5.68,0.83,-0.17,0.40,-26.19,-6.75,61.25,-1.00
4092.00,-4.49,2.77,5.68,0.83,-0.17,0.40,-26.19,-6.75,61.25,-1.00
4104.00,-5.66,2.89,5.91,1.12,-0.23,0.62,-27.36,-2.51,58.74,-1.00
4117.00,-5.66,2.89,5.91,1.12,-0.23,0.62,-27.36,-2.51,58.74,-1.00
4129.00,-5.18,3.95,6.14,1.16,-0.25,0.70,-27.36,-2.51,58.74,-1.00
4141.00,-5.61,3.38,6.43,0.86,-0.21,0.34,-27.36,-2.51,58.74,-1.00
4153.00,-5.61,3.38,6.43,0.86,-0.21,0.34,-27.36,-2.51,58.74,-1.00
4167.00,-6.68,2.62,5.48,0.60,-0.13,0.02,-27.36,-2.51,58.74,-1.00
4179.00,-7.35,1.72,4.36,0.37,-0.02,0.10,-27.36,-2.51,58.74,-1.00
4191.00,-7.35,1.72,4.36,0.37,-0.02,0.10,-27.36,-2.51,58.74,-1.00
4204.00,-7.24,2.49,4.89,0.12,-0.15,0.32,-27.36,-2.51,58.74,-1.00
4216.00,-7.24,2.49,4.89,0.12,-0.15,0.32,-27.36,-2.51,58.74,-1.00
4228.00,-6.60,2.43,6.29,-0.02,-0.41,0.27,-31.26,0.83,55.15,-1.00
4240.00,-6.40,2.28,6.56,-0.12,-0.51,0.11,-31.26,0.83,55.15,-1.00
4253.00,-6.40,2.28,6.56,-0.12,-0.51,0.11,-31.26,0.83,55.15,-1.00
4265.00,-6.27,1.70,6.11,-0.86,-0.64,-0.20,-31.26,0.83,55.15,-1.00
4277.00,-6.27,1.70,6.11,-0.86,-0.64,-0.20,-31.26,0.83,55.15,-1.00
4289.00,-6.94,-1.05,6.92,-1.88,-0.67,-0.32,-31.26,0.83,55.15,-1.00
4303.00,-8.58,-0.17,3.59,-2.89,-0.45,0.14,-31.26,0.83,55.15,-1.00
4314.00,-8.58,-0.17,3.59,-2.89,-0.45,0.14,-31.26,0.83,55.15,-1.00
4326.00,-8.58,2.76,4.86,-0.73,0.00,0.78,-31.26,0.83,55.15,-1.00
4338.00,-8.58,2.76,4.86,-0.73,0.00,0.78,-31.26,0.83,55.15,-1.00
4351.00,-9.36,3.54,6.03,0.27,0.15,0.49,-32.24,-2.96,54.97,-1.00
4363.00,-9.73,3.15,4.96,0.28,-0.05,0.15,-32.24,-2.96,54.97,-1.00
4375.00,-9.73,3.15,4.96,0.28,-0.05,0.15,-32.24,-2.96,54.97,-1.00
4387.00,-9.92,3.17,6.40,0.45,-0.17,0.26,-32.24,-2.96,54.97,-1.00
4400.00,-9.52,3.56,5.92,0.38,-0.03,0.29,-32.24,-2.96,54.97,-1.00
4412.00,-9.52,3.56,5.92,0.38,-0.03,0.29,-32.24,-2.96,54.97,-1.00
4424.00,-9.22,2.48,3.95,-0.01,-0.03,0.24,-32.24,-2.96,54.97,-1.00
4436.00,-9.22,2.48,3.95,-0.01,-0.03,0.24,-32.24,-2.96,54.97,-1.00
4450.00,-9.51,2.35,3.63,-0.33,-0.24,0.44,-32.24,-2.96,54.97,-1.00
4462.00,-9.19,2.73,3.17,-0.50,-0.42,0.55,-34.58,-2.96,52.10,-1.00
4474.00,-9.19,2.73,3.17,-0.50,-0.42,0.55,-34.58,-2.96,52.10,-1.00
4486.00,-8.60,1.99,4.24,-0.82,-0.84,0.50,-34.58,-2.96,52.10,-1.00
4499.00,-8.11,2.04,6.30,-0.95,-1.07,0.64,-34.58,-2.96,52.10,-1.00
4511.00,-8.11,2.04,6.30,-0.95,-1.07,0.64,-34.58,-2.96,52.10,-1.00
4523.00,-7.85,2.63,7.24,-0.89,-0.87,0.73,-34.58,-2.96,52.10,-1.00
4536.00,-7.85,2.63,7.24,-0.89,-0.87,0.73,-34.58,-2.96,52.10,-1.00
4548.00,-7.96,2.08,5.98,-0.88,-0.65,0.58,-34.58,-2.96,52.10,-1.00
4560.00,-7.62,1.65,4.76,-0.81,-0.59,0.69,-34.58,-2.96,52.10,-1.00
4572.00,-7.62,1.65,4.76,-0.81,-0.59,0.69,-34.58,-2.96,52.10,-1.00
4586.00,-7.98,1.98,4.60,-0.63,-0.60,0.89,-36.14,-5.69,53.53,-1.00
4597.00,-7.98,1.98,4.60,-0.63,-0.60,0.89,-36.14,-5.69,53.53,-1.00
4609.00,-8.10,1.84,5.41,-0.49,-0.70,0.91,-36.14,-5.69,53.53,-1.00
4621.00,-8.21,1.45,5.82,-0.36,-0.67,0.89,-36.14,-5.69,53.53,-1.00
4634.00,-8.21,1.45,5.82,-0.36,-0.67,0.89,-36.14,-5.69,53.53,-1.00
4646.00,-8.17,1.74,5.93,-0.24,-0.57,0.92,-36.14,-5.69,53.53,-1.00
4658.00,-8.17,1.74,5.93,-0.24,-0.57,0.92,-36.14,-5.69,53.53,-1.00
4670.00,-8.15,1.94,5.61,-0.29,-0.49,0.87,-36.14,-5.69,53.53,-1.00
4683.00,-8.65,2.26,4.67,-0.29,-0.41,0.86,-36.14,-5.69,53.53,-1.00
4695.00,-8.65,2.26,4.67,-0.29,-0.41,0.86,-36.14,-5.69,53.53,-1.00
4707.00,-8.20,2.07,5.03,-0.32,-0.60,0.86,-36.14,-5.69,53.53,-1.00
4719.00,-8.08,2.03,5.83,-0.32,-0.74,0.85,-34.77,-2.81,51.56,-1.00
4733.00,-8.08,2.03,5.83,-0.32,-0.74,0.85,-34.77,-2.81,51.56,-1.00
4744.00,-8.33,2.23,5.45,-0.35,-0.65,0.78,-34.77,-2.81,51.56,-1.00
4756.00,-8.33,2.23,5.45,-0.35,-0.65,0.78,-34.77,-2.81,51.56,-1.00
4769.00,-8.66,1.84,4.84,-0.36,-0.56,0.73,-34.77,-2.81,51.56,-1.00
4781.00,-8.91,2.18,4.27,-0.37,-0.49,0.84,-34.77,-2.81,51.56,-1.00
4793.00,-8.91,2.18,4.27,-0.37,-0.49,0.84,-34.77,-2.81,51.56,-1.00
4805.00,-8.63,2.46,4.67,-0.45,-0.52,0.93,-34.77,-2.81,51.56,-1.00
4818.00,-8.13,2.17,5.40,-0.46,-0.61,0.87,-34.77,-2.81,51.56,-1.00
4830.00,-8.13,2.17,5.40,-0.46,-0.61,0.87,-34.77,-2.81,51.56,-1.00
4842.00,-7.90,1.87,5.99,-0.37,-0.56,0.83,-34.77,-3.11,51.92,-1.00
4854.00,-7.90,1.87,5.99,-0.37,-0.56,0.83,-34.77,-3.11,51.92,-1.00
4868.00,-8.04,1.88,5.83,-0.20,-0.29,0.87,-34.77,-3.11,51.92,-1.00
4880.00,-8.34,2.15,5.29,-0.02,-0.05,0.91,-34.77,-3.11,51.92,-1.00
4892.00,-8.34,2.15,5.29,-0.02,-0.05,0.91,-34.77,-3.11,51.92,-1.00
4904.00,-8.45,2.37,4.17,0.04,-0.03,0.87,-34.77,-3.11,51.92,-1.00
4917.00,-8.45,2.37,4.17,0.04,-0.03,0.87,-34.77,-3.11,51.92,-1.00
4929.00,-9.30,1.44,3.82,0.02,-0.28,0.82,-34.77,-3.11,51.92,-1.00
4941.00,-9.00,3.13,4.36,-0.30,-0.57,0.91,-34.77,-3.11,51.92,-1.00
4953.00,-9.00,3.13,4.36,-0.30,-0.57,0.91,-34.77,-3.11,51.92,-1.00
4966.00,-8.75,2.10,3.95,-0.46,-0.58,0.87,-35.55,-2.20,50.12,-1.00
4978.00,-8.58,2.34,4.39,-0.55,-0.60,0.95,-35.55,-2.20,50.12,-1.00
4990.00,-8.58,2.34,4.39,-0.55,-0.60,0.95,-35.55,-2.20,50.12,-1.00
5002.00,-8.70,2.60,4.69,-0.58,-0.63,0.93,-35.55,-2.20,50.12,-1.00
5016.00,-8.70,2.60,4.69,-0.58,-0.63,0.93,-35.55,-2.20,50.12,-1.00
5027.00,-8.54,2.11,4.39,-0.50,-0.64,0.87,-35.55,-2.20,50.12,-1.00
5039.00,-8.83,2.66,4.56,-0.43,-0.66,0.86,-35.55,-2.20,50.12,-1.00
5053.00,-8.83,2.66,4.56,-0.43,-0.66,0.86,-35.55,-2.20,50.12,-1.00
5065.00,-8.69,2.36,4.26,-0.52,-0.72,0.69,-35.55,-2.20,50.12,-1.00
5077.00,-8.69,2.36,4.26,-0.52,-0.72,0.69,-35.55,-2.20,50.12,-1.00
5089.00,-8.67,2.60,4.80,-0.54,-0.80,0.60,-36.53,-3.26,49.58,-1.00
5102.00,-8.55,1.81,4.96,-0.59,-0.77,0.56,-36.53,-3.26,49.58,-1.00
5114.00,-8.55,1.81,4.96,-0.59,-0.77,0.56,-36.53,-3.26,49.58,-1.00
5126.00,-8.88,2.79,4.62,-0.64,-0.70,0.59,-36.53,-3.26,49.58,-1.00
5138.00,-8.98,2.75,4.37,-0.75,-0.73,0.50,-36.53,-3.26,49.58,-1.00
5151.00,-8.98,2.75,4.37,-0.75,-0.73,0.50,-36.53,-3.26,49.58,-1.00
5163.00,-8.92,1.93,3.91,-0.79,-0.69,0.41,-36.53,-3.26,49.58,-1.00
5175.00,-8.92,1.93,3.91,-0.79,-0.69,0.41,-36.53,-3.26,49.58,-1.00
5187.00,-9.07,2.07,4.59,-0.56,-0.62,0.44,-36.53,-3.26,49.58,-1.00
5202.00,-9.21,2.29,3.47,-0.41,-0.42,0.50,-37.31,-4.17,50.30,-1.00
5288.00,-8.64,1.98,4.25,-0.76,-0.42,0.96,-37.31,-4.17,50.30,-1.00
5377.00,-8.24,1.82,4.53,-0.83,-0.46,1.29,-36.53,-4.17,49.58,-1.00
5464.00,-8.55,1.53,4.70,-0.43,-0.62,1.33,-37.11,-3.72,47.61,-1.00
5478.00,-8.82,1.97,4.76,-0.28,-0.66,1.31,-37.11,-3.72,47.61,-1.00
5489.00,-8.82,1.97,4.76,-0.28,-0.66,1.31,-37.11,-3.72,47.61,-1.00
5501.00,-8.97,2.06,4.79,-0.42,-0.68,1.18,-37.11,-3.72,47.61,-1.00
5515.00,-8.97,2.06,4.79,-0.42,-0.68,1.18,-37.11,-3.72,47.61,-1.00
5526.00,-8.82,1.84,4.53,-0.49,-0.63,1.07,-37.11,-3.72,47.61,-1.00
5538.00,-8.78,2.31,4.69,-0.52,-0.62,1.04,-37.11,-3.72,47.61,-1.00
5550.00,-8.78,2.31,4.69,-0.52,-0.62,1.04,-37.11,-3.72,47.61,-1.00
5563.00,-8.50,2.18,3.88,-0.36,-0.61,1.03,-37.11,-3.72,47.61,-1.00
5575.00,-8.50,2.18,3.88,-0.36,-0.61,1.03,-37.11,-3.72,47.61,-1.00
5587.00,-8.79,2.61,4.17,-0.28,-0.70,0.97,-37.50,-2.20,47.61,-1.00
5599.00,-8.92,2.54,4.75,-0.47,-0.76,0.81,-37.50,-2.20,47.61,-1.00
5612.00,-8.92,2.54,4.75,-0.47,-0.76,0.81,-37.50,-2.20,47.61,-1.00
5624.00,-8.69,2.22,4.14,-0.54,-0.72,0.75,-37.50,-2.20,47.61,-1.00
5636.00,-8.69,2.22,4.14,-0.54,-0.72,0.75,-37.50,-2.20,47.61,-1.00
5648.00,-8.58,2.18,4.13,-0.44,-0.69,0.79,-37.50,-2.20,47.61,-1.00
5663.00,-8.44,2.52,4.26,-0.34,-0.75,0.76,-37.50,-2.20,47.61,-1.00
5674.00,-8.44,2.52,4.26,-0.34,-0.75,0.76,-37.50,-2.20,47.61,-1.00
5686.00,-8.85,2.52,4.16,-0.35,-0.86,0.67,-37.50,-2.20,47.61,-1.00
5698.00,-8.66,2.06,4.66,-0.41,-0.92,0.53,-37.50,-2.81,47.25,-1.00
5711.00,-8.66,2.06,4.66,-0.41,-0.92,0.53,-37.50,-2.81,47.25,-1.00
5723.00,-8.88,2.62,4.63,-0.40,-0.90,0.52,-37.50,-2.81,47.25,-1.00
5735.00,-8.88,2.62,4.63,-0.40,-0.90,0.52,-37.50,-2.81,47.25,-1.00
5747.00,-8.98,1.73,4.30,-0.39,-0.91,0.46,-37.50,-2.81,47.25,-1.00
5760.00,-9.18,1.66,3.82,-0.35,-0.85,0.50,-37.50,-2.81,47.25,-1.00
5772.00,-9.18,1.66,3.82,-0.35,-0.85,0.50,-37.50,-2.81,47.25,-1.00
5784.00,-9.55,3.07,3.98,-0.38,-0.76,0.57,-37.50,-2.81,47.25,-1.00
5798.00,-8.93,2.22,3.53,-0.46,-0.72,0.43,-37.50,-2.81,47.25,-1.00
5811.00,-8.93,2.22,3.53,-0.46,-0.72,0.43,-37.50,-2.81,47.25,-1.00
5822.00,-8.99,2.39,4.31,-0.38,-0.72,0.41,-37.31,-3.57,49.94,-1.00
5834.00,-8.99,2.39,4.31,-0.38,-0.72,0.41,-37.31,-3.57,49.94,-1.00
5847.00,-9.01,1.88,4.19,-0.32,-0.67,0.46,-37.31,-3.57,49.94,-1.00
5859.00,-9.02,1.73,4.25,-0.41,-0.62,0.53,-37.31,-3.57,49.94,-1.00
5871.00,-9.02,1.73,4.25,-0.41,-0.62,0.53,-37.31,-3.57,49.94,-1.00
5883.00,-9.03,1.87,3.73,-0.45,-0.55,0.62,-37.31,-3.57,49.94,-1.00
5896.00,-9.03,1.87,3.73,-0.45,-0.55,0.62,-37.31,-3.57,49.94,-1.00
5908.00,-8.83,2.25,3.47,-0.46,-0.52,0.67,-37.31,-3.57,49.94,-1.00
5920.00,-8.89,1.76,3.82,-0.67,-0.59,0.64,-37.31,-3.57,49.94,-1.00
5932.00,-8.89,1.76,3.82,-0.67,-0.59,0.64,-37.31,-3.57,49.94,-1.00
5946.00,-9.28,2.04,3.15,-0.77,-0.56,0.78,-36.92,-5.39,47.79,-1.00
5958.00,-9.41,2.47,3.81,-0.74,-0.47,0.86,-36.92,-5.39,47.79,-1.00
5970.00,-9.41,2.47,3.81,-0.74,-0.47,0.86,-36.92,-5.39,47.79,-1.00
5982.00,-9.04,2.10,3.75,-0.83,-0.41,0.78,-36.92,-5.39,47.79,-1.00
5996.00,-8.59,1.74,3.97,-0.97,-0.40,0.83,-36.92,-5.39,47.79,-1.00
6008.00,-8.59,1.74,3.97,-0.97,-0.40,0.83,-36.92,-5.39,47.79,-1.00
6020.00,-9.16,1.27,4.33,-1.08,-0.32,1.03,-36.92,-5.39,47.79,-1.00
6032.00,-9.16,1.27,4.33,-1.08,-0.32,1.03,-36.92,-5.39,47.79,-1.00
6046.00,-8.49,1.65,3.75,-1.13,-0.21,1.32,-36.92,-5.39,47.79,-1.00
6058.00,-7.84,2.08,3.45,-1.15,-0.37,1.44,-36.92,-5.39,47.79,-1.00
6070.00,-7.84,2.08,3.45,-1.15,-0.37,1.44,-36.92,-5.39,47.79,-1.00
6085.00,-8.13,1.78,5.52,-1.07,-0.69,1.32,-39.06,-4.93,47.61,-1.00
6096.00,-8.32,0.69,6.70,-0.95,-0.79,1.21,-39.06,-4.93,47.61,-1.00
6108.00,-8.32,0.69,6.70,-0.95,-0.79,1.21,-39.06,-4.93,47.61,-1.00
6120.00,-8.87,1.82,6.40,-0.71,-0.62,1.24,-39.06,-4.93,47.61,-1.00
6134.00,-8.87,1.82,6.40,-0.71,-0.62,1.24,-39.06,-4.93,47.61,-1.00
6146.00,-8.72,0.86,4.95,-0.62,-0.52,1.12,-39.06,-4.93,47.61,-1.00
6158.00,-8.36,1.12,4.05,-0.56,-0.51,1.10,-39.06,-4.93,47.61,-1.00
6170.00,-8.36,1.12,4.05,-0.56,-0.51,1.10,-39.06,-4.93,47.61,-1.00
6184.00,-8.84,2.18,3.96,-0.49,-0.63,1.10,-39.06,-4.93,47.61,-1.00
6196.00,-9.53,2.41,4.33,-0.45,-0.73,1.05,-38.09,-4.17,47.79,-1.00
6208.00,-9.53,2.41,4.33,-0.45,-0.73,1.05,-38.09,-4.17,47.79,-1.00
6220.00,-9.16,2.04,4.54,-0.45,-0.67,0.94,-38.09,-4.17,47.79,-1.00
6234.00,-9.16,2.04,4.54,-0.45,-0.67,0.94,-38.09,-4.17,47.79,-1.00
6246.00,-8.87,1.69,4.27,-0.38,-0.60,0.86,-38.09,-4.17,47.79,-1.00
6258.00,-8.78,1.73,3.99,-0.36,-0.64,0.88,-38.09,-4.17,47.79,-1.00
6270.00,-8.78,1.73,3.99,-0.36,-0.64,0.88,-38.09,-4.17,47.79,-1.00
6284.00,-9.09,2.29,4.12,-0.38,-0.70,0.88,-38.09,-4.17,47.79,-1.00
6296.00,-9.07,1.89,4.62,-0.33,-0.72,0.87,-38.09,-4.17,47.79,-1.00
6308.00,-9.07,1.89,4.62,-0.33,-0.72,0.87,-38.09,-4.17,47.79,-1.00
6322.00,-8.61,1.55,3.99,-0.32,-0.73,0.82,-37.50,-3.72,47.25,-1.00
6334.00,-8.61,1.55,3.99,-0.32,-0.73,0.82,-37.50,-3.72,47.25,-1.00
6346.00,-9.27,3.01,4.44,-0.41,-0.80,0.76,-37.50,-3.72,47.25,-1.00
6358.00,-8.50,1.09,3.97,-0.50,-0.82,0.55,-37.50,-3.72,47.25,-1.00
6372.00,-8.50,1.09,3.97,-0.50,-0.82,0.55,-37.50,-3.72,47.25,-1.00
6384.00,-9.26,1.39,4.05,-0.41,-0.85,0.59,-37.50,-3.72,47.25,-1.00
6396.00,-9.35,1.96,4.10,-0.35,-0.83,0.58,-37.50,-3.72,47.25,-1.00
6408.00,-9.35,1.96,4.10,-0.35,-0.83,0.58,-37.50,-3.72,47.25,-1.00
6423.00,-9.29,1.56,4.32,-0.35,-0.82,0.41,-37.50,-3.72,47.25,-1.00
6434.00,-9.29,1.56,4.32,-0.35,-0.82,0.41,-37.50,-3.72,47.25,-1.00
6446.00,-9.13,1.19,3.20,-0.37,-0.76,0.35,-38.87,-3.87,47.79,-1.00
6458.00,-9.36,1.70,3.01,-0.33,-0.69,0.56,-38.87,-3.87,47.79,-1.00
6472.00,-9.36,1.70,3.01,-0.33,-0.69,0.56,-38.87,-3.87,47.79,-1.00
6484.00,-9.28,1.47,3.13,-0.41,-0.71,0.59,-38.87,-3.87,47.79,-1.00
6496.00,-8.92,1.96,4.47,-0.54,-0.71,0.62,-38.87,-3.87,47.79,-1.00
6508.00,-8.92,1.96,4.47,-0.54,-0.71,0.62,-38.87,-3.87,47.79,-1.00
6522.00,-9.27,1.61,4.06,-0.64,-0.62,0.69,-38.87,-3.87,47.79,-1.00
6534.00,-9.27,1.61,4.06,-0.64,-0.62,0.69,-38.87,-3.87,47.79,-1.00
6546.00,-9.34,1.36,3.32,-0.72,-0.57,0.72,-38.87,-3.87,47.79,-1.00
6558.00,-9.31,2.62,3.29,-0.72,-0.51,0.79,-38.67,-5.24,48.33,-1.00
6572.00,-9.31,2.62,3.29,-0.72,-0.51,0.79,-38.67,-5.24,48.33,-1.00
6584.00,-9.59,1.96,2.63,-0.87,-0.50,0.81,-38.67,-5.24,48.33,-1.00
6596.00,-9.12,1.58,2.72,-1.07,-0.54,0.89,-38.67,-5.24,48.33,-1.00
6610.00,-9.12,1.58,2.72,-1.07,-0.54,0.89,-38.67,-5.24,48.33,-1.00
6622.00,-9.24,2.52,3.22,-1.08,-0.55,1.04,-38.67,-5.24,48.33,-1.00
6634.00,-9.24,2.52,3.22,-1.08,-0.55,1.04,-38.67,-5.24,48.33,-1.00
6646.00,-8.50,2.34,4.42,-1.07,-0.56,1.07,-38.67,-5.24,48.33,-1.00
6660.00,-8.61,1.93,4.72,-1.12,-0.52,1.21,-38.67,-5.24,48.33,-1.00
6673.00,-8.61,1.93,4.72,-1.12,-0.52,1.21,-38.67,-5.24,48.33,-1.00
6685.00,-8.04,2.11,5.28,-1.05,-0.48,1.33,-39.65,-6.30,47.79,-1.00
6697.00,-8.24,1.77,5.60,-0.96,-0.55,1.31,-39.65,-6.30,47.79,-1.00
6711.00,-8.24,1.77,5.60,-0.96,-0.55,1.31,-39.65,-6.30,47.79,-1.00
6723.00,-8.41,1.08,6.01,-0.98,-0.62,1.20,-39.65,-6.30,47.79,-1.00
6735.00,-8.55,1.47,6.07,-0.86,-0.55,1.19,-39.65,-6.30,47.79,-1.00
6747.00,-8.55,1.47,6.07,-0.86,-0.55,1.19,-39.65,-6.30,47.79,-1.00
6761.00,-8.40,1.52,5.01,-0.70,-0.54,1.11,-39.65,-6.30,47.79,-1.00
6773.00,-8.40,1.52,5.01,-0.70,-0.54,1.11,-39.65,-6.30,47.79,-1.00
6785.00,-8.42,0.36,4.96,-0.61,-0.61,1.05,-39.65,-6.30,47.79,-1.00
6797.00,-8.63,1.07,4.28,-0.51,-0.64,1.08,-39.65,-6.30,47.79,-1.00
6811.00,-8.63,1.07,4.28,-0.51,-0.64,1.08,-39.65,-6.30,47.79,-1.00
6824.00,-8.79,1.08,4.83,-0.48,-0.67,1.08,-39.06,-5.54,47.25,-1.00
6836.00,-8.88,1.24,4.62,-0.39,-0.66,1.11,-39.06,-5.54,47.25,-1.00
6850.00,-8.88,1.24,4.62,-0.39,-0.66,1.11,-39.06,-5.54,47.25,-1.00
6937.00,-8.93,1.98,4.66,-0.39,-0.75,0.79,-37.50,-3.72,47.61,-1.00
7025.00,-9.35,1.10,3.82,-0.47,-0.79,0.47,-37.50,-3.72,47.61,-1.00
7113.00,-9.33,2.21,3.77,-0.37,-0.62,0.69,-38.28,-4.33,49.40,-1.00
7127.00,-9.19,1.22,3.15,-0.43,-0.59,0.60,-38.28,-4.33,49.40,-1.00
7139.00,-9.50,2.46,3.48,-0.51,-0.61,0.62,-38.28,-4.33,49.40,-1.00
7151.00,-9.50,2.46,3.48,-0.51,-0.61,0.62,-38.28,-4.33,49.40,-1.00
7163.00,-9.64,0.96,3.40,-0.66,-0.61,0.57,-38.28,-4.33,49.40,-1.00
7177.00,-9.24,1.16,3.12,-0.75,-0.47,0.71,-38.48,-6.60,49.22,-1.00
7189.00,-9.24,1.16,3.12,-0.75,-0.47,0.71,-38.48,-6.60,49.22,-1.00
7201.00,-8.81,1.06,3.75,-0.75,-0.47,0.83,-38.48,-6.60,49.22,-1.00
7213.00,-8.81,1.06,3.75,-0.75,-0.47,0.83,-38.48,-6.60,49.22,-1.00
7227.00,-9.65,2.22,3.72,-0.81,-0.53,0.88,-38.48,-6.60,49.22,-1.00
7239.00,-9.60,0.69,2.97,-0.96,-0.47,0.83,-38.48,-6.60,49.22,-1.00
7251.00,-9.60,0.69,2.97,-0.96,-0.47,0.83,-38.48,-6.60,49.22,-1.00
7263.00,-8.78,2.16,3.54,-1.04,-0.35,1.09,-38.48,-6.60,49.22,-1.00
7277.00,-8.07,1.76,4.32,-1.12,-0.33,1.32,-38.48,-6.60,49.22,-1.00
7289.00,-8.07,1.76,4.32,-1.12,-0.33,1.32,-38.48,-6.60,49.22,-1.00
7301.00,-8.89,2.17,4.61,-1.06,-0.44,1.46,-38.67,-6.45,46.89,-1.00
7313.00,-8.89,2.17,4.61,-1.06,-0.44,1.46,-38.67,-6.45,46.89,-1.00
7327.00,-8.30,1.11,5.55,-1.00,-0.50,1.49,-38.67,-6.45,46.89,-1.00
7339.00,-8.33,1.46,5.42,-0.72,-0.40,1.63,-38.67,-6.45,46.89,-1.00
7351.00,-8.33,1.46,5.42,-0.72,-0.40,1.63,-38.67,-6.45,46.89,-1.00
7365.00,-7.93,1.38,4.81,-0.46,-0.42,1.65,-38.67,-6.45,46.89,-1.00
7377.00,-8.62,1.49,5.35,-0.31,-0.56,1.59,-38.67,-6.45,46.89,-1.00
7389.00,-8.62,1.49,5.35,-0.31,-0.56,1.59,-38.67,-6.45,46.89,-1.00
7401.00,-9.22,1.57,5.61,-0.41,-0.68,1.33,-38.67,-6.45,46.89,-1.00
7416.00,-9.03,1.58,4.74,-0.54,-0.66,1.08,-38.67,-6.45,46.89,-1.00
7427.00,-9.03,1.58,4.74,-0.54,-0.66,1.08,-38.67,-6.45,46.89,-1.00
7439.00,-8.95,1.23,3.91,-0.55,-0.64,0.96,-38.67,-2.51,46.53,-1.00
7451.00,-8.95,1.23,3.91,-0.55,-0.64,0.96,-38.67,-2.51,46.53,-1.00
7465.00,-9.22,1.52,4.16,-0.49,-0.70,0.95,-38.67,-2.51,46.53,-1.00
7477.00,-9.11,1.74,3.88,-0.44,-0.73,0.87,-38.67,-2.51,46.53,-1.00
7489.00,-9.11,1.74,3.88,-0.44,-0.73,0.87,-38.67,-2.51,46.53,-1.00
7501.00,-8.88,1.22,3.67,-0.38,-0.71,0.82,-38.67,-2.51,46.53,-1.00
7515.00,-9.01,1.97,3.86,-0.34,-0.75,0.86,-38.67,-2.51,46.53,-1.00
7527.00,-9.01,1.97,3.86,-0.34,-0.75,0.86,-38.67,-2.51,46.53,-1.00
7539.00,-8.85,2.17,4.21,-0.36,-0.78,0.84,-38.67,-2.51,46.53,-1.00
7551.00,-8.85,2.17,4.21,-0.36,-0.78,0.84,-38.67,-2.51,46.53,-1.00
7565.00,-9.12,2.12,4.19,-0.36,-0.77,0.78,-38.87,-4.78,47.07,-1.00
7577.00,-8.73,1.49,3.94,-0.48,-0.79,0.68,-38.87,-4.78,47.07,-1.00
7589.00,-8.73,1.49,3.94,-0.48,-0.79,0.68,-38.87,-4.78,47.07,-1.00
7604.00,-9.14,1.53,4.30,-0.45,-0.81,0.68,-38.87,-4.78,47.07,-1.00
7615.00,-8.95,1.96,4.09,-0.37,-0.82,0.67,-38.87,-4.78,47.07,-1.00
7627.00,-8.95,1.96,4.09,-0.37,-0.82,0.67,-38.87,-4.78,47.07,-1.00
7639.00,-9.30,1.81,3.92,-0.38,-0.81,0.62,-38.87,-4.78,47.07,-1.00
7653.00,-9.30,1.81,3.92,-0.38,-0.81,0.62,-38.87,-4.78,47.07,-1.00
7665.00,-8.89,1.66,3.74,-0.49,-0.79,0.55,-38.87,-4.78,47.07,-1.00
7677.00,-9.33,1.26,4.41,-0.56,-0.85,0.51,-39.26,-5.08,48.51,-1.00
7689.00,-9.33,1.26,4.41,-0.56,-0.85,0.51,-39.26,-5.08,48.51,-1.00
7703.00,-9.45,1.29,4.56,-0.63,-0.79,0.47,-39.26,-5.08,48.51,-1.00
7715.00,-9.16,1.68,3.76,-0.68,-0.71,0.39,-39.26,-5.08,48.51,-1.00
7727.00,-9.16,1.68,3.76,-0.68,-0.71,0.39,-39.26,-5.08,48.51,-1.00
7739.00,-9.13,1.76,3.77,-0.65,-0.68,0.43,-39.26,-5.08,48.51,-1.00
7754.00,-9.13,1.76,3.77,-0.65,-0.68,0.43,-39.26,-5.08,48.51,-1.00
7765.00,-9.03,1.04,3.91,-0.58,-0.65,0.42,-39.26,-5.08,48.51,-1.00
7777.00,-9.40,1.62,3.85,-0.50,-0.59,0.48,-39.26,-5.08,48.51,-1.00
7789.00,-9.40,1.62,3.85,-0.50,-0.59,0.48,-39.26,-5.08,48.51,-1.00
7803.00,-9.13,2.03,4.21,-0.46,-0.46,0.48,-39.26,-6.30,46.71,-1.00
7815.00,-9.07,0.60,1.98,-0.46,-0.38,0.47,-39.26,-6.30,46.71,-1.00
7827.00,-9.07,0.60,1.98,-0.46,-0.38,0.47,-39.26,-6.30,46.71,-1.00
7839.00,-9.44,1.22,3.39,-0.44,-0.56,0.59,-39.26,-6.30,46.71,-1.00
7853.00,-9.44,1.22,3.39,-0.44,-0.56,0.59,-39.26,-6.30,46.71,-1.00
7865.00,-9.75,1.51,3.32,-0.51,-0.54,0.68,-39.26,-6.30,46.71,-1.00
7877.00,-9.59,1.25,2.56,-0.54,-0.47,0.72,-39.26,-6.30,46.71,-1.00
7891.00,-9.59,1.25,2.56,-0.54,-0.47,0.72,-39.26,-6.30,46.71,-1.00
7904.00,-9.10,0.78,3.29,-0.71,-0.48,0.82,-39.26,-6.30,46.71,-1.00
7915.00,-9.07,1.44,3.38,-0.89,-0.46,1.13,-40.43,-7.21,46.35,-1.00
7927.00,-9.07,1.44,3.38,-0.89,-0.46,1.13,-40.43,-7.21,46.35,-1.00
7941.00,-8.85,1.70,3.99,-0.92,-0.44,1.36,-40.43,-7.21,46.35,-1.00
7953.00,-8.85,1.70,3.99,-0.92,-0.44,1.36,-40.43,-7.21,46.35,-1.00
7965.00,-8.87,1.66,4.70,-0.83,-0.40,1.49,-40.43,-7.21,46.35,-1.00
7977.00,-8.10,1.18,4.30,-0.73,-0.40,1.62,-40.43,-7.21,46.35,-1.00
7991.00,-8.10,1.18,4.30,-0.73,-0.40,1.62,-40.43,-7.21,46.35,-1.00
8003.00,-7.99,1.06,5.02,-0.50,-0.55,1.81,-40.43,-7.21,46.35,-1.00
8015.00,-8.33,2.42,6.14,-0.19,-0.59,1.88,-40.43,-7.21,46.35,-1.00
8027.00,-8.33,2.42,6.14,-0.19,-0.59,1.88,-40.43,-7.21,46.35,-1.00
8041.00,-8.93,1.70,5.94,-0.28,-0.63,1.57,-40.62,-5.54,45.81,-1.00
8053.00,-8.87,1.70,4.71,-0.48,-0.63,1.37,-40.62,-5.54,45.81,-1.00
8065.00,-8.87,1.70,4.71,-0.48,-0.63,1.37,-40.62,-5.54,45.81,-1.00
8077.00,-9.23,1.83,4.14,-0.45,-0.65,1.24,-40.62,-5.54,45.81,-1.00
8091.00,-9.23,1.83,4.14,-0.45,-0.65,1.24,-40.62,-5.54,45.81,-1.00
8103.00,-9.33,1.98,4.29,-0.50,-0.68,1.07,-40.62,-5.54,45.81,-1.00
8115.00,-9.14,1.70,3.69,-0.51,-0.66,0.95,-40.62,-5.54,45.81,-1.00
8129.00,-9.14,1.70,3.69,-0.51,-0.66,0.95,-40.62,-5.54,45.81,-1.00
8141.00,-9.13,1.53,3.80,-0.45,-0.72,0.88,-40.62,-5.54,45.81,-1.00
8153.00,-9.40,1.99,3.52,-0.42,-0.72,0.86,-40.62,-5.54,45.81,-1.00
8165.00,-9.40,1.99,3.52,-0.42,-0.72,0.86,-40.62,-5.54,45.81,-1.00
8180.00,-9.07,2.22,3.71,-0.47,-0.72,0.84,-41.21,-4.17,45.99,-1.00
8191.00,-9.07,2.22,3.71,-0.47,-0.72,0.84,-41.21,-4.17,45.99,-1.00
8203.00,-8.96,2.33,4.04,-0.47,-0.75,0.79,-41.21,-4.17,45.99,-1.00
8215.00,-9.05,2.11,3.83,-0.40,-0.78,0.76,-41.21,-4.17,45.99,-1.00
8229.00,-9.05,2.11,3.83,-0.40,-0.78,0.76,-41.21,-4.17,45.99,-1.00
8241.00,-8.88,2.04,4.15,-0.45,-0.83,0.64,-41.21,-4.17,45.99,-1.00
8253.00,-8.96,1.88,3.86,-0.51,-0.88,0.50,-41.21,-4.17,45.99,-1.00
8265.00,-8.96,1.88,3.86,-0.51,-0.88,0.50,-41.21,-4.17,45.99,-1.00
8279.00,-8.98,1.38,4.25,-0.57,-0.96,0.36,-41.21,-4.17,45.99,-1.00
8291.00,-8.98,1.38,4.25,-0.57,-0.96,0.36,-41.21,-4.17,45.99,-1.00
8303.00,-9.35,1.81,4.02,-0.70,-0.99,0.21,-40.43,-4.78,46.71,-1.00
8315.00,-9.39,1.28,3.66,-0.77,-0.97,0.06,-40.43,-4.78,46.71,-1.00
8330.00,-9.39,1.28,3.66,-0.77,-0.97,0.06,-40.43,-4.78,46.71,-1.00
8341.00,-9.14,1.00,3.48,-0.62,-0.87,0.13,-40.43,-4.78,46.71,-1.00
8353.00,-9.83,1.99,3.54,-0.44,-0.73,0.31,-40.43,-4.78,46.71,-1.00
8365.00,-9.83,1.99,3.54,-0.44,-0.73,0.31,-40.43,-4.78,46.71,-1.00
8379.00,-9.64,1.63,3.35,-0.40,-0.61,0.29,-40.43,-4.78,46.71,-1.00
8391.00,-9.64,1.63,3.35,-0.40,-0.61,0.29,-40.43,-4.78,46.71,-1.00
8403.00,-9.60,1.39,3.36,-0.40,-0.40,0.34,-40.43,-4.78,46.71,-1.00
8417.00,-9.49,1.29,4.15,-0.44,-0.42,0.46,-40.23,-8.27,47.61,-1.00
8429.00,-9.49,1.29,4.15,-0.44,-0.42,0.46,-40.23,-8.27,47.61,-1.00
8441.00,-9.21,1.56,2.85,-0.45,-0.29,0.63,-40.23,-8.27,47.61,-1.00
8453.00,-9.18,1.56,2.83,-0.37,-0.29,0.78,-40.23,-8.27,47.61,-1.00
8467.00,-9.18,1.56,2.83,-0.37,-0.29,0.78,-40.23,-8.27,47.61,-1.00
8479.00,-9.15,1.06,3.06,-0.43,-0.42,0.79,-40.23,-8.27,47.61,-1.00
8491.00,-9.15,1.06,3.06,-0.43,-0.42,0.79,-40.23,-8.27,47.61,-1.00
8503.00,-9.08,0.45,3.21,-0.61,-0.41,0.93,-40.23,-8.27,47.61,-1.00
8518.00,-8.95,0.19,3.68,-0.89,-0.24,1.39,-40.23,-8.27,47.61,-1.00
8529.00,-8.95,0.19,3.68,-0.89,-0.24,1.39,-40.23,-8.27,47.61,-1.00
8541.00,-8.14,1.25,3.44,-0.81,-0.13,1.85,-40.43,-6.60,45.99,-1.00
8553.00,-8.57,1.90,3.85,-0.44,-0.27,1.99,-40.43,-6.60,45.99,-1.00
8567.00,-8.57,1.90,3.85,-0.44,-0.27,1.99,-40.43,-6.60,45.99,-1.00
8655.00,-9.23,1.81,4.20,-0.49,-0.66,1.03,-41.60,-2.66,43.48,-1.00
8744.00,-9.06,2.50,3.50,-0.51,-0.80,0.78,-41.60,-2.66,43.48,-1.00
8831.00,-9.03,1.68,4.05,-0.74,-0.94,0.49,-41.60,-2.66,44.92,-1.00
8845.00,-9.25,1.29,4.25,-0.69,-0.93,0.41,-41.60,-2.66,44.92,-1.00
8857.00,-9.15,1.48,3.80,-0.49,-0.87,0.41,-41.60,-2.66,44.92,-1.00
8869.00,-9.15,1.48,3.80,-0.49,-0.87,0.41,-41.60,-2.66,44.92,-1.00
8883.00,-9.45,1.89,3.30,-0.50,-0.86,0.34,-41.60,-2.66,44.92,-1.00
8895.00,-9.26,1.31,2.83,-0.58,-0.87,0.30,-41.60,-2.66,44.92,-1.00
8907.00,-9.26,1.31,2.83,-0.58,-0.87,0.30,-41.60,-2.66,44.92,-1.00
8919.00,-9.59,1.63,3.06,-0.57,-0.86,0.43,-40.62,-5.24,45.81,-1.00
8933.00,-9.92,2.28,2.81,-0.58,-0.76,0.45,-40.62,-5.24,45.81,-1.00
8945.00,-9.92,2.28,2.81,-0.58,-0.76,0.45,-40.62,-5.24,45.81,-1.00
8957.00,-9.63,1.53,2.83,-0.57,-0.56,0.36,-40.62,-5.24,45.81,-1.00
8969.00,-9.63,1.53,2.83,-0.57,-0.56,0.36,-40.62,-5.24,45.81,-1.00
8983.00,-9.37,1.20,2.68,-0.58,-0.56,0.40,-40.62,-5.24,45.81,-1.00
8995.00,-9.20,0.98,3.12,-0.56,-0.58,0.60,-40.62,-5.24,45.81,-1.00
9007.00,-9.20,0.98,3.12,-0.56,-0.58,0.60,-40.62,-5.24,45.81,-1.00
9019.00,-9.51,1.49,3.14,-0.62,-0.53,0.81,-40.62,-5.24,45.81,-1.00
9033.00,-9.08,1.69,3.54,-0.82,-0.54,0.90,-40.23,-5.54,46.17,-1.00
9045.00,-9.08,1.69,3.54,-0.82,-0.54,0.90,-40.23,-5.54,46.17,-1.00
9057.00,-9.04,1.86,4.04,-0.96,-0.51,1.05,-40.23,-5.54,46.17,-1.00
9069.00,-9.04,1.86,4.04,-0.96,-0.51,1.05,-40.23,-5.54,46.17,-1.00
9083.00,-8.59,1.57,4.12,-0.96,-0.43,1.23,-40.23,-5.54,46.17,-1.00
9095.00,-8.75,2.03,4.68,-0.83,-0.37,1.38,-40.23,-5.54,46.17,-1.00
9107.00,-8.75,2.03,4.68,-0.83,-0.37,1.38,-40.23,-5.54,46.17,-1.00
9119.00,-8.92,1.64,4.89,-0.66,-0.27,1.44,-40.23,-5.54,46.17,-1.00
9133.00,-8.63,1.68,4.14,-0.35,-0.23,1.56,-40.23,-5.54,46.17,-1.00
9145.00,-8.63,1.68,4.14,-0.35,-0.23,1.56,-40.23,-5.54,46.17,-1.00
9157.00,-8.36,1.23,3.34,-0.09,-0.23,1.74,-41.60,-4.48,43.12,-1.00
9171.00,-8.36,1.23,3.34,-0.09,-0.23,1.74,-41.60,-4.48,43.12,-1.00
9183.00,-8.84,2.43,3.11,0.19,-0.33,1.89,-41.60,-4.48,43.12,-1.00
9195.00,-9.63,3.43,4.31,0.03,-0.57,1.67,-41.60,-4.48,43.12,-1.00
9207.00,-9.63,3.43,4.31,0.03,-0.57,1.67,-41.60,-4.48,43.12,-1.00
9222.00,-9.23,2.14,4.19,-0.49,-0.67,1.21,-41.60,-4.48,43.12,-1.00
9233.00,-9.21,1.40,4.16,-0.71,-0.70,1.00,-41.60,-4.48,43.12,-1.00
9245.00,-9.21,1.40,4.16,-0.71,-0.70,1.00,-41.60,-4.48,43.12,-1.00
9257.00,-9.40,1.70,3.58,-0.69,-0.66,0.97,-41.60,-4.48,43.12,-1.00
9271.00,-9.40,1.70,3.58,-0.69,-0.66,0.97,-41.60,-4.48,43.12,-1.00
9283.00,-8.98,1.46,3.53,-0.69,-0.76,0.88,-40.82,-2.05,45.28,-1.00
9295.00,-8.89,1.92,3.77,-0.56,-0.81,0.88,-40.82,-2.05,45.28,-1.00
9307.00,-8.89,1.92,3.77,-0.56,-0.81,0.88,-40.82,-2.05,45.28,-1.00
9321.00,-9.50,2.42,3.38,-0.53,-0.84,0.76,-40.82,-2.05,45.28,-1.00
9333.00,-9.07,1.64,3.67,-0.59,-0.90,0.62,-40.82,-2.05,45.28,-1.00
9345.00,-9.07,1.64,3.67,-0.59,-0.90,0.62,-40.82,-2.05,45.28,-1.00
9357.00,-9.15,2.42,3.54,-0.52,-0.93,0.67,-40.82,-2.05,45.28,-1.00
9372.00,-9.34,2.38,3.40,-0.49,-0.96,0.62,-40.82,-2.05,45.28,-1.00
9383.00,-9.34,2.38,3.40,-0.49,-0.96,0.62,-40.82,-2.05,45.28,-1.00
9395.00,-9.28,1.82,3.46,-0.60,-0.99,0.47,-41.40,-3.42,45.81,-1.00
9409.00,-9.28,1.82,3.46,-0.60,-0.99,0.47,-41.40,-3.42,45.81,-1.00
9421.00,-9.40,1.23,3.64,-0.67,-1.05,0.29,-41.40,-3.42,45.81,-1.00
9433.00,-9.65,1.82,3.59,-0.58,-0.95,0.26,-41.40,-3.42,45.81,-1.00
9445.00,-9.65,1.82,3.59,-0.58,-0.95,0.26,-41.40,-3.42,45.81,-1.00
9459.00,-9.38,1.89,2.69,-0.36,-0.74,0.31,-41.40,-3.42,45.81,-1.00
9471.00,-9.22,2.33,2.53,-0.27,-0.68,0.40,-41.40,-3.42,45.81,-1.00
9483.00,-9.22,2.33,2.53,-0.27,-0.68,0.40,-41.40,-3.42,45.81,-1.00
9495.00,-9.37,1.95,3.35,-0.34,-0.70,0.45,-41.40,-3.42,45.81,-1.00
9509.00,-9.37,1.95,3.35,-0.34,-0.70,0.45,-41.40,-3.42,45.81,-1.00
9598.00,-9.80,1.05,4.30,-0.80,-0.55,0.79,-40.62,-3.72,45.46,-1.00
9685.00,-8.33,1.51,4.64,-0.74,-0.59,1.60,-41.60,-5.69,45.99,-1.00
9774.00,-9.95,1.54,3.63,-0.50,-0.65,0.99,-42.57,-0.38,42.94,-1.00
9787.00,-9.95,1.54,3.63,-0.50,-0.65,0.99,-42.57,-0.38,42.94,-1.00
9799.00,-9.35,1.21,3.66,-0.60,-0.70,0.87,-42.57,-0.38,42.94,-1.00
9811.00,-9.29,1.95,3.40,-0.48,-0.65,0.88,-42.57,-0.38,42.94,-1.00
9823.00,-9.29,1.95,3.40,-0.48,-0.65,0.88,-42.57,-0.38,42.94,-1.00
9837.00,-9.06,2.11,3.25,-0.43,-0.71,0.80,-42.57,-0.38,42.94,-1.00
9849.00,-9.06,2.11,3.25,-0.43,-0.71,0.80,-42.57,-0.38,42.94,-1.00
9861.00,-9.61,1.55,3.64,-0.47,-0.82,0.67,-42.57,-0.38,42.94,-1.00
9873.00,-9.54,2.10,3.98,-0.59,-0.88,0.53,-42.57,-0.38,42.94,-1.00
9887.00,-9.54,2.10,3.98,-0.59,-0.88,0.53,-42.57,-0.38,42.94,-1.00
9899.00,-9.30,1.74,3.63,-0.67,-0.97,0.34,-42.38,-2.05,46.35,-1.00
9911.00,-9.24,1.38,3.63,-0.72,-1.10,0.17,-42.38,-2.05,46.35,-1.00
9925.00,-9.24,1.38,3.63,-0.72,-1.10,0.17,-42.38,-2.05,46.35,-1.00
9937.00,-9.81,0.96,4.24,-0.78,-1.11,0.05,-42.38,-2.05,46.35,-1.00
9949.00,-9.81,0.96,4.24,-0.78,-1.11,0.05,-42.38,-2.05,46.35,-1.00
9961.00,-9.30,0.99,3.83,-0.64,-0.95,0.09,-42.38,-2.05,46.35,-1.00
9975.00,-9.59,1.84,3.16,-0.36,-0.78,0.23,-42.38,-2.05,46.35,-1.00
9987.00,-9.59,1.84,3.16,-0.36,-0.78,0.23,-42.38,-2.05,46.35,-1.00
9999.00,-9.89,2.04,1.76,-0.24,-0.65,0.33,-42.38,-2.05,46.35,-1.00
10011.00,-9.68,1.14,1.66,-0.40,-0.62,0.42,-40.04,-5.99,44.92,-1.00
10026.00,-9.68,1.14,1.66,-0.40,-0.62,0.42,-40.04,-5.99,44.92,-1.00
10037.00,-9.98,2.51,0.68,-0.56,-0.56,0.56,-40.04,-5.99,44.92,-1.00
10049.00,-9.98,2.51,0.68,-0.56,-0.56,0.56,-40.04,-5.99,44.92,-1.00
10061.00,-9.88,1.53,2.23,-0.83,-0.68,0.58,-40.04,-5.99,44.92,-1.00
10075.00,-9.63,1.27,2.98,-0.99,-0.66,0.75,-40.04,-5.99,44.92,-1.00
10087.00,-9.63,1.27,2.98,-0.99,-0.66,0.75,-40.04,-5.99,44.92,-1.00
10099.00,-9.28,1.32,3.22,-1.03,-0.57,0.98,-40.04,-5.99,44.92,-1.00
10111.00,-9.09,1.17,3.83,-0.98,-0.53,1.18,-40.04,-5.99,44.92,-1.00
10125.00,-9.09,1.17,3.83,-0.98,-0.53,1.18,-40.04,-5.99,44.92,-1.00
10137.00,-8.97,1.71,3.55,-0.91,-0.47,1.39,-40.04,-5.99,44.92,-1.00
10149.00,-8.97,1.71,3.55,-0.91,-0.47,1.39,-40.04,-5.99,44.92,-1.00
10163.00,-8.21,1.35,4.88,-0.81,-0.48,1.50,-44.13,-6.75,46.89,-1.00
10176.00,-8.40,2.11,5.27,-0.56,-0.46,1.72,-44.13,-6.75,46.89,-1.00
10187.00,-8.40,2.11,5.27,-0.56,-0.46,1.72,-44.13,-6.75,46.89,-1.00
10199.00,-9.01,1.91,4.90,-0.38,-0.46,1.78,-44.13,-6.75,46.89,-1.00
10213.00,-8.97,2.03,4.94,-0.42,-0.49,1.67,-44.13,-6.75,46.89,-1.00
10225.00,-8.97,2.03,4.94,-0.42,-0.49,1.67,-44.13,-6.75,46.89,-1.00
10237.00,-9.33,2.09,4.52,-0.51,-0.50,1.45,-44.13,-6.75,46.89,-1.00
10249.00,-9.33,2.09,4.52,-0.51,-0.50,1.45,-44.13,-6.75,46.89,-1.00
10263.00,-9.11,1.19,4.44,-0.53,-0.51,1.22,-44.13,-6.75,46.89,-1.00
10275.00,-9.21,1.44,4.23,-0.44,-0.53,1.11,-43.74,-2.20,42.94,-1.00
10287.00,-9.21,1.44,4.23,-0.44,-0.53,1.11,-43.74,-2.20,42.94,-1.00
10300.00,-9.19,1.61,3.61,-0.38,-0.56,1.02,-43.74,-2.20,42.94,-1.00
10313.00,-9.68,2.24,2.81,-0.35,-0.68,0.91,-43.74,-2.20,42.94,-1.00
10325.00,-9.68,2.24,2.81,-0.35,-0.68,0.91,-43.74,-2.20,42.94,-1.00
10337.00,-9.37,1.10,3.28,-0.40,-0.78,0.80,-43.74,-2.20,42.94,-1.00
10351.00,-9.12,2.27,2.97,-0.38,-0.72,0.87,-43.74,-2.20,42.94,-1.00
10363.00,-9.12,2.27,2.97,-0.38,-0.72,0.87,-43.74,-2.20,42.94,-1.00
10375.00,-9.23,1.93,3.55,-0.37,-0.79,0.81,-43.74,-2.20,42.94,-1.00
10387.00,-9.23,1.93,3.55,-0.37,-0.79,0.81,-43.74,-2.20,42.94,-1.00
10401.00,-9.17,2.07,3.74,-0.37,-0.77,0.75,-42.77,-3.26,44.92,-1.00
10413.00,-9.22,1.20,3.60,-0.43,-0.86,0.57,-42.77,-3.26,44.92,-1.00
10425.00,-9.22,1.20,3.60,-0.43,-0.86,0.57,-42.77,-3.26,44.92,-1.00
10437.00,-9.41,1.68,3.83,-0.66,-0.99,0.37,-42.77,-3.26,44.92,-1.00
10452.00,-9.35,0.91,3.52,-0.66,-0.99,0.25,-42.77,-3.26,44.92,-1.00
10463.00,-9.35,0.91,3.52,-0.66,-0.99,0.25,-42.77,-3.26,44.92,-1.00
10475.00,-9.72,1.21,2.67,-0.45,-0.92,0.32,-42.77,-3.26,44.92,-1.00
10487.00,-9.72,1.21,2.67,-0.45,-0.92,0.32,-42.77,-3.26,44.92,-1.00
10501.00,-9.69,2.60,3.07,-0.50,-0.86,0.35,-42.77,-3.26,44.92,-1.00
10513.00,-9.45,2.13,3.05,-0.61,-0.72,0.29,-41.01,-5.24,47.61,-1.00
10525.00,-9.45,2.13,3.05,-0.61,-0.72,0.29,-41.01,-5.24,47.61,-1.00
10539.00,-9.18,2.10,2.35,-0.60,-0.65,0.34,-41.01,-5.24,47.61,-1.00
10551.00,-10.23,2.14,2.04,-0.63,-0.57,0.43,-41.01,-5.24,47.61,-1.00
10563.00,-10.23,2.14,2.04,-0.63,-0.57,0.43,-41.01,-5.24,47.61,-1.00
10575.00,-9.75,0.87,2.98,-0.78,-0.55,0.46,-41.01,-5.24,47.61,-1.00
10589.00,-9.75,0.87,2.98,-0.78,-0.55,0.46,-41.01,-5.24,47.61,-1.00
10601.00,-9.59,0.83,2.66,-0.76,-0.41,0.63,-41.01,-5.24,47.61,-1.00
10613.00,-9.19,0.24,2.69,-0.90,-0.40,0.82,-41.01,-5.24,47.61,-1.00
10625.00,-9.19,0.24,2.69,-0.90,-0.40,0.82,-41.01,-5.24,47.61,-1.00
10640.00,-9.41,0.96,3.57,-0.97,-0.39,1.12,-41.40,-6.45,44.38,-1.00
10651.00,-8.73,1.10,3.73,-1.11,-0.25,1.46,-41.40,-6.45,44.38,-1.00
10663.00,-8.73,1.10,3.73,-1.11,-0.25,1.46,-41.40,-6.45,44.38,-1.00
10675.00,-7.94,2.16,3.93,-1.06,-0.25,1.73,-41.40,-6.45,44.38,-1.00
10689.00,-7.94,2.16,3.93,-1.06,-0.25,1.73,-41.40,-6.45,44.38,-1.00
10701.00,-8.65,2.32,3.77,-0.85,-0.49,1.80,-41.40,-6.45,44.38,-1.00
10713.00,-8.89,1.83,4.67,-0.60,-0.65,1.75,-41.40,-6.45,44.38,-1.00
10727.00,-8.89,1.83,4.67,-0.60,-0.65,1.75,-41.40,-6.45,44.38,-1.00
10739.00,-9.20,2.20,4.78,-0.34,-0.54,1.72,-41.40,-6.45,44.38,-1.00
10751.00,-8.39,1.62,4.64,-0.22,-0.51,1.55,-43.16,-3.57,43.48,-1.00
10763.00,-8.39,1.62,4.64,-0.22,-0.51,1.55,-43.16,-3.57,43.48,-1.00
10777.00,-9.17,1.89,3.99,-0.15,-0.55,1.47,-43.16,-3.57,43.48,-1.00
10789.00,-9.17,1.89,3.99,-0.15,-0.55,1.47,-43.16,-3.57,43.48,-1.00
10801.00,-9.66,2.16,3.46,-0.36,-0.67,1.29,-43.16,-3.57,43.48,-1.00
10813.00,-9.63,1.73,3.72,-0.55,-0.77,1.02,-43.16,-3.57,43.48,-1.00
10827.00,-9.63,1.73,3.72,-0.55,-0.77,1.02,-43.16,-3.57,43.48,-1.00
10839.00,-9.30,1.56,3.94,-0.48,-0.74,0.90,-43.16,-3.57,43.48,-1.00
10851.00,-9.00,1.83,3.36,-0.37,-0.73,0.88,-43.16,-3.57,43.48,-1.00
10863.00,-9.00,1.83,3.36,-0.37,-0.73,0.88,-43.16,-3.57,43.48,-1.00
10877.00,-9.32,2.32,3.47,-0.39,-0.82,0.81,-43.16,-3.57,43.48,-1.00
10889.00,-9.29,1.93,3.66,-0.42,-0.87,0.68,-43.16,-3.57,43.48,-1.00
10901.00,-9.29,1.93,3.66,-0.42,-0.87,0.68,-41.99,-2.35,44.20,-1.00
10916.00,-9.45,2.46,3.36,-0.46,-0.87,0.63,-41.99,-2.35,44.20,-1.00
10927.00,-9.45,2.46,3.36,-0.46,-0.87,0.63,-41.99,-2.35,44.20,-1.00
10939.00,-9.59,1.69,3.06,-0.51,-0.96,0.46,-41.99,-2.35,44.20,-1.00
10951.00,-9.60,2.11,3.75,-0.72,-1.04,0.26,-41.99,-2.35,44.20,-1.00
10965.00,-9.60,2.11,3.75,-0.72,-1.04,0.26,-41.99,-2.35,44.20,-1.00
10977.00,-9.30,1.26,3.85,-0.62,-0.96,0.15,-41.99,-2.35,44.20,-1.00
10989.00,-9.55,1.80,3.00,-0.46,-0.87,0.19,-41.99,-2.35,44.20,-1.00
11001.00,-9.55,1.80,3.00,-0.46,-0.87,0.19,-41.99,-2.35,44.20,-1.00
11015.00,-9.52,1.97,3.21,-0.50,-0.83,0.16,-41.60,-5.08,46.71,-1.00
11027.00,-9.52,1.97,3.21,-0.50,-0.83,0.16,-41.60,-5.08,46.71,-1.00
11039.00,-9.33,2.04,2.75,-0.60,-0.73,0.21,-41.60,-5.08,46.71,-1.00
11051.00,-9.42,1.56,2.14,-0.68,-0.70,0.30,-41.60,-5.08,46.71,-1.00
11066.00,-9.42,1.56,2.14,-0.68,-0.70,0.30,-41.60,-5.08,46.71,-1.00
11077.00,-9.98,2.23,1.29,-0.76,-0.63,0.37,-41.60,-5.08,46.71,-1.00
11089.00,-9.50,0.33,3.13,-0.89,-0.68,0.38,-41.60,-5.08,46.71,-1.00
11103.00,-9.50,0.33,3.13,-0.89,-0.68,0.38,-41.60,-5.08,46.71,-1.00
11115.00,-9.40,0.47,3.18,-0.82,-0.59,0.60,-41.60,-5.08,46.71,-1.00
11127.00,-9.40,0.47,3.18,-0.82,-0.59,0.60,-41.60,-5.08,46.71,-1.00
11139.00,-9.55,0.70,3.48,-0.88,-0.52,0.78,-42.77,-7.81,46.71,-1.00
11153.00,-9.23,0.72,3.28,-0.92,-0.43,0.97,-42.77,-7.81,46.71,-1.00
11165.00,-9.23,0.72,3.28,-0.92,-0.43,0.97,-42.77,-7.81,46.71,-1.00
11177.00,-8.99,1.47,3.68,-0.87,-0.40,1.15,-42.77,-7.81,46.71,-1.00
11190.00,-8.41,1.09,4.13,-0.88,-0.38,1.35,-42.77,-7.81,46.71,-1.00
11203.00,-8.41,1.09,4.13,-0.88,-0.38,1.35,-42.77,-7.81,46.71,-1.00
11290.00,-8.73,1.75,3.95,-0.04,-0.23,1.63,-40.43,-5.39,43.84,-1.00
11379.00,-9.43,1.99,3.10,-0.51,-0.63,1.06,-44.52,-3.11,42.58,-1.00
11465.00,-9.51,2.63,3.40,-0.39,-0.78,0.89,-44.52,-3.11,42.58,-1.00
11480.00,-9.20,1.59,4.05,-0.53,-0.84,0.74,-44.52,-3.11,42.58,-1.00
11491.00,-9.21,1.73,3.69,-0.54,-0.83,0.71,-44.52,-3.11,42.58,-1.00
11503.00,-9.21,1.73,3.69,-0.54,-0.83,0.71,-44.52,-3.11,42.58,-1.00
11517.00,-9.39,2.17,3.57,-0.52,-0.88,0.61,-41.40,-1.29,43.66,-1.00
11529.00,-9.59,2.46,3.45,-0.53,-0.97,0.46,-41.40,-1.29,43.66,-1.00
11541.00,-9.59,2.46,3.45,-0.53,-0.97,0.46,-41.40,-1.29,43.66,-1.00
11553.00,-9.65,2.32,3.66,-0.69,-1.07,0.19,-41.40,-1.29,43.66,-1.00
11567.00,-9.65,2.32,3.66,-0.69,-1.07,0.19,-41.40,-1.29,43.66,-1.00
11579.00,-9.28,1.76,3.53,-0.89,-1.07,-0.03,-41.40,-1.29,43.66,-1.00
11591.00,-9.55,1.25,3.06,-0.94,-1.03,-0.07,-41.40,-1.29,43.66,-1.00
11603.00,-9.55,1.25,3.06,-0.94,-1.03,-0.07,-41.40,-1.29,43.66,-1.00
11617.00,-9.46,1.60,3.04,-0.65,-0.85,0.10,-41.40,-1.29,43.66,-1.00
11629.00,-9.60,1.83,3.09,-0.39,-0.72,0.20,-44.13,-6.15,45.46,-1.00
11641.00,-9.60,1.83,3.09,-0.39,-0.72,0.20,-44.13,-6.15,45.46,-1.00
11653.00,-9.66,1.98,4.02,-0.41,-0.59,0.19,-44.13,-6.15,45.46,-1.00
11667.00,-9.66,1.98,4.02,-0.41,-0.59,0.19,-44.13,-6.15,45.46,-1.00
11679.00,-9.43,0.25,2.84,-0.72,-0.41,0.09,-44.13,-6.15,45.46,-1.00
11691.00,-9.13,0.08,2.80,-0.83,-0.37,0.34,-44.13,-6.15,45.46,-1.00
11705.00,-9.13,0.08,2.80,-0.83,-0.37,0.34,-44.13,-6.15,45.46,-1.00
11717.00,-9.36,0.89,2.64,-0.85,-0.38,0.66,-44.13,-6.15,45.46,-1.00
11729.00,-9.60,0.53,2.81,-0.94,-0.41,0.82,-44.13,-6.15,45.46,-1.00
11741.00,-9.60,0.53,2.81,-0.94,-0.41,0.82,-44.13,-6.15,45.46,-1.00
11755.00,-8.57,0.46,3.05,-0.93,-0.27,1.14,-43.35,-9.48,44.74,-1.00
11767.00,-8.57,0.46,3.05,-0.93,-0.27,1.14,-43.35,-9.48,44.74,-1.00
11779.00,-8.44,1.05,3.54,-0.67,-0.29,1.45,-43.35,-9.48,44.74,-1.00
11791.00,-9.02,1.24,5.36,-0.56,-0.54,1.43,-43.35,-9.48,44.74,-1.00
11806.00,-9.02,1.24,5.36,-0.56,-0.54,1.43,-43.35,-9.48,44.74,-1.00
11817.00,-9.33,1.88,6.63,-0.60,-0.56,1.21,-43.35,-9.48,44.74,-1.00
11829.00,-9.02,1.58,5.83,-0.54,-0.30,0.97,-43.35,-9.48,44.74,-1.00
11841.00,-9.02,1.58,5.83,-0.54,-0.30,0.97,-43.35,-9.48,44.74,-1.00
11855.00,-9.31,0.78,3.43,-0.44,-0.10,0.82,-43.35,-9.48,44.74,-1.00
11867.00,-9.31,0.78,3.43,-0.44,-0.10,0.82,-43.35,-9.48,44.74,-1.00
11879.00,-9.17,0.26,0.34,-0.45,-0.16,0.84,-43.74,-5.84,42.58,-1.00
11893.00,-9.23,0.56,0.28,-0.69,-0.62,0.96,-43.74,-5.84,42.58,-1.00
11905.00,-9.23,0.56,0.28,-0.69,-0.62,0.96,-43.74,-5.84,42.58,-1.00
11917.00,-13.50,-2.79,1.85,-1.05,-1.29,1.23,-43.74,-5.84,42.58,-1.00
11929.00,-11.76,0.90,-0.04,-1.40,-2.08,2.04,-43.74,-5.84,42.58,-1.00
11943.00,-11.76,0.90,-0.04,-1.40,-2.08,2.04,-43.74,-5.84,42.58,-1.00
11955.00,-11.49,2.93,9.92,-1.33,-2.99,2.09,-43.74,-5.84,42.58,-1.00
11967.00,-11.49,2.93,9.92,-1.33,-2.99,2.09,-43.74,-5.84,42.58,-1.00
11979.00,-9.43,2.11,9.09,-1.05,-2.05,1.64,-43.74,-5.84,42.58,-1.00
11994.00,-8.67,1.42,5.30,-0.65,-1.34,1.38,-40.62,-5.54,49.04,-1.00
12005.00,-8.67,1.42,5.30,-0.65,-1.34,1.38,-40.62,-5.54,49.04,-1.00
12017.00,-7.68,1.67,5.57,-0.38,-1.89,1.39,-40.62,-5.54,49.04,-1.00
12031.00,-7.56,2.68,6.36,-0.44,-2.25,1.35,-40.62,-5.54,49.04,-1.00
12043.00,-7.56,2.68,6.36,-0.44,-2.25,1.35,-40.62,-5.54,49.04,-1.00
12055.00,-6.12,1.93,6.34,-0.97,-2.07,1.16,-40.62,-5.54,49.04,-1.00
12067.00,-6.12,1.93,6.34,-0.97,-2.07,1.16,-40.62,-5.54,49.04,-1.00
12082.00,-6.03,1.89,6.23,-1.08,-1.66,0.94,-40.62,-5.54,49.04,-1.00
12093.00,-7.09,1.58,5.29,-0.34,-0.98,0.68,-40.62,-5.54,49.04,-1.00
12105.00,-7.09,1.58,5.29,-0.34,-0.98,0.68,-40.62,-5.54,49.04,-1.00
12117.00,-6.83,1.09,4.34,-0.08,-0.62,0.58,-36.72,-6.45,53.71,-1.00
12131.00,-6.43,1.68,4.89,-0.24,-0.71,0.55,-36.72,-6.45,53.71,-1.00
12218.00,-7.59,2.23,4.83,-0.45,-0.77,0.12,-36.72,-6.45,53.71,-1.00
12307.00,-7.05,1.02,6.46,-2.84,-0.97,0.96,-36.72,-7.36,53.71,-1.00
12395.00,-7.95,0.79,6.02,-2.64,-0.57,0.58,-34.77,-15.24,55.51,-1.00
12409.00,-8.02,0.61,5.68,-3.24,-0.57,0.15,-34.77,-15.24,55.51,-1.00
12423.00,-8.02,0.61,5.68,-3.24,-0.57,0.15,-34.77,-15.24,55.51,-1.00
12434.00,-9.16,-1.76,4.53,-3.44,-0.64,-0.20,-34.77,-15.24,55.51,-1.00
12448.00,-9.88,-1.25,2.75,-2.45,-0.68,-0.02,-34.77,-15.24,55.51,-1.00
12460.00,-9.88,-1.25,2.75,-2.45,-0.68,-0.02,-34.77,-15.24,55.51,-1.00
12472.00,-9.33,-0.15,3.87,0.02,-0.46,0.29,-34.77,-15.24,55.51,-1.00
12484.00,-9.33,-0.15,3.87,0.02,-0.46,0.29,-34.77,-15.24,55.51,-1.00
12498.00,-7.87,-0.61,5.36,1.34,-0.18,0.12,-31.85,-23.88,53.89,-1.00
12510.00,-7.89,-1.56,4.93,1.24,-0.18,-0.23,-31.85,-23.88,53.89,-1.00
12522.00,-7.89,-1.56,4.93,1.24,-0.18,-0.23,-31.85,-23.88,53.89,-1.00
12534.00,-8.86,-2.36,4.88,0.62,-0.50,-0.43,-31.85,-23.88,53.89,-1.00
12549.00,-9.44,-1.15,5.88,0.21,-0.79,-0.41,-31.85,-23.88,53.89,-1.00
12560.00,-9.44,-1.15,5.88,0.21,-0.79,-0.41,-31.85,-23.88,53.89,-1.00
12572.00,-8.38,-1.67,5.78,-0.33,-0.86,-0.65,-31.85,-23.88,53.89,-1.00
12587.00,-8.38,-1.67,5.78,-0.33,-0.86,-0.65,-31.85,-23.88,53.89,-1.00
12598.00,-5.24,-5.92,6.14,-0.68,-0.73,-0.65,-31.85,-23.88,53.89,-1.00
12610.00,-6.37,-4.04,5.11,-0.57,-0.54,0.10,-32.24,-25.10,56.04,-1.00
12622.00,-6.37,-4.04,5.11,-0.57,-0.54,0.10,-32.24,-25.10,56.04,-1.00
12636.00,-8.26,-1.62,5.19,-0.71,-0.65,0.33,-32.24,-25.10,56.04,-1.00
12648.00,-8.26,-3.12,4.64,-1.10,-0.93,0.09,-32.24,-25.10,56.04,-1.00
12660.00,-8.26,-3.12,4.64,-1.10,-0.93,0.09,-32.24,-25.10,56.04,-1.00
12672.00,-8.04,-2.88,5.21,-0.51,-1.04,0.27,-32.24,-25.10,56.04,-1.00
12686.00,-8.04,-2.88,5.21,-0.51,-1.04,0.27,-32.24,-25.10,56.04,-1.00
12698.00,-7.91,-2.43,6.14,-0.19,-0.93,0.43,-32.24,-25.10,56.04,-1.00
12710.00,-7.39,-2.34,5.39,-0.29,-0.77,0.34,-32.24,-25.10,56.04,-1.00
12724.00,-7.39,-2.34,5.39,-0.29,-0.77,0.34,-32.24,-25.10,56.04,-1.00
12736.00,-8.18,-2.39,5.23,-0.40,-0.90,0.11,-26.78,-27.83,56.04,-1.00
12748.00,-8.93,-1.64,6.73,-0.72,-1.22,-0.14,-26.78,-27.83,56.04,-1.00
12760.00,-8.93,-1.64,6.73,-0.72,-1.22,-0.14,-26.78,-27.83,56.04,-1.00
12774.00,-7.57,-3.59,6.34,-0.91,-1.23,-0.43,-26.78,-27.83,56.04,-1.00
12786.00,-7.57,-3.59,6.34,-0.91,-1.23,-0.43,-26.78,-27.83,56.04,-1.00
12798.00,-6.77,-5.09,6.53,-0.61,-0.92,-0.25,-26.78,-27.83,56.04,-1.00
12810.00,-6.33,-5.23,5.29,-0.85,-0.74,0.17,-26.78,-27.83,56.04,-1.00
12824.00,-6.33,-5.23,5.29,-0.85,-0.74,0.17,-26.78,-27.83,56.04,-1.00
12836.00,-7.45,-2.45,6.04,-1.41,-1.03,0.39,-26.78,-27.83,56.04,-1.00
12848.00,-6.77,-4.21,6.17,-1.88,-1.29,0.06,-26.78,-27.83,56.04,-1.00
12864.00,-6.77,-4.21,6.17,-1.88,-1.29,0.06,-26.78,-27.83,56.04,-1.00
12875.00,-6.53,-4.96,6.79,-1.92,-1.15,0.10,-23.07,-34.95,57.30,-1.00
12887.00,-6.50,-4.67,6.61,-2.32,-0.89,0.25,-23.07,-34.95,57.30,-1.00
12899.00,-6.50,-4.67,6.61,-2.32,-0.89,0.25,-23.07,-34.95,57.30,-1.00
12913.00,-6.27,-4.41,7.62,-3.28,-0.88,0.05,-23.07,-34.95,57.30,-1.00
12925.00,-6.27,-4.41,7.62,-3.28,-0.88,0.05,-23.07,-34.95,57.30,-1.00
12937.00,-6.49,-4.86,8.82,-5.87,-1.01,-0.53,-23.07,-34.95,57.30,-1.00
12951.00,-6.17,-5.62,6.80,-9.03,-0.72,-1.10,-23.07,-34.95,57.30,-1.00
12963.00,-6.17,-5.62,6.80,-9.03,-0.72,-1.10,-23.07,-34.95,57.30,-1.00
12975.00,-5.50,-6.79,1.54,-9.80,0.06,-1.13,-23.07,-34.95,57.30,-1.00
12987.00,-4.75,-9.66,1.26,-7.79,0.81,-0.38,-13.32,-52.84,30.02,-1.00
13001.00,-4.75,-9.66,1.26,-7.79,0.81,-0.38,-13.32,-52.84,30.02,-1.00
13013.00,-5.22,-9.31,0.15,-7.18,1.20,0.61,-13.32,-52.84,30.02,-1.00
13025.00,-5.22,-9.31,0.15,-7.18,1.20,0.61,-13.32,-52.84,30.02,-1.00
13037.00,-5.10,-7.04,0.22,-7.58,1.31,1.11,-13.32,-52.84,30.02,-1.00
13051.00,-3.42,-8.53,-3.73,-7.32,1.61,1.51,-13.32,-52.84,30.02,-1.00
13063.00,-3.42,-8.53,-3.73,-7.32,1.61,1.51,-13.32,-52.84,30.02,-1.00
13075.00,-4.46,-7.06,-5.40,-5.47,1.64,2.39,-13.32,-52.84,30.02,-1.00
13089.00,-5.89,-5.35,-5.60,-3.62,1.40,2.74,-13.32,-52.84,30.02,-1.00
13101.00,-5.89,-5.35,-5.60,-3.62,1.40,2.74,-13.32,-52.84,30.02,-1.00
13113.00,-5.31,-5.10,-5.17,-2.32,1.15,2.75,-14.49,-45.56,-9.11,-1.00
13125.00,-5.31,-5.10,-5.17,-2.32,1.15,2.75,-14.49,-45.56,-9.11,-1.00
13139.00,-4.95,-4.73,-4.68,-2.20,0.97,2.66,-14.49,-45.56,-9.11,-1.00
13151.00,-7.39,-5.11,-6.09,-2.87,0.96,2.28,-14.49,-45.56,-9.11,-1.00
13163.00,-7.39,-5.11,-6.09,-2.87,0.96,2.28,-14.49,-45.56,-9.11,-1.00
13175.00,-6.79,-5.25,-7.21,-2.56,0.93,1.77,-14.49,-45.56,-9.11,-1.00
13190.00,-3.40,-4.80,-7.57,-2.17,0.87,1.41,-14.49,-45.56,-9.11,-1.00
13201.00,-3.40,-4.80,-7.57,-2.17,0.87,1.41,-14.49,-45.56,-9.11,-1.00
13213.00,-3.03,-4.11,-7.17,-2.24,0.69,1.45,-14.49,-45.56,-9.11,-1.00
13227.00,-5.09,-3.63,-6.58,-1.92,0.52,1.72,-12.93,-36.16,-22.39,-1.00
13239.00,-5.09,-3.63,-6.58,-1.92,0.52,1.72,-12.93,-36.16,-22.39,-1.00
13251.00,-6.94,-3.40,-6.45,-0.95,0.47,1.92,-12.93,-36.16,-22.39,-1.00
13263.00,-6.94,-3.40,-6.45,-0.95,0.47,1.92,-12.93,-36.16,-22.39,-1.00
13277.00,-7.34,-3.57,-7.63,-0.20,0.57,1.79,-12.93,-36.16,-22.39,-1.00
13289.00,-4.23,-3.11,-7.69,0.13,0.58,1.61,-12.93,-36.16,-22.39,-1.00
13301.00,-4.23,-3.11,-7.69,0.13,0.58,1.61,-12.93,-36.16,-22.39,-1.00
13313.00,-2.98,-2.38,-6.79,-0.47,0.35,1.46,-12.93,-36.16,-22.39,-1.00
13327.00,-4.48,-1.89,-5.24,-1.25,0.21,1.37,-12.93,-36.16,-22.39,-1.00
13339.00,-4.48,-1.89,-5.24,-1.25,0.21,1.37,-12.93,-36.16,-22.39,-1.00
13351.00,-7.01,-2.93,-5.37,-1.46,0.46,1.18,-12.15,-33.44,-23.46,-1.00
13365.00,-7.01,-2.93,-5.37,-1.46,0.46,1.18,-12.15,-33.44,-23.46,-1.00
13377.00,-7.15,-5.39,-6.75,-1.10,0.83,0.97,-12.15,-33.44,-23.46,-1.00
13389.00,-3.02,-5.16,-7.87,-1.51,0.90,0.98,-12.15,-33.44,-23.46,-1.00
13401.00,-3.02,-5.16,-7.87,-1.51,0.90,0.98,-12.15,-33.44,-23.46,-1.00
13415.00,-1.59,-2.14,-8.23,-2.37,0.73,1.40,-12.15,-33.44,-23.46,-1.00
13427.00,-3.60,-0.61,-7.77,-2.31,0.66,1.73,-12.15,-33.44,-23.46,-1.00
13439.00,-3.60,-0.61,-7.77,-2.31,0.66,1.73,-12.15,-33.44,-23.46,-1.00
13454.00,-5.80,-0.72,-8.10,-1.93,0.89,1.73,-12.15,-33.44,-23.46,-1.00
13465.00,-5.80,-0.72,-8.10,-1.93,0.89,1.73,-12.15,-33.44,-23.46,-1.00
13477.00,-5.26,-1.81,-8.91,-1.56,1.32,1.41,-12.15,-33.44,-23.46,-1.00
13489.00,-1.55,-2.72,-10.08,-1.33,1.59,1.00,-4.15,-27.52,-30.11,-1.00
13503.00,-1.55,-2.72,-10.08,-1.33,1.59,1.00,-4.15,-27.52,-30.11,-1.00
13515.00,-0.79,-2.15,-12.14,-1.61,1.33,0.82,-4.15,-27.52,-30.11,-1.00
13527.00,-1.62,-0.34,-12.96,-1.26,0.66,0.95,-4.15,-27.52,-30.11,-1.00
13539.00,-1.62,-0.34,-12.96,-1.26,0.66,0.95,-4.15,-27.52,-30.11,-1.00
13553.00,-3.03,1.02,-10.68,-0.73,-0.22,0.93,-4.15,-27.52,-30.11,-1.00
13565.00,-3.77,-0.52,-8.24,-0.35,-0.58,0.53,-4.15,-27.52,-30.11,-1.00
13577.00,-3.77,-0.52,-8.24,-0.35,-0.58,0.53,-4.15,-27.52,-30.11,-1.00
13591.00,-3.17,-2.81,-8.47,-0.31,-0.36,0.23,-4.15,-27.52,-30.11,-1.00
13603.00,-3.17,-2.81,-8.47,-0.31,-0.36,0.23,-4.15,-27.52,-30.11,-1.00
13615.00,-0.95,-2.89,-10.08,-0.95,-0.25,0.34,2.28,-27.07,-32.80,-1.00
13627.00,-0.99,-2.82,-9.89,-1.29,-0.41,0.67,2.28,-27.07,-32.80,-1.00
13641.00,-0.99,-2.82,-9.89,-1.29,-0.41,0.67,2.28,-27.07,-32.80,-1.00
13653.00,-1.79,-2.21,-9.74,-1.23,-0.45,0.94,2.28,-27.07,-32.80,-1.00
13665.00,-1.55,-2.18,-9.83,-0.90,-0.33,0.93,2.28,-27.07,-32.80,-1.00
13677.00,-1.55,-2.18,-9.83,-0.90,-0.33,0.93,2.28,-27.07,-32.80,-1.00
13691.00,-1.79,-2.64,-9.31,-0.75,-0.21,0.82,2.28,-27.07,-32.80,-1.00
13703.00,-1.79,-2.64,-9.31,-0.75,-0.21,0.82,2.28,-27.07,-32.80,-1.00
13716.00,-2.51,-2.25,-10.37,-1.13,-0.07,0.76,2.28,-27.07,-32.80,-1.00
13729.00,-2.47,-2.24,-12.67,-1.49,-0.11,0.76,5.01,-22.82,-33.16,-1.00
13818.00,-2.49,0.27,-8.79,-0.42,-0.54,1.39,5.01,-22.82,-33.16,-1.00
13905.00,-2.29,-3.40,-9.87,-0.20,0.14,1.11,1.70,-20.85,-34.41,-1.00
13992.00,-0.86,-1.02,-8.95,-0.75,-0.09,0.69,7.94,-20.85,-34.41,-1.00
14006.00,-0.63,-2.86,-10.40,-0.33,0.14,0.67,7.94,-20.85,-34.41,-1.00
14018.00,-0.63,-2.86,-10.40,-0.33,0.14,0.67,7.94,-20.85,-34.41,-1.00
14030.00,-0.32,-1.61,-11.06,-0.42,-0.01,0.98,7.94,-20.85,-34.41,-1.00
14045.00,-0.32,-1.61,-11.06,-0.42,-0.01,0.98,7.94,-20.85,-34.41,-1.00
14056.00,-0.55,0.25,-10.13,-0.77,-0.33,1.14,7.94,-20.85,-34.41,-1.00
14068.00,-0.67,-0.30,-10.51,-0.73,-0.37,1.00,7.94,-20.85,-34.41,-1.00
14080.00,-0.67,-0.30,-10.51,-0.73,-0.37,1.00,7.94,-20.85,-34.41,-1.00
14094.00,0.02,-2.41,-10.94,-0.39,-0.37,0.83,10.47,-20.70,-34.95,-1.00
14106.00,-0.34,-1.85,-10.00,-0.40,-0.53,0.99,10.47,-20.70,-34.95,-1.00
14118.00,-0.34,-1.85,-10.00,-0.40,-0.53,0.99,10.47,-20.70,-34.95,-1.00
14130.00,-0.59,-0.09,-9.42,-0.47,-0.59,1.13,10.47,-20.70,-34.95,-1.00
14144.00,-0.59,-0.09,-9.42,-0.47,-0.59,1.13,10.47,-20.70,-34.95,-1.00
14156.00,-1.01,0.30,-9.54,-0.54,-0.56,1.05,10.47,-20.70,-34.95,-1.00
14168.00,-0.26,0.12,-10.37,-0.80,-0.57,0.93,10.47,-20.70,-34.95,-1.00
14182.00,-0.26,0.12,-10.37,-0.80,-0.57,0.93,10.47,-20.70,-34.95,-1.00
14194.00,-0.20,-1.55,-10.21,-0.84,-0.58,0.76,10.47,-20.70,-34.95,-1.00
14206.00,-0.12,-1.83,-10.54,-0.59,-0.49,0.82,10.47,-20.70,-34.95,-1.00
14218.00,-0.12,-1.83,-10.54,-0.59,-0.49,0.82,10.47,-20.70,-34.95,-1.00
14232.00,-0.74,-0.17,-10.51,-0.54,-0.57,1.05,10.67,-21.76,-34.41,-1.00
14244.00,-0.74,-0.17,-10.51,-0.54,-0.57,1.05,10.67,-21.76,-34.41,-1.00
14256.00,-0.60,0.27,-9.23,-0.73,-0.71,1.01,10.67,-21.76,-34.41,-1.00
14270.00,0.39,-1.21,-8.77,-0.90,-0.64,0.83,10.67,-21.76,-34.41,-1.00
14282.00,0.39,-1.21,-8.77,-0.90,-0.64,0.83,10.67,-21.76,-34.41,-1.00
14294.00,0.19,-1.86,-8.69,-1.07,-0.43,0.91,10.67,-21.76,-34.41,-1.00
14306.00,-0.51,-1.02,-9.69,-1.32,-0.23,1.08,10.67,-21.76,-34.41,-1.00
14320.00,-0.51,-1.02,-9.69,-1.32,-0.23,1.08,10.67,-21.76,-34.41,-1.00
14332.00,-0.45,0.09,-10.40,-1.39,-0.19,1.18,10.67,-21.76,-34.41,-1.00
14344.00,0.07,1.11,-10.36,-1.38,-0.30,1.13,12.62,-18.73,-33.69,-1.00
14356.00,0.07,1.11,-10.36,-1.38,-0.30,1.13,12.62,-18.73,-33.69,-1.00
14371.00,-0.17,0.43,-9.10,-1.33,-0.37,0.89,12.62,-18.73,-33.69,-1.00
14382.00,-0.17,0.43,-9.10,-1.33,-0.37,0.89,12.62,-18.73,-33.69,-1.00
14394.00,0.67,-0.61,-12.07,-1.34,-0.37,0.79,12.62,-18.73,-33.69,-1.00
14408.00,-0.63,0.46,-10.61,-1.08,-0.65,0.98,12.62,-18.73,-33.69,-1.00
14420.00,-0.63,0.46,-10.61,-1.08,-0.65,0.98,12.62,-18.73,-33.69,-1.00
14432.00,-0.03,1.00,-10.00,-0.93,-0.66,1.04,12.62,-18.73,-33.69,-1.00
14444.00,1.30,0.47,-10.12,-1.09,-0.71,0.99,12.62,-18.73,-33.69,-1.00
14458.00,1.30,0.47,-10.12,-1.09,-0.71,0.99,12.62,-18.73,-33.69,-1.00
14470.00,0.49,-0.17,-10.07,-1.13,-0.75,1.03,12.03,-14.03,-35.31,-1.00
14482.00,0.49,-0.17,-10.07,-1.13,-0.75,1.03,12.03,-14.03,-35.31,-1.00
14494.00,-0.49,0.70,-10.06,-1.03,-0.77,1.12,12.03,-14.03,-35.31,-1.00
14508.00,-1.03,1.21,-9.57,-0.82,-0.72,1.10,12.03,-14.03,-35.31,-1.00
14520.00,-1.03,1.21,-9.57,-0.82,-0.72,1.10,12.03,-14.03,-35.31,-1.00
14532.00,-0.20,0.70,-9.61,-0.98,-0.69,1.03,12.03,-14.03,-35.31,-1.00
14546.00,-0.26,0.93,-9.78,-1.30,-0.73,0.99,12.03,-14.03,-35.31,-1.00
14558.00,-0.26,0.93,-9.78,-1.30,-0.73,0.99,12.03,-14.03,-35.31,-1.00
14570.00,0.49,0.70,-9.57,-1.39,-0.81,0.93,12.03,-14.03,-35.31,-1.00
14582.00,0.49,0.70,-9.57,-1.39,-0.81,0.93,12.03,-14.03,-35.31,-1.00
14596.00,-0.17,1.49,-10.03,-1.62,-0.87,0.85,10.47,-11.30,-36.75,-1.00
14608.00,-0.59,1.38,-9.66,-1.56,-0.83,0.80,10.47,-11.30,-36.75,-1.00
14620.00,-0.59,1.38,-9.66,-1.56,-0.83,0.80,10.47,-11.30,-36.75,-1.00
14632.00,0.26,1.08,-9.17,-1.77,-0.89,0.81,10.47,-11.30,-36.75,-1.00
14647.00,0.96,1.58,-11.82,-2.70,-1.65,0.54,10.47,-11.30,-36.75,-1.00
14658.00,0.96,1.58,-11.82,-2.70,-1.65,0.54,10.47,-11.30,-36.75,-1.00
14670.00,-0.12,2.15,-10.90,-4.06,-1.22,0.82,10.47,-11.30,-36.75,-1.00
14685.00,-0.58,1.57,-5.60,-4.57,-1.01,1.31,10.47,-11.30,-36.75,-1.00
14696.00,-0.58,1.57,-5.60,-4.57,-1.01,1.31,10.47,-11.30,-36.75,-1.00
14708.00,-0.89,2.84,-5.85,-6.06,-0.58,1.49,6.77,4.32,-32.26,-1.00
14720.00,-0.89,2.84,-5.85,-6.06,-0.58,1.49,6.77,4.32,-32.26,-1.00
14734.00,-0.93,21.50,-23.16,-8.43,-0.11,1.74,6.77,4.32,-32.26,-1.00
14746.00,-0.06,13.10,-10.99,-2.39,-0.62,1.39,6.77,4.32,-32.26,-1.00
14758.00,-0.06,13.10,-10.99,-2.39,-0.62,1.39,6.77,4.32,-32.26,-1.00
14770.00,-0.65,4.37,-4.72,-0.81,-0.98,0.79,6.77,4.32,-32.26,-1.00
14784.00,-0.39,7.08,-8.52,-0.82,-0.57,1.02,6.77,4.32,-32.26,-1.00
14796.00,-0.39,7.08,-8.52,-0.82,-0.57,1.02,6.77,4.32,-32.26,-1.00
14808.00,-0.37,6.10,-7.67,-0.56,-0.66,0.87,6.77,4.32,-32.26,-1.00
14822.00,-0.37,6.10,-7.67,-0.56,-0.66,0.87,6.77,4.32,-32.26,-1.00
14834.00,-0.29,6.18,-7.73,-0.55,-0.65,0.88,6.77,4.32,-32.26,-1.00
14846.00,-0.26,6.22,-7.74,-0.55,-0.66,0.88,6.38,14.63,-28.67,-1.00
14858.00,-0.26,6.22,-7.74,-0.55,-0.66,0.88,6.38,14.63,-28.67,-1.00
14872.00,-0.28,6.24,-7.75,-0.55,-0.66,0.88,6.38,14.63,-28.67,-1.00
14884.00,-0.26,6.24,-7.75,-0.55,-0.66,0.88,6.38,14.63,-28.67,-1.00
14896.00,-0.26,6.24,-7.75,-0.55,-0.66,0.88,6.38,14.63,-28.67,-1.00
14908.00,-0.25,6.25,-7.74,-0.55,-0.66,0.88,6.38,14.63,-28.67,-1.00
14922.00,-0.25,6.25,-7.74,-0.55,-0.66,0.88,6.38,14.63,-28.67,-1.00
14934.00,-0.24,6.22,-7.74,-0.55,-0.66,0.88,6.38,14.63,-28.67,-1.00
14946.00,-0.24,6.23,-7.74,-0.55,-0.66,0.88,6.38,14.63,-28.67,-1.00
14958.00,-0.24,6.23,-7.74,-0.55,-0.66,0.88,6.38,14.63,-28.67,-1.00
14972.00,-0.26,6.22,-7.76,-0.55,-0.66,0.88,5.21,13.11,-27.95,-1.00
14984.00,-0.28,6.24,-7.75,-0.55,-0.66,0.88,5.21,13.11,-27.95,-1.00
14996.00,-0.28,6.24,-7.75,-0.55,-0.66,0.88,5.21,13.11,-27.95,-1.00
15008.00,-0.27,6.23,-7.71,-0.55,-0.66,0.88,5.21,13.11,-27.95,-1.00
15022.00,-0.27,6.23,-7.71,-0.55,-0.66,0.88,5.21,13.11,-27.95,-1.00
15034.00,-0.27,6.23,-7.73,-0.55,-0.66,0.88,5.21,13.11,-27.95,-1.00
15046.00,-0.24,6.23,-7.72,-0.55,-0.66,0.88,5.21,13.11,-27.95,-1.00
15060.00,-0.24,6.23,-7.72,-0.55,-0.66,0.88,5.21,13.11,-27.95,-1.00
15072.00,-0.25,6.24,-7.75,-0.55,-0.66,0.88,5.21,13.11,-27.95,-1.00
15084.00,-0.25,6.23,-7.75,-0.55,-0.65,0.88,6.57,12.65,-29.21,-1.00
15096.00,-0.25,6.23,-7.75,-0.55,-0.65,0.88,6.57,12.65,-29.21,-1.00
15111.00,-0.28,6.24,-7.76,-0.55,-0.65,0.88,6.57,12.65,-29.21,-1.00
15122.00,-0.28,6.24,-7.76,-0.55,-0.65,0.88,6.57,12.65,-29.21,-1.00
15134.00,-0.27,6.24,-7.75,-0.55,-0.66,0.88,6.57,12.65,-29.21,-1.00
15146.00,-0.27,6.23,-7.73,-0.55,-0.66,0.88,6.57,12.65,-29.21,-1.00
15160.00,-0.27,6.23,-7.73,-0.55,-0.66,0.88,6.57,12.65,-29.21,-1.00
15172.00,-0.25,6.23,-7.74,-0.55,-0.66,0.88,6.57,12.65,-29.21,-1.00
15184.00,-0.24,6.23,-7.72,-0.55,-0.66,0.88,6.57,12.65,-29.21,-1.00
15196.00,-0.24,6.23,-7.72,-0.55,-0.66,0.88,6.57,12.65,-29.21,-1.00
15210.00,-0.26,6.23,-7.76,-0.55,-0.66,0.88,6.18,14.78,-27.05,-1.00
15222.00,-0.26,6.23,-7.76,-0.55,-0.66,0.88,6.18,14.78,-27.05,-1.00
15234.00,-0.27,6.23,-7.74,-0.55,-0.66,0.88,6.18,14.78,-27.05,-1.00
15248.00,-0.28,6.24,-7.72,-0.55,-0.66,0.88,6.18,14.78,-27.05,-1.00
15260.00,-0.28,6.24,-7.72,-0.55,-0.66,0.88,6.18,14.78,-27.05,-1.00
15272.00,-0.26,6.22,-7.75,-0.55,-0.66,0.88,6.18,14.78,-27.05,-1.00
15285.00,-0.26,6.23,-7.73,-0.55,-0.66,0.88,6.18,14.78,-27.05,-1.00
15298.00,-0.26,6.23,-7.73,-0.55,-0.66,0.88,6.18,14.78,-27.05,-1.00
15310.00,-0.25,6.24,-7.73,-0.55,-0.66,0.88,6.18,14.78,-27.05,-1.00
15322.00,-0.25,6.24,-7.73,-0.55,-0.66,0.88,6.18,14.78,-27.05,-1.00
15334.00,-0.25,6.24,-7.74,-0.55,-0.66,0.88,5.40,14.78,-28.13,-1.00
15348.00,-0.25,6.24,-7.75,-0.55,-0.66,0.88,5.40,14.78,-28.13,-1.00
15360.00,-0.25,6.24,-7.75,-0.55,-0.66,0.88,5.40,14.78,-28.13,-1.00
15372.00,-0.26,6.23,-7.70,-0.55,-0.66,0.88,5.40,14.78,-28.13,-1.00
15384.00,-0.27,6.23,-7.75,-0.55,-0.66,0.88,5.40,14.78,-28.13,-1.00
15398.00,-0.27,6.23,-7.75,-0.55,-0.66,0.88,5.40,14.78,-28.13,-1.00
15410.00,-0.26,6.21,-7.73,-0.55,-0.66,0.88,5.40,14.78,-28.13,-1.00
15422.00,-0.26,6.21,-7.73,-0.55,-0.66,0.88,5.40,14.78,-28.13,-1.00
15437.00,-0.26,6.26,-7.75,-0.55,-0.66,0.88,5.40,14.78,-28.13,-1.00
15449.00,-0.27,6.25,-7.70,-0.55,-0.65,0.88,5.21,14.02,-28.31,-1.00
15461.00,-0.27,6.25,-7.70,-0.55,-0.65,0.88,5.21,14.02,-28.31,-1.00
15473.00,-0.27,6.25,-7.73,-0.55,-0.66,0.88,5.21,14.02,-28.31,-1.00
15487.00,-0.21,6.21,-7.75,-0.55,-0.66,0.88,5.21,14.02,-28.31,-1.00
15499.00,-0.21,6.21,-7.75,-0.55,-0.66,0.88,5.21,14.02,-28.31,-1.00
15511.00,-0.21,6.19,-7.75,-0.55,-0.65,0.88,5.21,14.02,-28.31,-1.00
15523.00,-0.24,6.22,-7.77,-0.55,-0.65,0.88,5.21,14.02,-28.31,-1.00
15537.00,-0.24,6.22,-7.77,-0.55,-0.65,0.88,5.21,14.02,-28.31,-1.00
15549.00,-0.29,6.25,-7.73,-0.55,-0.66,0.88,5.21,14.02,-28.31,-1.00
15561.00,-0.29,6.25,-7.73,-0.55,-0.66,0.88,5.21,14.02,-28.31,-1.00
15573.00,-0.32,6.27,-7.70,-0.55,-0.66,0.88,5.21,14.02,-28.31,-1.00
15587.00,-0.29,6.26,-7.73,-0.55,-0.66,0.88,6.18,14.17,-28.13,-1.00
15599.00,-0.29,6.26,-7.73,-0.55,-0.66,0.88,6.18,14.17,-28.13,-1.00
15611.00,-0.24,6.22,-7.73,-0.55,-0.66,0.88,6.18,14.17,-28.13,-1.00
15625.00,-0.24,6.22,-7.76,-0.55,-0.66,0.88,6.18,14.17,-28.13,-1.00
15637.00,-0.24,6.22,-7.76,-0.55,-0.66,0.88,6.18,14.17,-28.13,-1.00
15649.00,-0.23,6.20,-7.75,-0.55,-0.66,0.88,6.18,14.17,-28.13,-1.00
15661.00,-0.23,6.20,-7.75,-0.55,-0.66,0.88,6.18,14.17,-28.13,-1.00
15675.00,-0.27,6.24,-7.71,-0.55,-0.66,0.88,6.18,14.17,-28.13,-1.00
15687.00,-0.29,6.26,-7.73,-0.55,-0.66,0.88,6.18,14.17,-28.13,-1.00
15699.00,-0.29,6.26,-7.73,-0.55,-0.66,0.88,6.18,14.17,-28.13,-1.00
15711.00,-0.29,6.24,-7.73,-0.55,-0.66,0.88,6.38,14.63,-28.31,-1.00
15725.00,-0.27,6.22,-7.75,-0.55,-0.66,0.88,6.38,14.63,-28.31,-1.00
15737.00,-0.27,6.22,-7.75,-0.55,-0.66,0.88,6.38,14.63,-28.31,-1.00
15749.00,-0.23,6.23,-7.77,-0.55,-0.66,0.88,6.38,14.63,-28.31,-1.00
15761.00,-0.23,6.23,-7.77,-0.55,-0.66,0.88,6.38,14.63,-28.31,-1.00
15775.00,-0.24,6.22,-7.74,-0.55,-0.66,0.88,6.38,14.63,-28.31,-1.00
15787.00,-0.24,6.24,-7.74,-0.55,-0.66,0.88,6.38,14.63,-28.31,-1.00
15799.00,-0.24,6.24,-7.74,-0.55,-0.66,0.88,6.38,14.63,-28.31,-1.00
15813.00,-0.27,6.23,-7.71,-0.55,-0.66,0.88,6.38,14.63,-28.31,-1.00
15825.00,-0.30,6.24,-7.74,-0.55,-0.66,0.88,6.38,13.72,-28.31,-1.00
15837.00,-0.30,6.24,-7.74,-0.55,-0.66,0.88,6.38,13.72,-28.31,-1.00
15849.00,-0.27,6.23,-7.75,-0.55,-0.66,0.88,6.38,13.72,-28.31,-1.00
15863.00,-0.22,6.23,-7.75,-0.55,-0.66,0.88,6.38,13.72,-28.31,-1.00
15875.00,-0.22,6.23,-7.75,-0.55,-0.66,0.88,6.38,13.72,-28.31,-1.00
15887.00,-0.23,6.22,-7.76,-0.55,-0.66,0.88,6.38,13.72,-28.31,-1.00
15899.00,-0.23,6.22,-7.76,-0.55,-0.66,0.88,6.38,13.72,-28.31,-1.00
15913.00,-0.25,6.24,-7.73,-0.55,-0.66,0.88,6.38,13.72,-28.31,-1.00
15925.00,-0.28,6.24,-7.70,-0.55,-0.66,0.88,6.38,13.72,-28.31,-1.00
15937.00,-0.28,6.24,-7.70,-0.55,-0.66,0.88,6.38,13.72,-28.31,-1.00
15949.00,-0.30,6.23,-7.75,-0.55,-0.66,0.88,5.60,14.93,-29.03,-1.00
15964.00,-0.26,6.24,-7.74,-0.55,-0.66,0.88,5.60,14.93,-29.03,-1.00
15975.00,-0.26,6.24,-7.74,-0.55,-0.66,0.88,5.60,14.93,-29.03,-1.00
15987.00,-0.24,6.23,-7.75,-0.55,-0.66,0.88,5.60,14.93,-29.03,-1.00
16002.00,-0.24,6.23,-7.75,-0.55,-0.66,0.88,5.60,14.93,-29.03,-1.00
16013.00,-0.24,6.22,-7.74,-0.55,-0.66,0.88,5.60,14.93,-29.03,-1.00
16025.00,-0.25,6.25,-7.76,-0.55,-0.66,0.88,5.60,14.93,-29.03,-1.00
16037.00,-0.25,6.25,-7.76,-0.55,-0.66,0.88,5.60,14.93,-29.03,-1.00
16051.00,-0.27,6.23,-7.72,-0.55,-0.66,0.88,5.60,14.93,-29.03,-1.00
16063.00,-0.28,6.25,-7.73,-0.55,-0.66,0.88,7.16,13.41,-28.31,-1.00
16075.00,-0.28,6.25,-7.73,-0.55,-0.66,0.88,7.16,13.41,-28.31,-1.00
16087.00,-0.27,6.25,-7.74,-0.55,-0.66,0.88,7.16,13.41,-28.31,-1.00
16101.00,-0.27,6.25,-7.74,-0.55,-0.66,0.88,7.16,13.41,-28.31,-1.00
16190.00,-0.28,6.24,-7.72,-0.55,-0.66,0.88,7.16,13.41,-28.31,-1.00
16278.00,-0.23,6.23,-7.73,-0.55,-0.66,0.88,5.79,14.17,-28.49,-1.00
16366.00,-0.25,6.23,-7.73,-0.55,-0.66,0.88,5.01,13.26,-28.13,-1.00
16380.00,-0.25,6.23,-7.73,-0.55,-0.66,0.88,5.01,13.26,-28.13,-1.00
16392.00,-0.24,6.23,-7.74,-0.55,-0.66,0.88,5.01,13.26,-28.13,-1.00
16404.00,-0.24,6.23,-7.72,-0.55,-0.66,0.88,5.01,13.26,-28.13,-1.00
16418.00,-0.24,6.23,-7.72,-0.55,-0.66,0.88,5.01,13.26,-28.13,-1.00
16430.00,-0.27,6.24,-7.74,-0.55,-0.66,0.88,5.01,13.26,-28.13,-1.00
16442.00,-0.28,6.23,-7.76,-0.55,-0.66,0.88,6.77,12.81,-26.87,-1.00
16454.00,-0.28,6.23,-7.76,-0.55,-0.66,0.88,6.77,12.81,-26.87,-1.00
16469.00,-0.28,6.24,-7.74,-0.55,-0.66,0.88,6.77,12.81,-26.87,-1.00
16480.00,-0.28,6.24,-7.74,-0.55,-0.66,0.88,6.77,12.81,-26.87,-1.00
16492.00,-0.25,6.24,-7.73,-0.55,-0.66,0.88,6.77,12.81,-26.87,-1.00
16504.00,-0.23,6.24,-7.75,-0.55,-0.66,0.88,6.77,12.81,-26.87,-1.00
16518.00,-0.23,6.24,-7.75,-0.55,-0.66,0.88,6.77,12.81,-26.87,-1.00
16530.00,-0.23,6.21,-7.74,-0.55,-0.66,0.88,6.77,12.81,-26.87,-1.00
16542.00,-0.26,6.22,-7.71,-0.55,-0.66,0.88,6.77,12.81,-26.87,-1.00
16554.00,-0.26,6.22,-7.71,-0.55,-0.66,0.88,6.77,12.81,-26.87,-1.00
16568.00,-0.27,6.25,-7.75,-0.55,-0.66,0.88,5.21,13.72,-26.87,-1.00
16580.00,-0.27,6.25,-7.75,-0.55,-0.66,0.88,5.21,13.72,-26.87,-1.00
16592.00,-0.28,6.24,-7.74,-0.55,-0.66,0.88,5.21,13.72,-26.87,-1.00
16606.00,-0.25,6.23,-7.73,-0.55,-0.66,0.88,5.21,13.72,-26.87,-1.00
16618.00,-0.25,6.23,-7.73,-0.55,-0.66,0.88,5.21,13.72,-26.87,-1.00
16630.00,-0.26,6.22,-7.74,-0.55,-0.66,0.88,5.21,13.72,-26.87,-1.00
16642.00,-0.25,6.23,-7.72,-0.55,-0.66,0.88,5.21,13.72,-26.87,-1.00
16656.00,-0.25,6.23,-7.72,-0.55,-0.66,0.88,5.21,13.72,-26.87,-1.00
16668.00,-0.24,6.24,-7.74,-0.55,-0.66,0.88,5.21,13.72,-26.87,-1.00
16680.00,-0.24,6.24,-7.74,-0.55,-0.66,0.88,5.21,13.72,-26.87,-1.00
16692.00,-0.27,6.22,-7.76,-0.55,-0.66,0.88,6.38,12.81,-27.95,-1.00
16706.00,-0.28,6.21,-7.75,-0.55,-0.66,0.88,6.38,12.81,-27.95,-1.00
16718.00,-0.28,6.21,-7.75,-0.55,-0.66,0.88,6.38,12.81,-27.95,-1.00
16730.00,-0.27,6.23,-7.73,-0.55,-0.66,0.88,6.38,12.81,-27.95,-1.00
16742.00,-0.25,6.23,-7.76,-0.56,-0.66,0.88,6.38,12.81,-27.95,-1.00
16756.00,-0.25,6.23,-7.76,-0.56,-0.66,0.88,6.38,12.81,-27.95,-1.00
16769.00,-0.24,6.22,-7.74,-0.55,-0.66,0.88,6.38,12.81,-27.95,-1.00
16780.00,-0.24,6.22,-7.74,-0.55,-0.66,0.88,6.38,12.81,-27.95,-1.00
16794.00,-0.24,6.23,-7.72,-0.55,-0.66,0.88,6.38,12.81,-27.95,-1.00
16806.00,-0.25,6.23,-7.73,-0.55,-0.66,0.88,6.57,13.56,-27.77,-1.00
16818.00,-0.25,6.23,-7.73,-0.55,-0.66,0.88,6.57,13.56,-27.77,-1.00
16830.00,-0.27,6.25,-7.73,-0.55,-0.66,0.88,6.57,13.56,-27.77,-1.00
16844.00,-0.28,6.23,-7.74,-0.55,-0.65,0.88,6.57,13.56,-27.77,-1.00
16856.00,-0.28,6.23,-7.74,-0.55,-0.65,0.88,6.57,13.56,-27.77,-1.00
16868.00,-0.26,6.23,-7.73,-0.55,-0.66,0.88,6.57,13.56,-27.77,-1.00
16880.00,-0.26,6.23,-7.73,-0.55,-0.66,0.88,6.57,13.56,-27.77,-1.00
16895.00,-0.24,6.23,-7.75,-0.55,-0.66,0.88,6.57,13.56,-27.77,-1.00
16906.00,-0.24,6.23,-7.74,-0.55,-0.66,0.88,6.57,13.56,-27.77,-1.00
16918.00,-0.24,6.23,-7.74,-0.55,-0.66,0.88,6.57,13.56,-27.77,-1.00
16930.00,-0.24,6.23,-7.74,-0.55,-0.66,0.88,6.57,13.56,-27.77,-1.00
16944.00,-0.28,6.23,-7.73,-0.55,-0.66,0.88,3.65,14.32,-28.67,-1.00
16956.00,-0.28,6.23,-7.73,-0.55,-0.66,0.88,3.65,14.32,-28.67,-1.00
16968.00,-0.27,6.24,-7.76,-0.55,-0.66,0.88,3.65,14.32,-28.67,-1.00
16982.00,-0.26,6.22,-7.74,-0.55,-0.66,0.88,3.65,14.32,-28.67,-1.00
16994.00,-0.26,6.22,-7.74,-0.55,-0.66,0.88,3.65,14.32,-28.67,-1.00
17006.00,-0.26,6.23,-7.71,-0.55,-0.66,0.88,3.65,14.32,-28.67,-1.00
17018.00,-0.26,6.23,-7.71,-0.55,-0.66,0.88,3.65,14.32,-28.67,-1.00
17032.00,-0.25,6.23,-7.76,-0.55,-0.66,0.88,3.65,14.32,-28.67,-1.00
17044.00,-0.24,6.23,-7.75,-0.55,-0.66,0.88,3.65,14.32,-28.67,-1.00
17056.00,-0.24,6.23,-7.75,-0.55,-0.66,0.88,3.65,14.32,-28.67,-1.00
17068.00,-0.24,6.24,-7.76,-0.55,-0.66,0.88,6.18,15.08,-27.05,-1.00
17083.00,-0.26,6.24,-7.74,-0.55,-0.66,0.88,6.18,15.08,-27.05,-1.00
17094.00,-0.26,6.24,-7.74,-0.55,-0.66,0.88,6.18,15.08,-27.05,-1.00
17106.00,-0.28,6.24,-7.74,-0.55,-0.66,0.88,6.18,15.08,-27.05,-1.00
17118.00,-0.28,6.24,-7.74,-0.55,-0.66,0.88,6.18,15.08,-27.05,-1.00
17132.00,-0.27,6.23,-7.74,-0.55,-0.66,0.88,6.18,15.08,-27.05,-1.00
17144.00,-0.25,6.23,-7.72,-0.55,-0.66,0.88,6.18,15.08,-27.05,-1.00
17156.00,-0.25,6.23,-7.72,-0.55,-0.66,0.88,6.18,15.08,-27.05,-1.00
17170.00,-0.24,6.23,-7.73,-0.55,-0.66,0.88,6.18,15.08,-27.05,-1.00
17182.00,-0.26,6.23,-7.77,-0.55,-0.66,0.88,5.79,13.87,-28.13,-1.00
17194.00,-0.26,6.23,-7.77,-0.55,-0.66,0.88,5.79,13.87,-28.13,-1.00
17206.00,-0.27,6.23,-7.74,-0.55,-0.66,0.88,5.79,13.87,-28.13,-1.00
17220.00,-0.28,6.24,-7.75,-0.55,-0.66,0.88,5.79,13.87,-28.13,-1.00
17232.00,-0.28,6.24,-7.75,-0.55,-0.66,0.88,5.79,13.87,-28.13,-1.00
17244.00,-0.27,6.23,-7.72,-0.55,-0.66,0.88,5.79,13.87,-28.13,-1.00
17256.00,-0.27,6.23,-7.72,-0.55,-0.66,0.88,5.79,13.87,-28.13,-1.00
17270.00,-0.25,6.23,-7.75,-0.55,-0.66,0.88,5.79,13.87,-28.13,-1.00
17282.00,-0.24,6.23,-7.73,-0.55,-0.66,0.88,5.79,13.87,-28.13,-1.00
17294.00,-0.24,6.23,-7.73,-0.55,-0.66,0.88,5.79,13.87,-28.13,-1.00
17306.00,-0.25,6.23,-7.74,-0.55,-0.66,0.88,5.99,13.72,-29.03,-1.00
17320.00,-0.27,6.24,-7.74,-0.55,-0.66,0.88,5.99,13.72,-29.03,-1.00
17332.00,-0.27,6.24,-7.74,-0.55,-0.66,0.88,5.99,13.72,-29.03,-1.00
17344.00,-0.26,6.23,-7.70,-0.55,-0.66,0.88,5.99,13.72,-29.03,-1.00
17359.00,-0.26,6.23,-7.70,-0.55,-0.66,0.88,5.99,13.72,-29.03,-1.00
17370.00,-0.28,6.22,-7.73,-0.55,-0.66,0.88,5.99,13.72,-29.03,-1.00
17382.00,-0.27,6.24,-7.74,-0.55,-0.66,0.88,5.99,13.72,-29.03,-1.00
17394.00,-0.27,6.24,-7.74,-0.55,-0.66,0.88,5.99,13.72,-29.03,-1.00
17408.00,-0.25,6.22,-7.73,-0.55,-0.65,0.88,5.99,13.72,-29.03,-1.00
17420.00,-0.25,6.24,-7.74,-0.55,-0.66,0.88,6.96,14.78,-27.41,-1.00
17432.00,-0.25,6.24,-7.74,-0.55,-0.66,0.88,6.96,14.78,-27.41,-1.00
17444.00,-0.25,6.23,-7.75,-0.55,-0.66,0.88,6.96,14.78,-27.41,-1.00
17458.00,-0.25,6.23,-7.75,-0.55,-0.66,0.88,6.96,14.78,-27.41,-1.00
17470.00,-0.26,6.23,-7.76,-0.55,-0.66,0.88,6.96,14.78,-27.41,-1.00
17482.00,-0.28,6.23,-7.74,-0.55,-0.66,0.88,6.96,14.78,-27.41,-1.00
17494.00,-0.28,6.23,-7.74,-0.55,-0.66,0.88,6.96,14.78,-27.41,-1.00
17509.00,-0.26,6.22,-7.72,-0.55,-0.66,0.88,6.96,14.78,-27.41,-1.00
17520.00,-0.25,6.23,-7.76,-0.55,-0.66,0.88,6.96,14.78,-27.41,-1.00
17532.00,-0.25,6.23,-7.76,-0.55,-0.66,0.88,6.96,14.78,-27.41,-1.00
17546.00,-0.25,6.24,-7.76,-0.55,-0.66,0.88,6.96,14.78,-27.41,-1.00
17558.00,-0.25,6.24,-7.76,-0.55,-0.66,0.88,6.96,14.78,-27.41,-1.00
17570.00,-0.26,6.22,-7.74,-0.55,-0.66,0.88,4.23,15.69,-28.49,-1.00
17582.00,-0.27,6.24,-7.73,-0.55,-0.66,0.88,4.23,15.69,-28.49,-1.00
17596.00,-0.27,6.24,-7.73,-0.55,-0.66,0.88,4.23,15.69,-28.49,-1.00
17608.00,-0.28,6.23,-7.74,-0.55,-0.66,0.88,4.23,15.69,-28.49,-1.00
17620.00,-0.27,6.24,-7.76,-0.55,-0.65,0.88,4.23,15.69,-28.49,-1.00
17632.00,-0.27,6.24,-7.76,-0.55,-0.65,0.88,4.23,15.69,-28.49,-1.00
17646.00,-0.25,6.23,-7.75,-0.55,-0.66,0.88,4.23,15.69,-28.49,-1.00
17658.00,-0.25,6.23,-7.75,-0.55,-0.66,0.88,4.23,15.69,-28.49,-1.00
17670.00,-0.24,6.23,-7.73,-0.55,-0.66,0.88,4.23,15.69,-28.49,-1.00
17682.00,-0.27,6.23,-7.74,-0.55,-0.66,0.88,6.96,13.56,-28.85,-1.00
17697.00,-0.27,6.23,-7.74,-0.55,-0.66,0.88,6.96,13.56,-28.85,-1.00
17708.00,-0.25,6.25,-7.76,-0.55,-0.66,0.88,6.96,13.56,-28.85,-1.00
17720.00,-0.29,6.23,-7.73,-0.55,-0.66,0.88,6.96,13.56,-28.85,-1.00
17734.00,-0.29,6.23,-7.73,-0.55,-0.66,0.88,6.96,13.56,-28.85,-1.00
17746.00,-0.27,6.23,-7.75,-0.55,-0.66,0.88,6.96,13.56,-28.85,-1.00
17758.00,-0.27,6.23,-7.75,-0.55,-0.66,0.88,6.96,13.56,-28.85,-1.00
17770.00,-0.27,6.23,-7.72,-0.55,-0.66,0.88,6.96,13.56,-28.85,-1.00
17784.00,-0.27,6.23,-7.74,-0.55,-0.66,0.88,6.96,13.56,-28.85,-1.00
17873.00,-0.28,6.24,-7.74,-0.55,-0.66,0.88,6.57,13.56,-28.49,-1.00
17960.00,-0.25,6.24,-7.74,-0.55,-0.66,0.88,5.40,14.17,-26.70,-1.00
18047.00,0.74,6.45,-7.75,-0.54,-0.84,1.12,5.21,14.32,-28.31,-1.00
18061.00,-1.09,5.21,-8.25,-0.54,-1.24,1.61,5.21,14.32,-28.31,-1.00
18073.00,-1.09,5.21,-8.25,-0.54,-1.24,1.61,5.21,14.32,-28.31,-1.00
18085.00,-0.94,7.44,-7.10,-0.99,-0.73,0.61,5.21,14.32,-28.31,-1.00
18097.00,-0.94,7.44,-7.10,-0.99,-0.73,0.61,5.21,14.32,-28.31,-1.00
18112.00,-0.53,6.17,-7.53,-2.22,-0.76,-0.50,5.21,14.32,-28.31,-1.00
18123.00,0.03,5.58,-9.23,-1.67,-0.66,0.25,5.21,14.32,-28.31,-1.00
18135.00,0.03,5.58,-9.23,-1.67,-0.66,0.25,5.21,14.32,-28.31,-1.00
18149.00,-0.38,7.07,-6.81,-0.69,-1.05,1.22,5.21,14.32,-28.31,-1.00
18161.00,-0.80,7.05,-6.78,-0.58,-1.07,1.28,4.04,17.05,-25.08,-1.00
18173.00,-0.80,7.05,-6.78,-0.58,-1.07,1.28,4.04,17.05,-25.08,-1.00
18185.00,-0.51,6.69,-7.38,-0.48,-0.90,1.19,4.04,17.05,-25.08,-1.00
18199.00,-0.79,7.15,-6.96,-0.63,-0.93,1.11,4.04,17.05,-25.08,-1.00
18211.00,-0.79,7.15,-6.96,-0.63,-0.93,1.11,4.04,17.05,-25.08,-1.00
18223.00,-0.44,6.45,-7.53,-0.84,-0.89,0.95,4.04,17.05,-25.08,-1.00
18235.00,-0.44,6.45,-7.53,-0.84,-0.89,0.95,4.04,17.05,-25.08,-1.00
18249.00,-0.82,6.85,-7.28,-0.99,-1.03,0.99,4.04,17.05,-25.08,-1.00
18261.00,-0.92,7.14,-6.87,-0.79,-0.97,1.02,4.04,17.05,-25.08,-1.00
18273.00,-0.92,7.14,-6.87,-0.79,-0.97,1.02,4.04,17.05,-25.08,-1.00
18285.00,-0.81,6.92,-7.04,-0.66,-0.78,0.91,4.04,17.05,-25.08,-1.00
18299.00,-0.74,6.92,-7.15,-0.64,-0.68,0.88,2.67,16.90,-24.90,-1.00
18311.00,-0.74,6.92,-7.15,-0.64,-0.68,0.88,2.67,16.90,-24.90,-1.00
18323.00,-0.69,6.90,-7.09,-0.56,-0.63,0.89,2.67,16.90,-24.90,-1.00
18337.00,-0.69,6.90,-7.09,-0.56,-0.63,0.89,2.67,16.90,-24.90,-1.00
18349.00,-0.74,6.85,-7.08,-0.35,-0.59,0.99,2.67,16.90,-24.90,-1.00
18361.00,-0.44,6.71,-7.39,-0.08,-0.58,1.13,2.67,16.90,-24.90,-1.00
18373.00,-0.44,6.71,-7.39,-0.08,-0.58,1.13,2.67,16.90,-24.90,-1.00
18388.00,-0.54,6.86,-7.26,-0.17,-0.72,1.12,2.67,16.90,-24.90,-1.00
18399.00,-0.69,6.80,-7.21,-0.59,-0.81,0.92,2.67,16.90,-24.90,-1.00
18412.00,-0.69,6.80,-7.21,-0.59,-0.81,0.92,2.67,16.90,-24.90,-1.00
18423.00,-0.77,6.77,-7.07,-0.70,-0.74,0.84,2.28,17.51,-27.05,-1.00
18437.00,-0.77,6.77,-7.07,-0.70,-0.74,0.84,2.28,17.51,-27.05,-1.00
18449.00,-0.65,6.83,-7.20,-0.48,-0.55,0.90,2.28,17.51,-27.05,-1.00
18461.00,-0.57,6.77,-7.26,-0.21,-0.47,0.99,2.28,17.51,-27.05,-1.00
18473.00,-0.57,6.77,-7.26,-0.21,-0.47,0.99,2.28,17.51,-27.05,-1.00
18487.00,-0.48,6.66,-7.39,-0.04,-0.47,1.01,2.28,17.51,-27.05,-1.00
18499.00,-0.51,6.55,-7.41,-0.17,-0.53,0.98,2.28,17.51,-27.05,-1.00
18511.00,-0.51,6.55,-7.41,-0.17,-0.53,0.98,2.28,17.51,-27.05,-1.00
18525.00,-0.51,6.52,-7.46,-0.21,-0.52,0.98,2.28,17.51,-27.05,-1.00
18537.00,-0.51,6.52,-7.46,-0.21,-0.52,0.98,2.28,17.51,-27.05,-1.00
18549.00,-0.45,6.51,-7.56,-0.28,-0.53,0.96,5.60,15.84,-27.59,-1.00
18561.00,-0.44,6.49,-7.51,-0.32,-0.55,0.94,5.60,15.84,-27.59,-1.00
18576.00,-0.44,6.49,-7.51,-0.32,-0.55,0.94,5.60,15.84,-27.59,-1.00
18587.00,-0.30,6.39,-7.59,-0.29,-0.53,0.92,5.60,15.84,-27.59,-1.00
18599.00,-0.35,6.40,-7.57,-0.38,-0.56,0.92,5.60,15.84,-27.59,-1.00
18611.00,-0.35,6.40,-7.57,-0.38,-0.56,0.92,5.60,15.84,-27.59,-1.00
18625.00,-0.35,6.37,-7.63,-0.39,-0.56,0.95,5.60,15.84,-27.59,-1.00
18637.00,-0.35,6.37,-7.63,-0.39,-0.56,0.95,5.60,15.84,-27.59,-1.00
18649.00,-0.35,6.37,-7.59,-0.34,-0.59,0.99,5.60,15.84,-27.59,-1.00
18661.00,-0.29,6.36,-7.72,-0.22,-0.58,1.06,5.60,14.63,-28.67,-1.00
18675.00,-0.29,6.36,-7.72,-0.22,-0.58,1.06,5.60,14.63,-28.67,-1.00
18687.00,-0.27,6.29,-7.75,-0.28,-0.64,1.01,5.60,14.63,-28.67,-1.00
18699.00,-0.28,6.27,-7.74,-0.37,-0.68,0.96,5.60,14.63,-28.67,-1.00
18711.00,-0.28,6.27,-7.74,-0.37,-0.68,0.96,5.60,14.63,-28.67,-1.00
18726.00,-0.21,6.20,-7.78,-0.45,-0.69,0.91,5.60,14.63,-28.67,-1.00
18812.00,-0.31,6.16,-7.76,-0.51,-0.58,0.78,4.04,14.02,-28.67,-1.00
18901.00,-0.31,5.95,-8.03,-0.57,-0.44,0.68,4.04,14.02,-28.67,-1.00
18915.00,-0.31,5.95,-8.03,-0.57,-0.44,0.68,4.04,14.02,-28.67,-1.00
18927.00,-0.29,5.95,-7.99,-0.55,-0.50,0.72,5.21,14.63,-28.67,-1.00
18939.00,-0.26,6.05,-7.90,-0.52,-0.61,0.83,5.21,14.63,-28.67,-1.00
18951.00,-0.26,6.05,-7.90,-0.52,-0.61,0.83,5.21,14.63,-28.67,-1.00
18965.00,-0.21,6.14,-7.84,-0.54,-0.63,0.87,5.21,14.63,-28.67,-1.00
18977.00,-0.21,6.14,-7.84,-0.54,-0.63,0.87,5.21,14.63,-28.67,-1.00
18989.00,-0.22,6.20,-7.81,-0.58,-0.64,0.89,5.21,14.63,-28.67,-1.00
19001.00,-0.21,6.20,-7.80,-0.59,-0.67,0.88,5.21,14.63,-28.67,-1.00
19015.00,-0.21,6.20,-7.80,-0.59,-0.67,0.88,5.21,14.63,-28.67,-1.00
19027.00,-0.43,6.16,-7.83,-0.61,-0.73,0.90,5.21,14.63,-28.67,-1.00
19039.00,-0.67,6.56,-8.21,-0.80,-0.95,1.10,5.79,13.56,-29.57,-1.00
19051.00,-0.67,6.56,-8.21,-0.80,-0.95,1.10,5.79,13.56,-29.57,-1.00
19065.00,-0.03,6.18,-7.13,-0.66,-1.27,1.18,5.79,13.56,-29.57,-1.00
19077.00,-0.03,6.18,-7.13,-0.66,-1.27,1.18,5.79,13.56,-29.57,-1.00
19089.00,-0.16,5.74,-7.25,-0.46,-1.07,1.14,5.79,13.56,-29.57,-1.00
19103.00,1.38,5.49,-4.55,-0.47,-0.54,0.94,5.79,13.56,-29.57,-1.00
19115.00,1.38,5.49,-4.55,-0.47,-0.54,0.94,5.79,13.56,-29.57,-1.00
19127.00,-0.23,6.23,-8.06,-0.39,-0.18,0.69,5.79,13.56,-29.57,-1.00
19139.00,-0.64,6.08,-7.90,-0.45,-0.20,0.55,5.79,13.56,-29.57,-1.00
19154.00,-0.64,6.08,-7.90,-0.45,-0.20,0.55,5.79,13.56,-29.57,-1.00
19165.00,-0.17,6.19,-7.89,-0.55,-0.38,0.62,5.60,13.72,-27.23,-1.00
