time,ax,ay,az,gx,gy,gz,mx,my,mz,pressure
1.00,-0.29,6.22,-7.71,-0.55,-0.66,0.88,5.01,13.56,-28.13,-1.00
13.00,-0.23,6.21,-7.75,-0.55,-0.66,0.88,5.40,14.17,-28.49,-1.00
25.00,-0.23,6.21,-7.75,-0.55,-0.66,0.88,5.40,14.17,-28.49,-1.00
37.00,-0.20,6.21,-7.76,-0.55,-0.66,0.88,5.40,14.17,-28.49,-1.00
98.00,-0.28,6.23,-7.70,-0.55,-0.66,0.88,5.40,14.17,-28.49,-1.00
110.00,-0.28,6.23,-7.70,-0.55,-0.66,0.88,5.40,14.17,-28.49,-1.00
122.00,-0.28,6.24,-7.73,-0.55,-0.66,0.88,5.40,14.17,-28.49,-1.00
137.00,-0.26,6.22,-7.75,-0.55,-0.66,0.88,5.40,14.17,-28.49,-1.00
149.00,-0.26,6.22,-7.75,-0.55,-0.66,0.88,5.40,14.17,-28.49,-1.00
161.00,-0.23,6.20,-7.78,-0.55,-0.66,0.88,4.43,14.02,-29.39,-1.00
173.00,-0.24,6.20,-7.79,-0.55,-0.66,0.88,4.43,14.02,-29.39,-1.00
187.00,-0.24,6.20,-7.79,-0.55,-0.66,0.88,4.43,14.02,-29.39,-1.00
199.00,-0.23,6.21,-7.75,-0.55,-0.66,0.88,4.43,14.02,-29.39,-1.00
211.00,-0.23,6.21,-7.75,-0.55,-0.66,0.88,4.43,14.02,-29.39,-1.00
223.00,-0.30,6.21,-7.73,-0.55,-0.66,0.88,4.43,14.02,-29.39,-1.00
238.00,-0.31,6.25,-7.74,-0.55,-0.66,0.88,4.43,14.02,-29.39,-1.00
250.00,-0.31,6.25,-7.74,-0.55,-0.66,0.88,4.43,14.02,-29.39,-1.00
262.00,-0.28,6.25,-7.71,-0.55,-0.66,0.88,4.43,14.02,-29.39,-1.00
274.00,-0.23,6.22,-7.73,-0.55,-0.66,0.88,4.23,13.87,-28.13,-1.00
290.00,-0.23,6.22,-7.73,-0.55,-0.66,0.88,4.23,13.87,-28.13,-1.00
301.00,-0.21,6.23,-7.75,-0.55,-0.66,0.88,4.23,13.87,-28.13,-1.00
313.00,-0.22,6.21,-7.73,-0.55,-0.66,0.88,4.23,13.87,-28.13,-1.00
325.00,-0.22,6.21,-7.73,-0.55,-0.66,0.88,4.23,13.87,-28.13,-1.00
339.00,-0.26,6.22,-7.72,-0.55,-0.66,0.88,4.23,13.87,-28.13,-1.00
351.00,-0.26,6.22,-7.72,-0.55,-0.66,0.88,4.23,13.87,-28.13,-1.00
363.00,-0.31,6.23,-7.73,-0.55,-0.66,0.88,4.23,13.87,-28.13,-1.00
375.00,-0.29,6.24,-7.70,-0.55,-0.66,0.88,4.23,13.87,-28.13,-1.00
389.00,-0.29,6.24,-7.70,-0.55,-0.66,0.88,4.23,13.87,-28.13,-1.00
401.00,-0.26,6.24,-7.75,-0.55,-0.66,0.88,5.21,14.32,-28.67,-1.00
413.00,-0.22,6.21,-7.75,-0.55,-0.66,0.88,5.21,14.32,-28.67,-1.00
425.00,-0.22,6.21,-7.75,-0.55,-0.66,0.88,5.21,14.32,-28.67,-1.00
439.00,-0.22,6.21,-7.75,-0.55,-0.66,0.88,5.21,14.32,-28.67,-1.00
451.00,-0.22,6.21,-7.75,-0.55,-0.66,0.88,5.21,14.32,-28.67,-1.00
463.00,-0.25,6.22,-7.76,-0.55,-0.66,0.88,5.21,14.32,-28.67,-1.00
475.00,-0.29,6.22,-7.73,-0.55,-0.66,0.88,5.21,14.32,-28.67,-1.00
489.00,-0.29,6.22,-7.73,-0.55,-0.66,0.88,5.21,14.32,-28.67,-1.00
501.00,-0.30,6.24,-7.72,-0.55,-0.66,0.88,5.21,14.32,-28.67,-1.00
513.00,-0.28,6.23,-7.75,-0.55,-0.66,0.88,5.40,13.87,-28.49,-1.00
525.00,-0.28,6.23,-7.75,-0.55,-0.66,0.88,5.40,13.87,-28.49,-1.00
539.00,-0.24,6.22,-7.76,-0.55,-0.66,0.88,5.40,13.87,-28.49,-1.00
551.00,-0.24,6.22,-7.76,-0.55,-0.66,0.88,5.40,13.87,-28.49,-1.00
563.00,-0.23,6.22,-7.78,-0.55,-0.66,0.88,5.40,13.87,-28.49,-1.00
577.00,-0.24,6.21,-7.74,-0.55,-0.66,0.88,5.40,13.87,-28.49,-1.00
589.00,-0.24,6.21,-7.74,-0.55,-0.66,0.88,5.40,13.87,-28.49,-1.00
601.00,-0.26,6.23,-7.73,-0.55,-0.66,0.88,5.40,13.87,-28.49,-1.00
613.00,-0.29,6.24,-7.73,-0.55,-0.66,0.88,5.40,13.87,-28.49,-1.00
627.00,-0.29,6.24,-7.73,-0.55,-0.66,0.88,5.40,13.87,-28.49,-1.00
639.00,-0.29,6.25,-7.73,-0.55,-0.66,0.88,5.01,14.47,-27.77,-1.00
651.00,-0.29,6.25,-7.73,-0.55,-0.66,0.88,5.01,14.47,-27.77,-1.00
663.00,-0.27,6.23,-7.74,-0.55,-0.66,0.88,5.01,14.47,-27.77,-1.00
677.00,-0.23,6.22,-7.75,-0.55,-0.66,0.88,5.01,14.47,-27.77,-1.00
689.00,-0.23,6.22,-7.75,-0.55,-0.66,0.88,5.01,14.47,-27.77,-1.00
701.00,-0.22,6.20,-7.76,-0.55,-0.66,0.88,5.01,14.47,-27.77,-1.00
713.00,-0.26,6.22,-7.73,-0.55,-0.66,0.88,5.01,14.47,-27.77,-1.00
727.00,-0.26,6.22,-7.73,-0.55,-0.66,0.88,5.01,14.47,-27.77,-1.00
739.00,-0.28,6.24,-7.74,-0.55,-0.66,0.88,5.01,14.47,-27.77,-1.00
751.00,-0.28,6.24,-7.74,-0.55,-0.66,0.88,5.01,14.47,-27.77,-1.00
763.00,-0.30,6.23,-7.73,-0.55,-0.66,0.88,5.01,14.47,-27.77,-1.00
777.00,-0.28,6.23,-7.76,-0.55,-0.66,0.88,5.01,14.78,-29.57,-1.00
789.00,-0.28,6.23,-7.76,-0.55,-0.66,0.88,5.01,14.78,-29.57,-1.00
801.00,-0.24,6.22,-7.74,-0.55,-0.66,0.88,5.01,14.78,-29.57,-1.00
813.00,-0.22,6.21,-7.76,-0.55,-0.66,0.88,5.01,14.78,-29.57,-1.00
827.00,-0.22,6.21,-7.76,-0.55,-0.66,0.88,5.01,14.78,-29.57,-1.00
839.00,-0.23,6.22,-7.74,-0.55,-0.66,0.88,5.01,14.78,-29.57,-1.00
851.00,-0.23,6.22,-7.74,-0.55,-0.66,0.88,5.01,14.78,-29.57,-1.00
863.00,-0.27,6.23,-7.73,-0.55,-0.66,0.88,5.01,14.78,-29.57,-1.00
877.00,-0.28,6.24,-7.76,-0.55,-0.66,0.88,5.01,14.78,-29.57,-1.00
889.00,-0.28,6.24,-7.76,-0.55,-0.66,0.88,5.01,14.78,-29.57,-1.00
901.00,-0.31,6.23,-7.73,-0.55,-0.66,0.88,6.57,14.47,-27.77,-1.00
913.00,-0.27,6.22,-7.74,-0.55,-0.66,0.88,6.57,14.47,-27.77,-1.00
927.00,-0.27,6.22,-7.74,-0.55,-0.66,0.88,6.57,14.47,-27.77,-1.00
939.00,-0.23,6.22,-7.77,-0.55,-0.66,0.88,6.57,14.47,-27.77,-1.00
951.00,-0.23,6.22,-7.77,-0.55,-0.66,0.88,6.57,14.47,-27.77,-1.00
965.00,-0.23,6.22,-7.76,-0.55,-0.66,0.88,6.57,14.47,-27.77,-1.00
977.00,-0.26,6.23,-7.75,-0.55,-0.66,0.88,6.57,14.47,-27.77,-1.00
989.00,-0.26,6.23,-7.75,-0.55,-0.66,0.88,6.57,14.47,-27.77,-1.00
1001.00,-0.28,6.23,-7.74,-0.55,-0.66,0.88,6.57,14.47,-27.77,-1.00
1015.00,-0.29,6.23,-7.74,-0.55,-0.66,0.88,7.35,13.87,-27.05,-1.00
1027.00,-0.29,6.23,-7.74,-0.55,-0.66,0.88,7.35,13.87,-27.05,-1.00
1039.00,-0.28,6.23,-7.74,-0.55,-0.66,0.88,7.35,13.87,-27.05,-1.00
1051.00,-0.28,6.23,-7.74,-0.55,-0.66,0.88,7.35,13.87,-27.05,-1.00
1065.00,-0.24,6.22,-7.73,-0.55,-0.66,0.88,7.35,13.87,-27.05,-1.00
1077.00,-0.23,6.22,-7.75,-0.55,-0.66,0.88,7.35,13.87,-27.05,-1.00
1089.00,-0.23,6.22,-7.75,-0.55,-0.66,0.88,7.35,13.87,-27.05,-1.00
1101.00,-0.25,6.23,-7.74,-0.55,-0.66,0.88,7.35,13.87,-27.05,-1.00
1115.00,-0.26,6.23,-7.74,-0.55,-0.66,0.88,7.35,13.87,-27.05,-1.00
1127.00,-0.26,6.23,-7.74,-0.55,-0.66,0.88,7.35,13.87,-27.05,-1.00
1139.00,-0.28,6.23,-7.75,-0.55,-0.66,0.88,4.04,14.32,-28.31,-1.00
1152.00,-0.29,6.22,-7.73,-0.55,-0.66,0.88,4.04,14.32,-28.31,-1.00
1166.00,-0.29,6.22,-7.73,-0.55,-0.66,0.88,4.04,14.32,-28.31,-1.00
1253.00,-0.27,6.22,-7.73,-0.55,-0.66,0.88,5.79,13.56,-27.41,-1.00
1342.00,-0.24,6.21,-7.74,-0.55,-0.66,0.88,5.79,13.56,-27.41,-1.00
1429.00,-0.28,6.23,-7.73,-0.55,-0.66,0.88,5.21,14.02,-27.23,-1.00
1444.00,-0.26,6.23,-7.72,-0.55,-0.66,0.88,5.21,14.02,-27.23,-1.00
1455.00,-0.25,6.21,-7.73,-0.55,-0.66,0.88,5.21,14.02,-27.23,-1.00
1467.00,-0.25,6.21,-7.73,-0.55,-0.66,0.88,5.21,14.02,-27.23,-1.00
1481.00,-0.23,6.22,-7.72,-0.55,-0.66,0.88,5.21,14.02,-27.23,-1.00
1493.00,-0.25,6.23,-7.74,-0.55,-0.66,0.88,5.21,14.02,-27.23,-1.00
1505.00,-0.25,6.23,-7.74,-0.55,-0.66,0.88,5.21,14.02,-27.23,-1.00
1517.00,-0.26,6.24,-7.72,-0.55,-0.66,0.88,4.82,14.02,-27.95,-1.00
1531.00,-0.27,6.23,-7.72,-0.55,-0.66,0.88,4.82,14.02,-27.95,-1.00
1543.00,-0.27,6.23,-7.72,-0.55,-0.66,0.88,4.82,14.02,-27.95,-1.00
1555.00,-0.26,6.24,-7.72,-0.55,-0.66,0.88,4.82,14.02,-27.95,-1.00
1567.00,-0.26,6.24,-7.72,-0.55,-0.66,0.88,4.82,14.02,-27.95,-1.00
1581.00,-0.23,6.22,-7.76,-0.55,-0.66,0.88,4.82,14.02,-27.95,-1.00
1593.00,-0.23,6.22,-7.73,-0.55,-0.66,0.88,4.82,14.02,-27.95,-1.00
1605.00,-0.23,6.22,-7.73,-0.55,-0.66,0.88,4.82,14.02,-27.95,-1.00
1617.00,-0.26,6.23,-7.75,-0.55,-0.66,0.88,4.82,14.02,-27.95,-1.00
1631.00,-0.28,6.24,-7.75,-0.55,-0.66,0.88,4.04,14.32,-28.67,-1.00
1643.00,-0.28,6.24,-7.75,-0.55,-0.66,0.88,4.04,14.32,-28.67,-1.00
1655.00,-0.28,6.22,-7.74,-0.55,-0.66,0.88,4.04,14.32,-28.67,-1.00
1667.00,-0.28,6.22,-7.74,-0.55,-0.66,0.88,4.04,14.32,-28.67,-1.00
1681.00,-0.28,6.24,-7.76,-0.55,-0.66,0.88,4.04,14.32,-28.67,-1.00
1693.00,-0.25,6.22,-7.71,-0.55,-0.66,0.88,4.04,14.32,-28.67,-1.00
1705.00,-0.25,6.22,-7.71,-0.55,-0.66,0.88,4.04,14.32,-28.67,-1.00
1719.00,-0.25,6.22,-7.75,-0.55,-0.66,0.88,4.04,14.32,-28.67,-1.00
1731.00,-0.24,6.21,-7.75,-0.55,-0.66,0.88,4.04,14.32,-28.67,-1.00
1743.00,-0.24,6.21,-7.75,-0.55,-0.66,0.88,4.04,14.32,-28.67,-1.00
1755.00,-0.26,6.23,-7.76,-0.55,-0.66,0.88,3.45,13.87,-27.77,-1.00
1770.00,-0.26,6.23,-7.76,-0.55,-0.66,0.88,3.45,13.87,-27.77,-1.00
1781.00,-0.27,6.23,-7.73,-0.55,-0.66,0.88,3.45,13.87,-27.77,-1.00
1793.00,-0.27,6.23,-7.71,-0.55,-0.66,0.88,3.45,13.87,-27.77,-1.00
1805.00,-0.27,6.23,-7.71,-0.55,-0.66,0.88,3.45,13.87,-27.77,-1.00
1819.00,-0.27,6.22,-7.73,-0.55,-0.66,0.88,3.45,13.87,-27.77,-1.00
1831.00,-0.25,6.22,-7.74,-0.55,-0.66,0.88,3.45,13.87,-27.77,-1.00
1843.00,-0.25,6.22,-7.74,-0.55,-0.66,0.88,3.45,13.87,-27.77,-1.00
1855.00,-0.25,6.22,-7.75,-0.55,-0.66,0.88,3.45,13.87,-27.77,-1.00
1869.00,-0.25,6.22,-7.75,-0.55,-0.66,0.88,3.45,13.87,-27.77,-1.00
1881.00,-0.26,6.23,-7.76,-0.55,-0.66,0.88,5.01,14.47,-27.05,-1.00
1893.00,-0.28,6.24,-7.73,-0.55,-0.66,0.88,5.01,14.47,-27.05,-1.00
1905.00,-0.28,6.24,-7.73,-0.55,-0.66,0.88,5.01,14.47,-27.05,-1.00
1919.00,-0.29,6.24,-7.73,-0.55,-0.66,0.88,5.01,14.47,-27.05,-1.00
1931.00,-0.27,6.21,-7.72,-0.55,-0.66,0.88,5.01,14.47,-27.05,-1.00
1943.00,-0.27,6.21,-7.72,-0.55,-0.66,0.88,5.01,14.47,-27.05,-1.00
1955.00,-0.25,6.22,-7.75,-0.55,-0.66,0.88,5.01,14.47,-27.05,-1.00
1969.00,-0.25,6.22,-7.75,-0.55,-0.66,0.88,5.01,14.47,-27.05,-1.00
1981.00,-0.24,6.22,-7.73,-0.55,-0.66,0.88,5.01,14.47,-27.05,-1.00
1993.00,-0.26,6.22,-7.73,-0.55,-0.66,0.88,5.79,14.17,-29.57,-1.00
2007.00,-0.26,6.22,-7.73,-0.55,-0.66,0.88,5.79,14.17,-29.57,-1.00
2019.00,-0.26,6.23,-7.73,-0.55,-0.66,0.88,5.79,14.17,-29.57,-1.00
2031.00,-0.26,6.23,-7.75,-0.55,-0.66,0.88,5.79,14.17,-29.57,-1.00
2043.00,-0.26,6.23,-7.75,-0.55,-0.66,0.88,5.79,14.17,-29.57,-1.00
2057.00,-0.27,6.23,-7.71,-0.55,-0.66,0.88,5.79,14.17,-29.57,-1.00
2069.00,-0.27,6.23,-7.71,-0.55,-0.66,0.88,5.79,14.17,-29.57,-1.00
2081.00,-0.25,6.23,-7.74,-0.55,-0.66,0.88,5.79,14.17,-29.57,-1.00
2093.00,-0.24,6.22,-7.74,-0.55,-0.66,0.88,5.79,14.17,-29.57,-1.00
2107.00,-0.24,6.22,-7.74,-0.55,-0.66,0.88,5.79,14.17,-29.57,-1.00
2119.00,-0.24,6.22,-7.75,-0.55,-0.66,0.88,5.79,14.17,-29.57,-1.00
2131.00,-0.25,6.23,-7.75,-0.55,-0.66,0.88,5.21,14.63,-28.31,-1.00
2143.00,-0.25,6.23,-7.75,-0.55,-0.66,0.88,5.21,14.63,-28.31,-1.00
2157.00,-0.27,6.23,-7.74,-0.55,-0.65,0.88,5.21,14.63,-28.31,-1.00
2169.00,-0.27,6.23,-7.74,-0.55,-0.65,0.88,5.21,14.63,-28.31,-1.00
2181.00,-0.27,6.22,-7.73,-0.55,-0.66,0.88,5.21,14.63,-28.31,-1.00
2193.00,-0.26,6.22,-7.74,-0.55,-0.66,0.88,5.21,14.63,-28.31,-1.00
2208.00,-0.26,6.22,-7.74,-0.55,-0.66,0.88,5.21,14.63,-28.31,-1.00
2219.00,-0.24,6.22,-7.74,-0.55,-0.66,0.88,5.21,14.63,-28.31,-1.00
2231.00,-0.24,6.23,-7.74,-0.55,-0.66,0.88,5.21,14.63,-28.31,-1.00
2245.00,-0.24,6.23,-7.74,-0.55,-0.66,0.88,5.21,14.63,-28.31,-1.00
2257.00,-0.24,6.23,-7.76,-0.55,-0.66,0.88,5.79,13.87,-28.13,-1.00
2269.00,-0.24,6.23,-7.76,-0.55,-0.66,0.88,5.79,13.87,-28.13,-1.00
2281.00,-0.25,6.22,-7.74,-0.55,-0.66,0.88,5.79,13.87,-28.13,-1.00
2295.00,-0.26,6.22,-7.74,-0.55,-0.66,0.88,5.79,13.87,-28.13,-1.00
2307.00,-0.26,6.22,-7.74,-0.55,-0.66,0.88,5.79,13.87,-28.13,-1.00
2319.00,-0.25,6.22,-7.74,-0.55,-0.66,0.88,5.79,13.87,-28.13,-1.00
2331.00,-0.25,6.22,-7.74,-0.55,-0.66,0.88,5.79,13.87,-28.13,-1.00
2345.00,-0.25,6.22,-7.74,-0.55,-0.66,0.88,5.79,13.87,-28.13,-1.00
2357.00,-0.24,6.22,-7.75,-0.55,-0.66,0.88,5.79,13.87,-28.13,-1.00
2369.00,-0.24,6.22,-7.75,-0.55,-0.66,0.88,5.79,13.87,-28.13,-1.00
2381.00,-0.25,6.21,-7.74,-0.55,-0.66,0.88,4.62,13.56,-28.49,-1.00
2395.00,-0.24,6.23,-7.74,-0.55,-0.66,0.88,4.62,13.56,-28.49,-1.00
2407.00,-0.24,6.23,-7.74,-0.55,-0.66,0.88,4.62,13.56,-28.49,-1.00
2419.00,-0.26,6.23,-7.75,-0.55,-0.66,0.88,4.62,13.56,-28.49,-1.00
2431.00,-0.27,6.22,-7.71,-0.55,-0.66,0.88,4.62,13.56,-28.49,-1.00
2445.00,-0.27,6.22,-7.71,-0.55,-0.66,0.88,4.62,13.56,-28.49,-1.00
2457.00,-0.25,6.22,-7.74,-0.55,-0.66,0.88,4.62,13.56,-28.49,-1.00
2469.00,-0.25,6.22,-7.74,-0.55,-0.66,0.88,4.62,13.56,-28.49,-1.00
2481.00,-0.26,6.22,-7.74,-0.55,-0.65,0.88,4.62,13.56,-28.49,-1.00
2495.00,-0.25,6.22,-7.76,-0.55,-0.66,0.88,4.82,15.23,-27.59,-1.00
2507.00,-0.25,6.22,-7.76,-0.55,-0.66,0.88,4.82,15.23,-27.59,-1.00
2519.00,-0.25,6.21,-7.76,-0.55,-0.66,0.88,4.82,15.23,-27.59,-1.00
2534.00,-0.25,6.23,-7.74,-0.55,-0.66,0.88,4.82,15.23,-27.59,-1.00
2545.00,-0.25,6.23,-7.74,-0.55,-0.66,0.88,4.82,15.23,-27.59,-1.00
2557.00,-0.26,6.23,-7.74,-0.55,-0.66,0.88,4.82,15.23,-27.59,-1.00
2569.00,-0.26,6.23,-7.74,-0.55,-0.66,0.88,4.82,15.23,-27.59,-1.00
2583.00,-0.27,6.23,-7.74,-0.55,-0.66,0.88,4.82,15.23,-27.59,-1.00
2595.00,-0.26,6.22,-7.74,-0.55,-0.66,0.88,4.82,15.23,-27.59,-1.00
2607.00,-0.26,6.22,-7.74,-0.55,-0.66,0.88,4.82,15.23,-27.59,-1.00
2619.00,-0.26,6.22,-7.76,-0.55,-0.66,0.88,5.40,13.87,-27.41,-1.00
2633.00,-0.25,6.21,-7.76,-0.55,-0.66,0.88,5.40,13.87,-27.41,-1.00
2645.00,-0.25,6.21,-7.76,-0.55,-0.66,0.88,5.40,13.87,-27.41,-1.00
2657.00,-0.26,6.23,-7.75,-0.55,-0.66,0.88,5.40,13.87,-27.41,-1.00
2669.00,-0.26,6.24,-7.72,-0.55,-0.66,0.88,5.40,13.87,-27.41,-1.00
2683.00,-0.26,6.24,-7.72,-0.55,-0.66,0.88,5.40,13.87,-27.41,-1.00
2695.00,-0.26,6.23,-7.76,-0.55,-0.66,0.88,5.40,13.87,-27.41,-1.00
2707.00,-0.26,6.23,-7.76,-0.55,-0.66,0.88,5.40,13.87,-27.41,-1.00
2719.00,-0.28,6.23,-7.75,-0.55,-0.66,0.88,5.40,13.87,-27.41,-1.00
2733.00,-0.26,6.23,-7.74,-0.55,-0.66,0.88,5.99,13.72,-29.03,-1.00
2745.00,-0.26,6.23,-7.74,-0.55,-0.66,0.88,5.99,13.72,-29.03,-1.00
2757.00,-0.26,6.22,-7.78,-0.55,-0.66,0.88,5.99,13.72,-29.03,-1.00
2771.00,-0.26,6.23,-7.73,-0.55,-0.66,0.88,5.99,13.72,-29.03,-1.00
2783.00,-0.26,6.23,-7.73,-0.55,-0.66,0.88,5.99,13.72,-29.03,-1.00
2795.00,-0.27,6.22,-7.74,-0.55,-0.66,0.88,5.99,13.72,-29.03,-1.00
2807.00,-0.27,6.22,-7.74,-0.55,-0.66,0.88,5.99,13.72,-29.03,-1.00
2821.00,-0.28,6.23,-7.74,-0.55,-0.66,0.88,5.99,13.72,-29.03,-1.00
2833.00,-0.27,6.23,-7.74,-0.55,-0.66,0.88,5.99,13.72,-29.03,-1.00
2845.00,-0.27,6.23,-7.74,-0.55,-0.66,0.88,5.99,13.72,-29.03,-1.00
2857.00,-0.27,6.22,-7.73,-0.55,-0.66,0.88,5.99,13.72,-29.03,-1.00
2871.00,-0.26,6.23,-7.76,-0.55,-0.66,0.88,5.40,13.26,-29.57,-1.00
2883.00,-0.26,6.23,-7.76,-0.55,-0.66,0.88,5.40,13.26,-29.57,-1.00
2895.00,-0.24,6.22,-7.75,-0.55,-0.65,0.88,5.40,13.26,-29.57,-1.00
2907.00,-0.24,6.22,-7.75,-0.55,-0.65,0.88,5.40,13.26,-29.57,-1.00
2921.00,-0.25,6.22,-7.73,-0.55,-0.66,0.88,5.40,13.26,-29.57,-1.00
2933.00,-0.26,6.23,-7.75,-0.55,-0.66,0.88,5.40,13.26,-29.57,-1.00
2945.00,-0.26,6.23,-7.75,-0.55,-0.66,0.88,5.40,13.26,-29.57,-1.00
2957.00,-0.27,6.22,-7.73,-0.55,-0.66,0.88,5.40,13.26,-29.57,-1.00
2971.00,-0.27,6.23,-7.73,-0.55,-0.66,0.88,5.40,13.26,-29.57,-1.00
2983.00,-0.27,6.23,-7.73,-0.55,-0.66,0.88,5.40,13.26,-29.57,-1.00
2995.00,-0.25,6.23,-7.76,-0.55,-0.66,0.88,3.26,14.02,-27.95,-1.00
3007.00,-0.25,6.23,-7.76,-0.55,-0.66,0.88,3.26,14.02,-27.95,-1.00
3021.00,-0.25,6.22,-7.74,-0.55,-0.66,0.88,3.26,14.02,-27.95,-1.00
3033.00,-0.25,6.23,-7.74,-0.55,-0.66,0.88,3.26,14.02,-27.95,-1.00
3045.00,-0.25,6.23,-7.74,-0.55,-0.66,0.88,3.26,14.02,-27.95,-1.00
3059.00,-0.27,6.22,-7.74,-0.55,-0.66,0.88,3.26,14.02,-27.95,-1.00
3071.00,-0.26,6.23,-7.73,-0.55,-0.66,0.88,3.26,14.02,-27.95,-1.00
3083.00,-0.26,6.23,-7.73,-0.55,-0.66,0.88,3.26,14.02,-27.95,-1.00
3095.00,-0.28,6.23,-7.72,-0.55,-0.66,0.88,3.26,14.02,-27.95,-1.00
3109.00,-0.27,6.22,-7.76,-0.55,-0.66,0.88,5.01,13.87,-28.49,-1.00
3121.00,-0.27,6.22,-7.76,-0.55,-0.66,0.88,5.01,13.87,-28.49,-1.00
3133.00,-0.24,6.22,-7.74,-0.55,-0.66,0.88,5.01,13.87,-28.49,-1.00
3145.00,-0.24,6.22,-7.74,-0.55,-0.66,0.88,5.01,13.87,-28.49,-1.00
3159.00,-0.25,6.23,-7.76,-0.55,-0.66,0.88,5.01,13.87,-28.49,-1.00
3171.00,-0.27,6.23,-7.74,-0.55,-0.66,0.88,5.01,13.87,-28.49,-1.00
3183.00,-0.27,6.23,-7.74,-0.55,-0.66,0.88,5.01,13.87,-28.49,-1.00
3195.00,-0.27,6.23,-7.74,-0.55,-0.66,0.88,5.01,13.87,-28.49,-1.00
3209.00,-0.27,6.23,-7.74,-0.55,-0.66,0.88,5.01,13.87,-28.49,-1.00
3221.00,-0.27,6.23,-7.74,-0.55,-0.66,0.88,5.01,13.87,-28.49,-1.00
3233.00,-0.26,6.21,-7.76,-0.55,-0.66,0.88,5.01,14.78,-27.41,-1.00
3245.00,-0.26,6.21,-7.76,-0.55,-0.66,0.88,5.01,14.78,-27.41,-1.00
3259.00,-0.25,6.23,-7.76,-0.55,-0.66,0.88,5.01,14.78,-27.41,-1.00
3271.00,-0.24,6.22,-7.76,-0.55,-0.66,0.88,5.01,14.78,-27.41,-1.00
3283.00,-0.24,6.22,-7.76,-0.55,-0.66,0.88,5.01,14.78,-27.41,-1.00
3297.00,-0.26,6.23,-7.73,-0.55,-0.66,0.88,5.01,14.78,-27.41,-1.00
3309.00,-0.26,6.24,-7.75,-0.55,-0.66,0.88,5.01,14.78,-27.41,-1.00
3321.00,-0.26,6.24,-7.75,-0.55,-0.66,0.88,5.01,14.78,-27.41,-1.00
3333.00,-0.28,6.23,-7.74,-0.55,-0.66,0.88,5.01,14.78,-27.41,-1.00
3347.00,-0.28,6.23,-7.74,-0.55,-0.66,0.88,5.01,14.78,-27.41,-1.00
3359.00,-0.27,6.24,-7.75,-0.55,-0.66,0.88,5.79,13.56,-28.85,-1.00
3371.00,-0.26,6.22,-7.75,-0.55,-0.66,0.88,5.79,13.56,-28.85,-1.00
3383.00,-0.26,6.22,-7.75,-0.55,-0.66,0.88,5.79,13.56,-28.85,-1.00
3398.00,-0.25,6.22,-7.74,-0.55,-0.66,0.88,5.79,13.56,-28.85,-1.00
3409.00,-0.25,6.22,-7.72,-0.55,-0.66,0.88,5.79,13.56,-28.85,-1.00
3421.00,-0.25,6.22,-7.72,-0.55,-0.66,0.88,5.79,13.56,-28.85,-1.00
3433.00,-0.28,6.23,-7.74,-0.55,-0.66,0.88,5.79,13.56,-28.85,-1.00
3447.00,-0.28,6.23,-7.74,-0.55,-0.66,0.88,5.79,13.56,-28.85,-1.00
3459.00,-0.28,6.23,-7.74,-0.55,-0.66,0.88,5.79,13.56,-28.85,-1.00
3471.00,-0.26,6.23,-7.74,-0.55,-0.66,0.88,5.79,13.56,-28.85,-1.00
3483.00,-0.26,6.23,-7.74,-0.55,-0.66,0.88,5.79,13.56,-28.85,-1.00
3497.00,-0.27,6.22,-7.73,-0.55,-0.66,0.88,4.62,15.08,-27.41,-1.00
3509.00,-0.25,6.23,-7.76,-0.55,-0.66,0.88,4.62,15.08,-27.41,-1.00
3521.00,-0.25,6.23,-7.76,-0.55,-0.66,0.88,4.62,15.08,-27.41,-1.00
3533.00,-0.25,6.22,-7.76,-0.55,-0.66,0.88,4.62,15.08,-27.41,-1.00
3548.00,-0.25,6.22,-7.76,-0.55,-0.66,0.88,4.62,15.08,-27.41,-1.00
3559.00,-0.24,6.22,-7.72,-0.55,-0.66,0.88,4.62,15.08,-27.41,-1.00
3571.00,-0.26,6.24,-7.73,-0.55,-0.66,0.88,4.62,15.08,-27.41,-1.00
3585.00,-0.26,6.24,-7.73,-0.55,-0.66,0.88,4.62,15.08,-27.41,-1.00
3673.00,-0.26,6.25,-7.74,-0.55,-0.66,0.88,5.79,14.78,-27.41,-1.00
3762.00,-0.27,6.23,-7.73,-0.55,-0.66,0.88,4.23,13.87,-27.77,-1.00
3849.00,-0.27,6.22,-7.75,-0.55,-0.66,0.88,5.40,14.78,-25.98,-1.00
3863.00,-0.27,6.22,-7.75,-0.55,-0.66,0.88,5.40,14.78,-25.98,-1.00
3875.00,-0.27,6.24,-7.76,-0.55,-0.66,0.88,5.40,14.78,-25.98,-1.00
3887.00,-0.27,6.24,-7.76,-0.55,-0.66,0.88,5.40,14.78,-25.98,-1.00
3899.00,-0.26,6.22,-7.74,-0.55,-0.66,0.88,5.40,14.78,-25.98,-1.00
3913.00,-0.24,6.23,-7.74,-0.55,-0.66,0.88,5.40,14.78,-25.98,-1.00
3925.00,-0.24,6.23,-7.74,-0.55,-0.66,0.88,5.40,14.78,-25.98,-1.00
3937.00,-0.26,6.22,-7.76,-0.55,-0.66,0.88,5.40,14.78,-25.98,-1.00
3949.00,-0.27,6.23,-7.75,-0.55,-0.66,0.88,5.40,14.78,-25.98,-1.00
3963.00,-0.27,6.23,-7.75,-0.55,-0.66,0.88,5.40,14.78,-25.98,-1.00
3975.00,-0.26,6.23,-7.76,-0.55,-0.66,0.88,6.57,14.47,-27.41,-1.00
3987.00,-0.27,6.21,-7.74,-0.55,-0.66,0.88,6.57,14.47,-27.41,-1.00
3999.00,-0.27,6.21,-7.74,-0.55,-0.66,0.88,6.57,14.47,-27.41,-1.00
4013.00,-0.26,6.22,-7.75,-0.55,-0.66,0.88,6.57,14.47,-27.41,-1.00
4025.00,-0.26,6.22,-7.75,-0.55,-0.66,0.88,6.57,14.47,-27.41,-1.00
4037.00,-0.27,6.23,-7.70,-0.55,-0.66,0.88,6.57,14.47,-27.41,-1.00
4051.00,-0.26,6.22,-7.72,-0.55,-0.66,0.88,6.57,14.47,-27.41,-1.00
4063.00,-0.26,6.22,-7.72,-0.55,-0.66,0.88,6.57,14.47,-27.41,-1.00
4075.00,-0.27,6.25,-7.73,-0.55,-0.66,0.88,6.57,14.47,-27.41,-1.00
4087.00,-0.26,6.23,-7.73,-0.55,-0.66,0.88,5.21,13.72,-28.31,-1.00
4101.00,-0.26,6.23,-7.73,-0.55,-0.66,0.88,5.21,13.72,-28.31,-1.00
4113.00,-0.27,6.23,-7.78,-0.55,-0.66,0.88,5.21,13.72,-28.31,-1.00
4125.00,-0.27,6.23,-7.78,-0.55,-0.66,0.88,5.21,13.72,-28.31,-1.00
4137.00,-0.27,6.22,-7.73,-0.55,-0.66,0.88,5.21,13.72,-28.31,-1.00
4152.00,-0.27,6.22,-7.74,-0.55,-0.66,0.88,5.21,13.72,-28.31,-1.00
4163.00,-0.27,6.22,-7.74,-0.55,-0.66,0.88,5.21,13.72,-28.31,-1.00
4175.00,-0.26,6.23,-7.74,-0.55,-0.66,0.88,5.21,13.72,-28.31,-1.00
4187.00,-0.26,6.23,-7.74,-0.55,-0.66,0.88,5.21,13.72,-28.31,-1.00
4201.00,-0.26,6.23,-7.74,-0.55,-0.66,0.88,5.21,13.72,-28.31,-1.00
4213.00,-0.27,6.23,-7.74,-0.55,-0.66,0.88,5.21,13.72,-28.31,-1.00
4225.00,-0.27,6.23,-7.74,-0.55,-0.66,0.88,5.21,13.72,-28.31,-1.00
4237.00,-0.26,6.23,-7.77,-0.55,-0.66,0.88,5.79,14.17,-29.21,-1.00
4251.00,-0.25,6.21,-7.73,-0.55,-0.66,0.88,5.79,14.17,-29.21,-1.00
4263.00,-0.25,6.21,-7.73,-0.55,-0.66,0.88,5.79,14.17,-29.21,-1.00
4275.00,-0.26,6.22,-7.73,-0.55,-0.66,0.88,5.79,14.17,-29.21,-1.00
4287.00,-0.26,6.22,-7.73,-0.55,-0.66,0.88,5.79,14.17,-29.21,-1.00
4302.00,-0.26,6.22,-7.73,-0.55,-0.66,0.88,5.79,14.17,-29.21,-1.00
4313.00,-0.25,6.22,-7.73,-0.55,-0.66,0.88,5.79,14.17,-29.21,-1.00
4325.00,-0.25,6.22,-7.73,-0.55,-0.66,0.88,5.79,14.17,-29.21,-1.00
4339.00,-0.25,6.23,-7.72,-0.55,-0.66,0.88,5.79,14.17,-29.21,-1.00
4351.00,-0.27,6.23,-7.74,-0.55,-0.66,0.88,5.60,13.11,-27.23,-1.00
4363.00,-0.27,6.23,-7.74,-0.55,-0.66,0.88,5.60,13.11,-27.23,-1.00
4375.00,-0.26,6.23,-7.75,-0.55,-0.66,0.88,5.60,13.11,-27.23,-1.00
4389.00,-0.26,6.22,-7.74,-0.55,-0.66,0.88,5.60,13.11,-27.23,-1.00
4401.00,-0.26,6.22,-7.74,-0.55,-0.66,0.88,5.60,13.11,-27.23,-1.00
4413.00,-0.24,6.22,-7.74,-0.55,-0.66,0.88,5.60,13.11,-27.23,-1.00
4425.00,-0.24,6.22,-7.74,-0.55,-0.66,0.88,5.60,13.11,-27.23,-1.00
4439.00,-0.25,6.23,-7.75,-0.55,-0.66,0.88,5.60,13.11,-27.23,-1.00
4451.00,-0.26,6.23,-7.73,-0.55,-0.66,0.88,5.60,13.11,-27.23,-1.00
4463.00,-0.26,6.23,-7.73,-0.55,-0.66,0.88,5.60,13.11,-27.23,-1.00
4475.00,-0.26,6.23,-7.75,-0.55,-0.66,0.88,5.21,14.93,-28.67,-1.00
4490.00,-0.26,6.23,-7.74,-0.55,-0.66,0.88,5.21,14.93,-28.67,-1.00
4501.00,-0.26,6.23,-7.74,-0.55,-0.66,0.88,5.21,14.93,-28.67,-1.00
4513.00,-0.25,6.23,-7.75,-0.55,-0.66,0.88,5.21,14.93,-28.67,-1.00
4525.00,-0.25,6.23,-7.75,-0.55,-0.66,0.88,5.21,14.93,-28.67,-1.00
4539.00,-0.26,6.23,-7.75,-0.55,-0.66,0.88,5.21,14.93,-28.67,-1.00
4551.00,-0.26,6.23,-7.73,-0.55,-0.66,0.88,5.21,14.93,-28.67,-1.00
4563.00,-0.26,6.23,-7.73,-0.55,-0.66,0.88,5.21,14.93,-28.67,-1.00
4577.00,-0.26,6.23,-7.74,-0.55,-0.66,0.88,5.21,14.93,-28.67,-1.00
4589.00,-0.27,6.22,-7.74,-0.55,-0.66,0.88,5.60,13.72,-26.87,-1.00
4601.00,-0.27,6.22,-7.74,-0.55,-0.66,0.88,5.60,13.72,-26.87,-1.00
4613.00,-0.26,6.23,-7.73,-0.55,-0.66,0.88,5.60,13.72,-26.87,-1.00
4627.00,-0.26,6.23,-7.75,-0.55,-0.66,0.88,5.60,13.72,-26.87,-1.00
4639.00,-0.26,6.23,-7.75,-0.55,-0.66,0.88,5.60,13.72,-26.87,-1.00
4651.00,-0.25,6.23,-7.75,-0.55,-0.66,0.88,5.60,13.72,-26.87,-1.00
4663.00,-0.25,6.23,-7.75,-0.55,-0.66,0.88,5.60,13.72,-26.87,-1.00
4677.00,-0.27,6.22,-7.73,-0.55,-0.66,0.88,5.60,13.72,-26.87,-1.00
4689.00,-0.25,6.22,-7.73,-0.55,-0.65,0.88,5.60,13.72,-26.87,-1.00
4701.00,-0.25,6.22,-7.73,-0.55,-0.65,0.88,5.60,13.72,-26.87,-1.00
4713.00,-0.27,6.23,-7.75,-0.55,-0.66,0.88,4.82,14.02,-27.95,-1.00
4727.00,-0.27,6.24,-7.74,-0.55,-0.66,0.88,4.82,14.02,-27.95,-1.00
4739.00,-0.27,6.24,-7.74,-0.55,-0.66,0.88,4.82,14.02,-27.95,-1.00
4751.00,-0.27,6.24,-7.74,-0.55,-0.66,0.88,4.82,14.02,-27.95,-1.00
4763.00,-0.27,6.24,-7.74,-0.55,-0.66,0.88,4.82,14.02,-27.95,-1.00
4777.00,-0.26,6.24,-7.73,-0.55,-0.66,0.88,4.82,14.02,-27.95,-1.00
4789.00,-0.27,6.22,-7.71,-0.55,-0.66,0.88,4.82,14.02,-27.95,-1.00
4801.00,-0.27,6.22,-7.71,-0.55,-0.66,0.88,4.82,14.02,-27.95,-1.00
4813.00,-0.24,6.22,-7.72,-0.55,-0.66,0.88,4.82,14.02,-27.95,-1.00
4827.00,-0.26,6.23,-7.75,-0.55,-0.66,0.88,4.82,14.02,-27.95,-1.00
4839.00,-0.26,6.23,-7.75,-0.55,-0.66,0.88,4.82,14.02,-27.95,-1.00
4851.00,-0.28,6.24,-7.76,-0.55,-0.66,0.88,4.82,14.02,-27.95,-1.00
4865.00,-0.28,6.24,-7.76,-0.55,-0.66,0.88,4.82,14.02,-27.95,-1.00
4877.00,-0.27,6.21,-7.72,-0.55,-0.66,0.88,4.82,14.02,-27.95,-1.00
4889.00,-0.24,6.22,-7.77,-0.55,-0.66,0.88,4.82,14.02,-27.95,-1.00
4901.00,-0.24,6.22,-7.77,-0.55,-0.66,0.88,4.82,14.02,-27.95,-1.00
4916.00,-0.24,6.23,-7.75,-0.55,-0.66,0.88,4.82,14.02,-27.95,-1.00
4927.00,-0.25,6.21,-7.74,-0.55,-0.66,0.88,4.82,14.02,-27.95,-1.00
4939.00,-0.25,6.21,-7.74,-0.55,-0.66,0.88,4.82,14.02,-27.95,-1.00
4951.00,-0.27,6.23,-7.74,-0.55,-0.66,0.88,4.82,14.02,-27.95,-1.00
4965.00,-0.27,6.23,-7.74,-0.55,-0.66,0.88,4.82,14.02,-27.95,-1.00
4977.00,-0.31,6.24,-7.74,-0.55,-0.66,0.88,5.60,13.72,-27.23,-1.00
4989.00,-0.28,6.23,-7.74,-0.55,-0.66,0.88,5.60,13.72,-27.23,-1.00
5001.00,-0.28,6.23,-7.74,-0.55,-0.66,0.88,5.60,13.72,-27.23,-1.00
5015.00,-0.27,6.24,-7.76,-0.55,-0.66,0.88,5.60,13.72,-27.23,-1.00
5027.00,-0.26,6.22,-7.72,-0.55,-0.66,0.88,5.60,13.72,-27.23,-1.00
5039.00,-0.26,6.22,-7.72,-0.55,-0.66,0.88,5.60,13.72,-27.23,-1.00
5051.00,-0.24,6.23,-7.73,-0.55,-0.66,0.88,5.60,13.72,-27.23,-1.00
5066.00,-0.24,6.23,-7.73,-0.55,-0.66,0.88,5.60,13.72,-27.23,-1.00
5077.00,-0.26,6.23,-7.75,-0.55,-0.66,0.88,5.60,13.72,-27.23,-1.00
5089.00,-0.27,6.23,-7.73,-0.55,-0.66,0.88,5.79,14.78,-26.70,-1.00
5103.00,-0.27,6.23,-7.73,-0.55,-0.66,0.88,5.79,14.78,-26.70,-1.00
5115.00,-0.28,6.23,-7.75,-0.55,-0.66,0.88,5.79,14.78,-26.70,-1.00
5127.00,-0.27,6.24,-7.75,-0.55,-0.66,0.88,5.79,14.78,-26.70,-1.00
5139.00,-0.27,6.24,-7.75,-0.55,-0.66,0.88,5.79,14.78,-26.70,-1.00
5153.00,-0.26,6.23,-7.75,-0.55,-0.66,0.88,5.79,14.78,-26.70,-1.00
5165.00,-0.26,6.23,-7.75,-0.55,-0.66,0.88,5.79,14.78,-26.70,-1.00
5177.00,-0.26,6.22,-7.75,-0.55,-0.66,0.88,5.79,14.78,-26.70,-1.00
5190.00,-0.25,6.22,-7.74,-0.55,-0.66,0.88,5.79,14.78,-26.70,-1.00
5204.00,-0.25,6.22,-7.74,-0.55,-0.66,0.88,5.79,14.78,-26.70,-1.00
5216.00,-0.26,6.23,-7.76,-0.55,-0.66,0.88,3.26,14.63,-28.67,-1.00
5228.00,-0.28,6.23,-7.74,-0.55,-0.66,0.88,3.26,14.63,-28.67,-1.00
5240.00,-0.28,6.23,-7.74,-0.55,-0.66,0.88,3.26,14.63,-28.67,-1.00
5254.00,-0.26,6.23,-7.72,-0.55,-0.66,0.88,3.26,14.63,-28.67,-1.00
5266.00,-0.27,6.23,-7.74,-0.55,-0.66,0.88,3.26,14.63,-28.67,-1.00
5278.00,-0.27,6.23,-7.74,-0.55,-0.66,0.88,3.26,14.63,-28.67,-1.00
5290.00,-0.25,6.23,-7.73,-0.55,-0.66,0.88,3.26,14.63,-28.67,-1.00
5304.00,-0.25,6.23,-7.73,-0.55,-0.66,0.88,3.26,14.63,-28.67,-1.00
5393.00,-0.26,6.23,-7.73,-0.55,-0.66,0.88,5.01,13.26,-27.77,-1.00
5481.00,-0.27,6.23,-7.76,-0.55,-0.66,0.88,7.55,13.72,-27.95,-1.00
5569.00,-0.26,6.22,-7.77,-0.55,-0.65,0.87,7.55,13.72,-27.95,-1.00
5583.00,-0.26,6.22,-7.77,-0.55,-0.65,0.87,7.55,13.72,-27.95,-1.00
5595.00,-0.24,6.21,-7.73,-0.55,-0.65,0.88,3.84,13.56,-27.41,-1.00
5607.00,-0.28,6.46,-7.56,-0.56,-0.55,0.75,3.84,13.56,-27.41,-1.00
5621.00,-0.28,6.46,-7.56,-0.56,-0.55,0.75,3.84,13.56,-27.41,-1.00
5633.00,-0.27,6.39,-7.73,-0.57,-0.02,0.10,3.84,13.56,-27.41,-1.00
5645.00,-0.50,6.49,-7.48,-0.58,0.27,-0.31,3.84,13.56,-27.41,-1.00
5657.00,-0.50,6.49,-7.48,-0.58,0.27,-0.31,3.84,13.56,-27.41,-1.00
5672.00,0.44,6.34,-10.04,-0.43,-0.31,0.36,3.84,13.56,-27.41,-1.00
5683.00,0.44,6.34,-10.04,-0.43,-0.31,0.36,3.84,13.56,-27.41,-1.00
5695.00,-0.74,4.95,-7.67,-0.42,-1.14,1.04,3.84,13.56,-27.41,-1.00
5707.00,-0.23,8.07,-4.74,-0.11,-0.95,1.40,5.60,14.02,-28.67,-1.00
5721.00,-0.23,8.07,-4.74,-0.11,-0.95,1.40,5.60,14.02,-28.67,-1.00
5733.00,-0.39,7.64,-9.19,2.01,-0.51,1.04,5.60,14.02,-28.67,-1.00
5745.00,-0.14,5.70,-8.20,3.56,-0.26,0.63,5.60,14.02,-28.67,-1.00
5757.00,-0.14,5.70,-8.20,3.56,-0.26,0.63,5.60,14.02,-28.67,-1.00
5771.00,-0.57,5.15,-9.25,3.51,-0.18,0.55,5.60,14.02,-28.67,-1.00
5783.00,-0.57,5.15,-9.25,3.51,-0.18,0.55,5.60,14.02,-28.67,-1.00
5795.00,-0.45,3.88,-10.88,4.47,-0.05,0.49,5.60,14.02,-28.67,-1.00
5807.00,1.71,2.31,-14.79,3.17,-0.03,0.04,5.60,14.02,-28.67,-1.00
5822.00,1.71,2.31,-14.79,3.17,-0.03,0.04,5.60,14.02,-28.67,-1.00
5833.00,1.27,-2.66,-17.00,1.68,-0.62,0.11,8.91,-4.63,-34.59,-1.00
5845.00,-1.28,1.03,-17.62,1.42,-1.62,1.52,8.91,-4.63,-34.59,-1.00
5857.00,-1.28,1.03,-17.62,1.42,-1.62,1.52,8.91,-4.63,-34.59,-1.00
5871.00,-3.72,5.03,-17.41,1.56,-2.48,2.11,8.91,-4.63,-34.59,-1.00
5883.00,-3.72,5.03,-17.41,1.56,-2.48,2.11,8.91,-4.63,-34.59,-1.00
5895.00,-4.30,3.20,-16.11,1.84,-3.14,1.56,8.91,-4.63,-34.59,-1.00
5909.00,-5.19,3.43,-15.97,1.96,-3.60,1.01,8.91,-4.63,-34.59,-1.00
5921.00,-5.19,3.43,-15.97,1.96,-3.60,1.01,8.91,-4.63,-34.59,-1.00
5933.00,-3.21,6.73,-16.19,2.00,-4.01,0.49,8.91,-4.63,-34.59,-1.00
5945.00,0.06,8.49,-15.76,2.61,-4.69,-0.27,-4.54,-19.64,-34.77,-1.00
5959.00,0.06,8.49,-15.76,2.61,-4.69,-0.27,-4.54,-19.64,-34.77,-1.00
5971.00,0.60,4.76,-13.68,4.51,-5.90,-1.17,-4.54,-19.64,-34.77,-1.00
5983.00,0.60,4.76,-13.68,4.51,-5.90,-1.17,-4.54,-19.64,-34.77,-1.00
5995.00,-0.96,-3.01,-6.86,8.41,-6.93,-0.71,-4.54,-19.64,-34.77,-1.00
6009.00,-1.55,-4.88,-1.83,7.06,-7.12,0.79,-4.54,-19.64,-34.77,-1.00
6021.00,-1.55,-4.88,-1.83,7.06,-7.12,0.79,-4.54,-19.64,-34.77,-1.00
6033.00,-1.43,-1.64,-7.14,-1.19,-7.30,0.42,-4.54,-19.64,-34.77,-1.00
6045.00,-1.64,-1.64,-6.89,-2.65,-7.88,-0.46,-4.54,-19.64,-34.77,-1.00
6059.00,-1.64,-1.64,-6.89,-2.65,-7.88,-0.46,-4.54,-19.64,-34.77,-1.00
6071.00,-3.42,-3.35,-3.33,-0.08,-8.12,-0.96,-27.56,-37.83,-4.62,-1.00
6083.00,-3.42,-3.35,-3.33,-0.08,-8.12,-0.96,-27.56,-37.83,-4.62,-1.00
6098.00,-3.17,-2.46,-2.52,1.65,-7.66,-0.91,-27.56,-37.83,-4.62,-1.00
6109.00,-0.74,1.41,-1.48,1.97,-7.16,-0.51,-27.56,-37.83,-4.62,-1.00
6121.00,-0.74,1.41,-1.48,1.97,-7.16,-0.51,-27.56,-37.83,-4.62,-1.00
6133.00,-0.42,4.23,-3.76,-1.05,-7.24,-1.17,-27.56,-37.83,-4.62,-1.00
6147.00,2.25,-1.97,-6.28,1.33,-7.90,-2.21,-27.56,-37.83,-4.62,-1.00
6159.00,2.25,-1.97,-6.28,1.33,-7.90,-2.21,-27.56,-37.83,-4.62,-1.00
6171.00,0.80,-9.67,5.41,10.02,-8.54,-0.72,-27.56,-37.83,-4.62,-1.00
6185.00,3.16,-0.52,4.81,8.46,-8.69,1.10,-21.71,-40.86,48.15,-1.00
6197.00,3.16,-0.52,4.81,8.46,-8.69,1.10,-21.71,-40.86,48.15,-1.00
6209.00,4.75,2.12,5.75,0.63,-8.72,-0.28,-21.71,-40.86,48.15,-1.00
6221.00,4.75,2.12,5.75,0.63,-8.72,-0.28,-21.71,-40.86,48.15,-1.00
6235.00,0.56,-5.14,15.31,-2.89,-7.88,-1.72,-21.71,-40.86,48.15,-1.00
6324.00,2.44,-4.66,12.04,4.01,-2.99,2.30,-21.71,-40.86,48.15,-1.00
6412.00,-6.25,5.95,11.10,2.64,0.11,1.04,2.09,-34.19,68.25,-1.00
6501.00,-5.31,4.36,9.35,-0.86,0.69,-0.04,-8.25,-2.81,72.38,-1.00
6514.00,-3.98,3.57,9.89,-0.25,0.19,-0.74,-8.25,-2.81,72.38,-1.00
6526.00,-4.23,1.80,12.55,-0.01,-0.07,-0.47,-8.25,-2.81,72.38,-1.00
6538.00,-4.23,1.80,12.55,-0.01,-0.07,-0.47,-8.25,-2.81,72.38,-1.00
6550.00,-6.45,2.49,12.34,-2.61,0.05,0.02,-8.25,-2.81,72.38,-1.00
6564.00,-6.37,3.49,11.35,-5.75,0.29,-0.12,-13.90,-9.33,71.12,-1.00
6576.00,-6.37,3.49,11.35,-5.75,0.29,-0.12,-13.90,-9.33,71.12,-1.00
6588.00,-3.68,2.86,9.56,-7.01,0.62,-0.48,-13.90,-9.33,71.12,-1.00
6600.00,-3.68,2.86,9.56,-7.01,0.62,-0.48,-13.90,-9.33,71.12,-1.00
6614.00,-5.90,-0.40,9.64,-7.37,0.63,-0.62,-13.90,-9.33,71.12,-1.00
6626.00,-7.81,-2.50,12.17,-8.82,0.64,-0.37,-13.90,-9.33,71.12,-1.00
6638.00,-7.81,-2.50,12.17,-8.82,0.64,-0.37,-13.90,-9.33,71.12,-1.00
6652.00,-5.45,-2.03,7.53,-11.33,0.83,0.04,-13.90,-9.33,71.12,-1.00
6664.00,-3.84,-2.88,3.70,-8.81,1.15,0.66,-13.90,-9.33,71.12,-1.00
6676.00,-3.84,-2.88,3.70,-8.81,1.15,0.66,-13.90,-9.33,71.12,-1.00
6688.00,-4.25,-7.35,2.44,-4.90,1.04,0.89,-18.39,-45.26,45.10,-1.00
6702.00,-4.25,-7.35,2.44,-4.90,1.04,0.89,-18.39,-45.26,45.10,-1.00
6714.00,-5.74,-8.19,3.14,-2.02,0.38,1.44,-18.39,-45.26,45.10,-1.00
6726.00,-7.89,-4.51,5.34,-0.01,-0.42,1.75,-18.39,-45.26,45.10,-1.00
6738.00,-7.89,-4.51,5.34,-0.01,-0.42,1.75,-18.39,-45.26,45.10,-1.00
6753.00,-7.22,-2.45,6.18,0.65,-0.72,1.17,-18.39,-45.26,45.10,-1.00
6764.00,-6.11,-3.77,5.87,1.13,-0.42,0.39,-18.39,-45.26,45.10,-1.00
6776.00,-6.11,-3.77,5.87,1.13,-0.42,0.39,-18.39,-45.26,45.10,-1.00
6788.00,-5.56,-5.21,3.47,2.29,-0.33,0.34,-18.39,-45.26,45.10,-1.00
6802.00,-5.56,-5.21,3.47,2.29,-0.33,0.34,-18.39,-45.26,45.10,-1.00
6814.00,-6.33,-5.43,7.02,3.13,-0.71,0.92,-17.42,-39.35,53.53,-1.00
6826.00,-5.92,-3.05,5.53,2.43,-0.86,1.08,-17.42,-39.35,53.53,-1.00
6838.00,-5.92,-3.05,5.53,2.43,-0.86,1.08,-17.42,-39.35,53.53,-1.00
6852.00,-5.28,-3.05,2.29,3.66,-1.12,1.09,-17.42,-39.35,53.53,-1.00
6864.00,-6.04,-2.05,6.57,7.42,-1.39,1.80,-17.42,-39.35,53.53,-1.00
6876.00,-6.04,-2.05,6.57,7.42,-1.39,1.80,-17.42,-39.35,53.53,-1.00
6890.00,-5.83,-0.23,13.23,8.94,-1.39,2.13,-17.42,-39.35,53.53,-1.00
6903.00,-5.83,-0.23,13.23,8.94,-1.39,2.13,-17.42,-39.35,53.53,-1.00
6914.00,-5.38,0.34,12.06,5.13,-1.35,1.59,-17.42,-39.35,53.53,-1.00
6926.00,-4.49,-1.27,9.58,1.98,-1.23,1.27,-17.42,-39.35,53.53,-1.00
6940.00,-4.49,-1.27,9.58,1.98,-1.23,1.27,-17.42,-39.35,53.53,-1.00
6952.00,-4.30,0.52,8.16,1.52,-1.01,1.58,-18.20,-13.57,68.61,-1.00
6964.00,-4.17,2.15,8.25,2.67,-0.95,1.55,-18.20,-13.57,68.61,-1.00
6976.00,-4.17,2.15,8.25,2.67,-0.95,1.55,-18.20,-13.57,68.61,-1.00
6991.00,-4.02,2.55,9.40,4.19,-1.14,1.34,-18.20,-13.57,68.61,-1.00
7003.00,-4.54,2.32,10.68,3.87,-1.17,1.27,-18.20,-13.57,68.61,-1.00
7015.00,-4.54,2.32,10.68,3.87,-1.17,1.27,-18.20,-13.57,68.61,-1.00
7027.00,-5.54,3.14,10.68,2.35,-0.78,1.23,-18.20,-13.57,68.61,-1.00
7041.00,-5.54,3.14,10.68,2.35,-0.78,1.23,-18.20,-13.57,68.61,-1.00
7053.00,-5.56,3.67,9.46,1.03,-0.57,1.14,-18.20,-13.57,68.61,-1.00
7065.00,-4.68,3.74,8.44,0.68,-0.66,1.06,-19.17,4.16,66.63,-1.00
7079.00,-4.68,3.74,8.44,0.68,-0.66,1.06,-19.17,4.16,66.63,-1.00
7091.00,-3.98,3.90,7.67,1.84,-0.37,1.24,-19.17,4.16,66.63,-1.00
7103.00,-4.08,5.16,6.89,3.04,0.06,1.24,-19.17,4.16,66.63,-1.00
7115.00,-4.08,5.16,6.89,3.04,0.06,1.24,-19.17,4.16,66.63,-1.00
7129.00,-4.09,6.07,5.73,2.58,-0.10,0.65,-19.17,4.16,66.63,-1.00
7141.00,-4.09,6.07,5.73,2.58,-0.10,0.65,-19.17,4.16,66.63,-1.00
7153.00,-5.21,5.08,7.97,2.25,-0.51,0.18,-19.17,4.16,66.63,-1.00
7165.00,-7.44,5.09,8.60,1.86,-0.43,0.24,-19.17,4.16,66.63,-1.00
7180.00,-7.44,5.09,8.60,1.86,-0.43,0.24,-19.17,4.16,66.63,-1.00
7191.00,-5.82,5.98,4.92,1.69,0.05,0.63,-22.88,16.75,57.84,-1.00
7203.00,-4.55,5.94,2.60,2.06,0.10,0.85,-22.88,16.75,57.84,-1.00
7215.00,-4.55,5.94,2.60,2.06,0.10,0.85,-22.88,16.75,57.84,-1.00
7229.00,-5.15,6.90,2.23,1.86,-0.19,0.77,-22.88,16.75,57.84,-1.00
7241.00,-5.15,6.90,2.23,1.86,-0.19,0.77,-22.88,16.75,57.84,-1.00
7253.00,-6.49,6.80,4.83,0.98,-0.65,0.44,-22.88,16.75,57.84,-1.00
7265.00,-7.94,7.03,6.00,-0.45,-0.99,0.32,-22.88,16.75,57.84,-1.00
7279.00,-7.94,7.03,6.00,-0.45,-0.99,0.32,-22.88,16.75,57.84,-1.00
7291.00,-6.84,5.96,4.64,-0.70,-0.84,0.65,-22.88,16.75,57.84,-1.00
7303.00,-5.07,6.71,2.96,-0.92,-0.65,0.94,-24.05,20.08,52.10,-1.00
7315.00,-5.07,6.71,2.96,-0.92,-0.65,0.94,-24.05,20.08,52.10,-1.00
7330.00,-5.40,6.84,3.91,-1.69,-0.82,0.81,-24.05,20.08,52.10,-1.00
7341.00,-5.40,6.84,3.91,-1.69,-0.82,0.81,-24.05,20.08,52.10,-1.00
7353.00,-5.55,6.18,6.50,-1.67,-0.86,0.57,-24.05,20.08,52.10,-1.00
7365.00,-6.70,6.23,6.94,-2.10,-0.74,0.43,-24.05,20.08,52.10,-1.00
7379.00,-6.70,6.23,6.94,-2.10,-0.74,0.43,-24.05,20.08,52.10,-1.00
7391.00,-6.52,5.71,5.54,-1.84,-0.51,0.60,-24.05,20.08,52.10,-1.00
7403.00,-5.42,5.83,4.60,-1.77,-0.74,0.79,-24.05,20.08,52.10,-1.00
7415.00,-5.42,5.83,4.60,-1.77,-0.74,0.79,-24.05,20.08,52.10,-1.00
7429.00,-4.30,6.40,4.04,-2.18,-1.01,0.80,-25.22,15.23,55.69,-1.00
7441.00,-4.30,6.40,4.04,-2.18,-1.01,0.80,-25.22,15.23,55.69,-1.00
7453.00,-6.21,4.60,7.52,-1.75,-0.87,0.83,-25.22,15.23,55.69,-1.00
7468.00,-7.48,5.57,10.01,-4.57,-0.70,0.71,-25.22,15.23,55.69,-1.00
7479.00,-7.48,5.57,10.01,-4.57,-0.70,0.71,-25.22,15.23,55.69,-1.00
7491.00,-7.12,5.46,6.44,-7.30,-0.70,0.34,-25.22,15.23,55.69,-1.00
7503.00,-5.47,3.02,5.76,-5.10,-0.49,0.64,-25.22,15.23,55.69,-1.00
7517.00,-5.47,3.02,5.76,-5.10,-0.49,0.64,-25.22,15.23,55.69,-1.00
7529.00,-4.42,3.28,6.94,-3.21,-0.48,0.73,-25.22,15.23,55.69,-1.00
7541.00,-4.42,3.28,6.94,-3.21,-0.48,0.73,-25.22,15.23,55.69,-1.00
7553.00,-3.32,3.98,7.17,-2.65,-0.50,0.31,-24.44,-4.17,64.66,-1.00
7567.00,-4.30,2.17,5.26,-1.10,-0.05,0.31,-24.44,-4.17,64.66,-1.00
7579.00,-4.30,2.17,5.26,-1.10,-0.05,0.31,-24.44,-4.17,64.66,-1.00
7591.00,-7.00,1.60,9.30,1.24,0.33,0.46,-24.44,-4.17,64.66,-1.00
7603.00,-7.81,2.44,7.02,2.24,0.40,0.40,-24.44,-4.17,64.66,-1.00
7618.00,-7.81,2.44,7.02,2.24,0.40,0.40,-24.44,-4.17,64.66,-1.00
7629.00,-7.33,4.02,5.55,2.58,-0.07,0.57,-24.44,-4.17,64.66,-1.00
7641.00,-7.33,4.02,5.55,2.58,-0.07,0.57,-24.44,-4.17,64.66,-1.00
7653.00,-7.65,4.18,7.54,0.71,-0.78,0.29,-24.44,-4.17,64.66,-1.00
7667.00,-9.11,3.56,9.42,-2.11,-0.74,-0.29,-24.44,-4.17,64.66,-1.00
7679.00,-9.11,3.56,9.42,-2.11,-0.74,-0.29,-24.44,-4.17,64.66,-1.00
7691.00,-9.56,3.65,9.21,-4.78,-0.37,-0.45,-29.90,-1.75,62.86,-1.00
7703.00,-7.83,4.05,7.62,-5.86,0.09,-0.59,-29.90,-1.75,62.86,-1.00
7717.00,-7.83,4.05,7.62,-5.86,0.09,-0.59,-29.90,-1.75,62.86,-1.00
7729.00,-3.74,-0.50,4.19,-4.23,0.38,-0.90,-29.90,-1.75,62.86,-1.00
7741.00,-3.74,-0.50,4.19,-4.23,0.38,-0.90,-29.90,-1.75,62.86,-1.00
7755.00,-3.38,-2.04,5.39,-2.16,-0.00,-0.69,-29.90,-1.75,62.86,-1.00
7767.00,-4.25,-0.55,5.57,-1.86,-0.10,-0.25,-29.90,-1.75,62.86,-1.00
7779.00,-4.25,-0.55,5.57,-1.86,-0.10,-0.25,-29.90,-1.75,62.86,-1.00
7791.00,-7.25,-1.58,7.20,-0.79,0.49,0.37,-29.90,-1.75,62.86,-1.00
7805.00,-11.39,0.34,8.28,-0.03,0.41,0.74,-32.82,-17.06,59.10,-1.00
7817.00,-11.39,0.34,8.28,-0.03,0.41,0.74,-32.82,-17.06,59.10,-1.00
7829.00,-7.43,1.46,5.22,-1.01,-0.32,0.16,-32.82,-17.06,59.10,-1.00
7841.00,-7.43,1.46,5.22,-1.01,-0.32,0.16,-32.82,-17.06,59.10,-1.00
7855.00,-7.50,-2.74,6.12,-0.89,-0.45,0.01,-32.82,-17.06,59.10,-1.00
7867.00,-7.66,-0.74,5.61,-0.22,-0.16,0.81,-32.82,-17.06,59.10,-1.00
7879.00,-7.66,-0.74,5.61,-0.22,-0.16,0.81,-32.82,-17.06,59.10,-1.00
7891.00,-7.64,-0.03,6.18,-0.18,-0.24,0.93,-32.82,-17.06,59.10,-1.00
7905.00,-8.02,0.14,6.05,-0.17,-0.37,0.79,-32.82,-17.06,59.10,-1.00
7992.00,-8.31,-0.59,6.50,-0.18,-0.68,0.70,-32.63,-17.82,57.12,-1.00
8081.00,-7.70,0.11,6.22,-0.49,-0.75,0.83,-32.24,-16.91,58.92,-1.00
8095.00,-7.70,0.11,6.22,-0.49,-0.75,0.83,-32.24,-16.91,58.92,-1.00
8107.00,-7.34,-0.24,6.12,-0.46,-0.72,0.79,-32.24,-16.91,58.92,-1.00
8119.00,-7.34,-0.24,6.12,-0.46,-0.72,0.79,-32.24,-16.91,58.92,-1.00
8131.00,-8.47,-0.41,6.48,-0.21,-0.60,0.81,-32.24,-16.91,58.92,-1.00
8145.00,-8.28,-0.38,6.32,-0.28,-0.62,0.77,-32.24,-16.91,58.92,-1.00
8157.00,-8.28,-0.38,6.32,-0.28,-0.62,0.77,-32.24,-16.91,58.92,-1.00
8169.00,-7.52,-0.55,6.42,-0.43,-0.64,0.77,-32.63,-16.00,59.63,-1.00
8181.00,-7.81,-0.37,6.55,-0.40,-0.56,0.85,-32.63,-16.00,59.63,-1.00
8195.00,-7.81,-0.37,6.55,-0.40,-0.56,0.85,-32.63,-16.00,59.63,-1.00
8207.00,-8.09,-0.15,6.09,-0.36,-0.46,0.91,-32.63,-16.00,59.63,-1.00
8219.00,-8.09,-0.15,6.09,-0.36,-0.46,0.91,-32.63,-16.00,59.63,-1.00
8234.00,-8.58,-0.20,5.79,-0.43,-0.52,0.88,-32.63,-16.00,59.63,-1.00
8245.00,-7.88,0.06,5.91,-0.52,-0.62,0.89,-32.63,-16.00,59.63,-1.00
8257.00,-7.88,0.06,5.91,-0.52,-0.62,0.89,-32.63,-16.00,59.63,-1.00
8269.00,-7.30,-0.25,6.66,-0.46,-0.60,0.89,-32.63,-16.00,59.63,-1.00
8283.00,-7.10,-0.62,6.38,-0.37,-0.49,0.86,-32.63,-16.00,59.63,-1.00
8295.00,-7.10,-0.62,6.38,-0.37,-0.49,0.86,-32.63,-16.00,59.63,-1.00
8307.00,-7.25,-0.62,6.63,-0.21,-0.28,0.99,-33.80,-16.30,58.56,-1.00
8319.00,-7.25,-0.62,6.63,-0.21,-0.28,0.99,-33.80,-16.30,58.56,-1.00
8333.00,-8.33,-0.16,5.82,-0.13,-0.16,1.17,-33.80,-16.30,58.56,-1.00
8345.00,-8.58,1.05,4.98,-0.30,-0.39,1.21,-33.80,-16.30,58.56,-1.00
8357.00,-8.58,1.05,4.98,-0.30,-0.39,1.21,-33.80,-16.30,58.56,-1.00
8369.00,-9.34,0.95,5.78,-0.50,-0.52,1.09,-33.80,-16.30,58.56,-1.00
8384.00,-9.17,0.51,4.49,-0.73,-0.37,1.06,-33.80,-16.30,58.56,-1.00
8395.00,-9.17,0.51,4.49,-0.73,-0.37,1.06,-33.80,-16.30,58.56,-1.00
8407.00,-8.15,0.53,4.58,-0.51,-0.17,1.46,-33.80,-16.30,58.56,-1.00
8421.00,-7.00,0.48,6.33,-0.51,-0.28,1.54,-35.16,-13.42,55.51,-1.00
8433.00,-7.00,0.48,6.33,-0.51,-0.28,1.54,-35.16,-13.42,55.51,-1.00
8445.00,-6.89,0.33,6.63,-0.44,-0.50,1.18,-35.16,-13.42,55.51,-1.00
8457.00,-6.89,0.33,6.63,-0.44,-0.50,1.18,-35.16,-13.42,55.51,-1.00
8471.00,-7.65,0.59,5.89,-0.43,-0.66,0.89,-35.16,-13.42,55.51,-1.00
8483.00,-8.01,0.71,6.01,-0.53,-0.82,0.68,-35.16,-13.42,55.51,-1.00
8495.00,-8.01,0.71,6.01,-0.53,-0.82,0.68,-35.16,-13.42,55.51,-1.00
8507.00,-7.94,0.33,5.78,-0.61,-0.91,0.52,-35.16,-13.42,55.51,-1.00
8521.00,-8.17,0.09,6.09,-0.56,-0.79,0.61,-35.16,-13.42,55.51,-1.00
8534.00,-8.17,0.09,6.09,-0.56,-0.79,0.61,-35.16,-13.42,55.51,-1.00
8546.00,-8.47,0.04,5.43,-0.55,-0.67,0.77,-34.77,-13.12,56.58,-1.00
8558.00,-8.47,0.04,5.43,-0.55,-0.67,0.77,-34.77,-13.12,56.58,-1.00
8572.00,-8.43,-0.50,5.76,-0.53,-0.69,0.86,-34.77,-13.12,56.58,-1.00
8584.00,-8.50,0.07,6.42,-0.48,-0.64,0.71,-34.77,-13.12,56.58,-1.00
8596.00,-8.50,0.07,6.42,-0.48,-0.64,0.71,-34.77,-13.12,56.58,-1.00
8610.00,-8.06,-0.03,5.61,-0.27,-0.55,0.37,-34.77,-13.12,56.58,-1.00
8622.00,-8.35,2.21,4.72,-0.25,-0.61,0.24,-34.77,-13.12,56.58,-1.00
8634.00,-8.35,2.21,4.72,-0.25,-0.61,0.24,-34.77,-13.12,56.58,-1.00
8646.00,-8.03,0.96,5.44,-0.50,-0.70,0.17,-34.77,-13.12,56.58,-1.00
8661.00,-8.03,0.96,5.44,-0.50,-0.70,0.17,-34.77,-13.12,56.58,-1.00
8672.00,-9.33,-0.79,4.88,-0.80,-0.79,0.40,-34.19,-15.39,56.04,-1.00
8684.00,-9.42,-0.91,4.67,-1.30,-1.16,1.06,-34.19,-15.39,56.04,-1.00
8696.00,-9.42,-0.91,4.67,-1.30,-1.16,1.06,-34.19,-15.39,56.04,-1.00
8711.00,-8.26,-0.47,6.04,-1.41,-1.29,1.70,-34.19,-15.39,56.04,-1.00
8722.00,-6.21,0.76,6.80,-0.93,-0.98,1.72,-34.19,-15.39,56.04,-1.00
8734.00,-6.21,0.76,6.80,-0.93,-0.98,1.72,-34.19,-15.39,56.04,-1.00
8746.00,-4.44,-0.21,7.53,-0.66,-0.74,1.17,-34.19,-15.39,56.04,-1.00
8760.00,-4.44,-0.21,7.53,-0.66,-0.74,1.17,-34.19,-15.39,56.04,-1.00
8850.00,-7.65,-0.46,6.56,-0.37,-0.44,0.96,-34.19,-14.18,56.04,-1.00
8936.00,-8.27,-0.44,5.43,-0.45,-0.57,1.00,-36.92,-15.09,57.12,-1.00
8950.00,-9.25,1.51,6.60,-0.32,-0.64,0.84,-36.92,-15.09,57.12,-1.00
8962.00,-8.10,0.28,5.68,-0.31,-0.61,0.20,-36.92,-15.09,57.12,-1.00
8974.00,-8.10,0.28,5.68,-0.31,-0.61,0.20,-36.92,-15.09,57.12,-1.00
8986.00,-8.28,1.20,5.89,-0.15,-0.61,0.01,-36.92,-15.09,57.12,-1.00
9001.00,-7.78,-0.02,5.83,-0.36,-0.62,0.26,-36.92,-15.09,57.12,-1.00
9012.00,-7.78,-0.02,5.83,-0.36,-0.62,0.26,-36.92,-15.09,57.12,-1.00
9024.00,-7.98,0.41,6.46,-0.49,-0.65,0.60,-36.92,-15.09,57.12,-1.00
9036.00,-7.98,0.41,6.46,-0.49,-0.65,0.60,-36.92,-15.09,57.12,-1.00
9050.00,-7.91,-1.24,5.06,-0.67,-0.62,0.79,-34.19,-14.48,56.40,-1.00
9062.00,-8.90,0.45,5.41,-0.73,-0.65,1.38,-34.19,-14.48,56.40,-1.00
9074.00,-8.90,0.45,5.41,-0.73,-0.65,1.38,-34.19,-14.48,56.40,-1.00
9086.00,-8.48,0.17,6.30,-0.72,-0.60,1.41,-34.19,-14.48,56.40,-1.00
9100.00,-7.64,-1.55,6.31,-0.68,-0.52,1.14,-34.19,-14.48,56.40,-1.00
9112.00,-7.64,-1.55,6.31,-0.68,-0.52,1.14,-34.19,-14.48,56.40,-1.00
9124.00,-8.15,-0.34,5.95,-0.33,-0.50,1.11,-34.19,-14.48,56.40,-1.00
9138.00,-8.15,-0.34,5.95,-0.33,-0.50,1.11,-34.19,-14.48,56.40,-1.00
9150.00,-8.56,1.74,5.39,-0.27,-0.56,0.85,-34.19,-14.48,56.40,-1.00
9162.00,-8.28,0.98,4.67,-0.24,-0.60,0.49,-34.77,-14.33,56.22,-1.00
9174.00,-8.28,0.98,4.67,-0.24,-0.60,0.49,-34.77,-14.33,56.22,-1.00
9188.00,-8.17,1.01,5.97,-0.32,-0.66,0.51,-34.77,-14.33,56.22,-1.00
9200.00,-8.04,-0.20,5.76,-0.62,-0.65,0.59,-34.77,-14.33,56.22,-1.00
9212.00,-8.04,-0.20,5.76,-0.62,-0.65,0.59,-34.77,-14.33,56.22,-1.00
9224.00,-9.07,-0.91,4.83,-0.67,-0.69,0.90,-34.77,-14.33,56.22,-1.00
9238.00,-9.07,-0.91,4.83,-0.67,-0.69,0.90,-34.77,-14.33,56.22,-1.00
9250.00,-8.21,-0.40,6.20,-0.69,-0.82,0.99,-34.77,-14.33,56.22,-1.00
9262.00,-7.31,-0.31,6.62,-0.65,-0.65,0.98,-34.77,-14.33,56.22,-1.00
9274.00,-7.31,-0.31,6.62,-0.65,-0.65,0.98,-34.77,-14.33,56.22,-1.00
9288.00,-8.40,0.05,5.71,-0.51,-0.50,1.03,-35.36,-14.79,56.04,-1.00
9300.00,-7.93,0.09,6.12,-0.49,-0.55,0.99,-35.36,-14.79,56.04,-1.00
9312.00,-7.93,0.09,6.12,-0.49,-0.55,0.99,-35.36,-14.79,56.04,-1.00
9326.00,-8.01,0.29,6.53,-0.39,-0.46,1.01,-35.36,-14.79,56.04,-1.00
9338.00,-8.01,0.29,6.53,-0.39,-0.46,1.01,-35.36,-14.79,56.04,-1.00
9350.00,-8.74,0.20,5.63,-0.40,-0.44,0.98,-35.36,-14.79,56.04,-1.00
9362.00,-9.12,1.33,5.08,-0.44,-0.49,0.90,-35.36,-14.79,56.04,-1.00
9376.00,-9.12,1.33,5.08,-0.44,-0.49,0.90,-35.36,-14.79,56.04,-1.00
9388.00,-8.57,0.28,4.99,-0.27,-0.44,0.76,-35.36,-14.79,56.04,-1.00
9400.00,-8.05,-0.40,5.68,-0.13,-0.38,0.87,-34.97,-12.66,54.97,-1.00
9412.00,-8.05,-0.40,5.68,-0.13,-0.38,0.87,-34.97,-12.66,54.97,-1.00
9427.00,-7.77,0.57,5.76,-0.32,-0.42,1.11,-34.97,-12.66,54.97,-1.00
9438.00,-7.77,0.57,5.76,-0.32,-0.42,1.11,-34.97,-12.66,54.97,-1.00
9450.00,-7.79,0.28,5.68,-0.65,-0.56,1.15,-34.97,-12.66,54.97,-1.00
9462.00,-7.93,0.48,5.67,-0.67,-0.67,1.14,-34.97,-12.66,54.97,-1.00
9476.00,-7.93,0.48,5.67,-0.67,-0.67,1.14,-34.97,-12.66,54.97,-1.00
9488.00,-8.39,-0.14,5.80,-0.59,-0.75,0.99,-34.97,-12.66,54.97,-1.00
9500.00,-8.58,0.02,5.85,-0.53,-0.73,0.87,-34.97,-12.66,54.97,-1.00
9514.00,-8.58,0.02,5.85,-0.53,-0.73,0.87,-34.97,-12.66,54.97,-1.00
9526.00,-8.48,0.24,5.59,-0.55,-0.66,0.77,-36.72,-13.42,55.15,-1.00
9538.00,-8.48,0.24,5.59,-0.55,-0.66,0.77,-36.72,-13.42,55.15,-1.00
9550.00,-8.64,0.79,5.08,-0.52,-0.61,0.74,-36.72,-13.42,55.15,-1.00
9564.00,-8.69,0.64,4.84,-0.46,-0.58,0.74,-36.72,-13.42,55.15,-1.00
9577.00,-8.69,0.64,4.84,-0.46,-0.58,0.74,-36.72,-13.42,55.15,-1.00
9588.00,-8.28,0.08,5.67,-0.22,-0.53,0.79,-36.72,-13.42,55.15,-1.00
9600.00,-8.50,1.07,6.04,-0.18,-0.45,0.92,-36.72,-13.42,55.15,-1.00
9614.00,-8.50,1.07,6.04,-0.18,-0.45,0.92,-36.72,-13.42,55.15,-1.00
9626.00,-8.40,1.06,4.91,-0.34,-0.42,0.95,-36.72,-13.42,55.15,-1.00
9638.00,-8.40,1.06,4.91,-0.34,-0.42,0.95,-36.72,-13.42,55.15,-1.00
9650.00,-8.50,0.57,4.79,-0.61,-0.52,1.00,-36.72,-13.42,55.15,-1.00
9664.00,-10.01,0.38,3.50,-0.75,-0.64,1.20,-38.28,-12.51,54.07,-1.00
9676.00,-10.01,0.38,3.50,-0.75,-0.64,1.20,-38.28,-12.51,54.07,-1.00
9688.00,-10.31,1.29,3.30,-1.28,-1.24,1.11,-38.28,-12.51,54.07,-1.00
9702.00,-10.81,0.45,3.55,-1.97,-1.96,1.04,-38.28,-12.51,54.07,-1.00
9715.00,-10.81,0.45,3.55,-1.97,-1.96,1.04,-38.28,-12.51,54.07,-1.00
9726.00,-10.14,-0.40,5.27,-2.32,-2.49,1.48,-38.28,-12.51,54.07,-1.00
9738.00,-10.14,-0.40,5.27,-2.32,-2.49,1.48,-38.28,-12.51,54.07,-1.00
9752.00,-6.23,0.62,8.78,-2.05,-2.71,1.70,-38.28,-12.51,54.07,-1.00
9764.00,-5.10,0.41,9.24,-1.40,-2.05,1.29,-38.28,-12.51,54.07,-1.00
9776.00,-5.10,0.41,9.24,-1.40,-2.05,1.29,-38.28,-12.51,54.07,-1.00
9788.00,-4.40,-0.23,7.15,-0.86,-1.26,0.77,-31.65,-15.54,59.45,-1.00
9802.00,-3.08,1.07,5.70,-0.56,-0.82,0.37,-31.65,-15.54,59.45,-1.00
9814.00,-3.08,1.07,5.70,-0.56,-0.82,0.37,-31.65,-15.54,59.45,-1.00
9826.00,-6.27,-1.32,6.61,-0.39,-0.32,0.08,-31.65,-15.54,59.45,-1.00
9840.00,-8.17,-2.58,4.59,-0.26,0.18,0.69,-31.65,-15.54,59.45,-1.00
9852.00,-8.17,-2.58,4.59,-0.26,0.18,0.69,-31.65,-15.54,59.45,-1.00
9864.00,-8.07,1.16,6.84,-0.10,0.17,1.30,-31.65,-15.54,59.45,-1.00
9876.00,-8.07,1.16,6.84,-0.10,0.17,1.30,-31.65,-15.54,59.45,-1.00
9890.00,-6.42,0.51,6.29,-0.04,0.04,0.84,-31.65,-15.54,59.45,-1.00
9902.00,-8.22,-0.90,5.87,0.00,-0.17,0.68,-31.85,-13.88,57.48,-1.00
9914.00,-8.22,-0.90,5.87,0.00,-0.17,0.68,-31.85,-13.88,57.48,-1.00
9926.00,-10.30,-0.35,8.12,0.08,-0.64,1.04,-31.85,-13.88,57.48,-1.00
9940.00,-9.74,1.64,6.80,-0.35,-0.70,1.06,-31.85,-13.88,57.48,-1.00
9952.00,-9.74,1.64,6.80,-0.35,-0.70,1.06,-31.85,-13.88,57.48,-1.00
9964.00,-8.19,-0.12,4.36,-0.65,-0.58,0.66,-31.85,-13.88,57.48,-1.00
9976.00,-8.19,-0.12,4.36,-0.65,-0.58,0.66,-31.85,-13.88,57.48,-1.00
9991.00,-7.58,-0.79,6.86,-0.82,-0.69,0.59,-31.85,-13.88,57.48,-1.00
10002.00,-6.91,-0.13,6.79,-0.62,-0.49,0.74,-31.85,-13.88,57.48,-1.00
10014.00,-6.91,-0.13,6.79,-0.62,-0.49,0.74,-31.85,-13.88,57.48,-1.00
10028.00,-7.80,0.48,6.36,-0.38,-0.45,0.71,-33.02,-14.79,57.84,-1.00
10040.00,-7.93,0.92,5.44,-0.37,-0.52,0.63,-33.02,-14.79,57.84,-1.00
10052.00,-7.93,0.92,5.44,-0.37,-0.52,0.63,-33.02,-14.79,57.84,-1.00
10064.00,-8.00,0.24,5.92,-0.45,-0.59,0.66,-33.02,-14.79,57.84,-1.00
10078.00,-8.00,0.24,5.92,-0.45,-0.59,0.66,-33.02,-14.79,57.84,-1.00
10090.00,-8.39,0.38,5.76,-0.50,-0.53,0.81,-33.02,-14.79,57.84,-1.00
10102.00,-8.39,-0.21,5.76,-0.55,-0.60,0.79,-33.02,-14.79,57.84,-1.00
10114.00,-8.39,-0.21,5.76,-0.55,-0.60,0.79,-33.02,-14.79,57.84,-1.00
10128.00,-7.99,0.30,5.87,-0.59,-0.62,0.79,-33.02,-14.79,57.84,-1.00
10140.00,-8.01,0.06,6.07,-0.56,-0.61,0.80,-34.19,-14.18,56.76,-1.00
10152.00,-8.01,0.06,6.07,-0.56,-0.61,0.80,-34.19,-14.18,56.76,-1.00
10167.00,-7.75,0.05,6.06,-0.53,-0.64,0.73,-34.19,-14.18,56.76,-1.00
10178.00,-7.75,0.05,6.06,-0.53,-0.64,0.73,-34.19,-14.18,56.76,-1.00
10190.00,-8.10,-0.02,6.04,-0.46,-0.63,0.72,-34.19,-14.18,56.76,-1.00
10202.00,-8.22,0.23,5.84,-0.43,-0.61,0.80,-34.19,-14.18,56.76,-1.00
10216.00,-8.22,0.23,5.84,-0.43,-0.61,0.80,-34.19,-14.18,56.76,-1.00
10228.00,-7.68,-0.02,6.34,-0.40,-0.59,0.85,-34.19,-14.18,56.76,-1.00
10240.00,-7.69,-0.33,6.32,-0.35,-0.50,0.86,-34.19,-14.18,56.76,-1.00
10252.00,-7.69,-0.33,6.32,-0.35,-0.50,0.86,-34.19,-14.18,56.76,-1.00
10266.00,-7.92,-0.12,6.17,-0.19,-0.34,0.87,-35.75,-14.48,57.12,-1.00
10278.00,-8.97,0.02,5.00,-0.16,-0.23,0.92,-35.75,-14.48,57.12,-1.00
10290.00,-8.97,0.02,5.00,-0.16,-0.23,0.92,-35.75,-14.48,57.12,-1.00
10302.00,-8.04,0.72,5.53,-0.41,-0.40,1.01,-35.75,-14.48,57.12,-1.00
10317.00,-8.04,0.72,5.53,-0.41,-0.40,1.01,-35.75,-14.48,57.12,-1.00
10329.00,-8.04,0.42,5.80,-0.50,-0.52,1.02,-35.75,-14.48,57.12,-1.00
10341.00,-7.87,0.62,5.76,-0.54,-0.64,1.04,-35.75,-14.48,57.12,-1.00
10355.00,-7.87,0.62,5.76,-0.54,-0.64,1.04,-35.75,-14.48,57.12,-1.00
10443.00,-8.76,0.57,5.44,-0.50,-0.67,0.44,-33.60,-12.21,56.58,-1.00
10532.00,-7.91,0.17,5.62,-0.77,-0.59,1.37,-36.53,-14.18,56.04,-1.00
10620.00,-8.36,0.93,5.56,-0.30,-0.55,0.56,-36.53,-14.18,56.04,-1.00
10634.00,-8.36,0.93,5.56,-0.30,-0.55,0.56,-36.53,-14.18,56.04,-1.00
10646.00,-7.95,1.80,4.97,-0.23,-0.55,0.29,-33.99,-13.12,56.94,-1.00
10658.00,-8.03,1.73,5.58,-0.34,-0.64,0.20,-33.99,-13.12,56.94,-1.00
10670.00,-8.03,1.73,5.58,-0.34,-0.64,0.20,-33.99,-13.12,56.94,-1.00
10684.00,-9.37,-1.04,4.58,-0.52,-0.73,0.38,-33.99,-13.12,56.94,-1.00
10696.00,-9.37,-1.04,4.58,-0.52,-0.73,0.38,-33.99,-13.12,56.94,-1.00
10708.00,-9.30,-1.09,4.50,-1.03,-1.12,0.99,-33.99,-13.12,56.94,-1.00
10722.00,-7.96,0.10,6.10,-1.47,-1.33,1.46,-33.99,-13.12,56.94,-1.00
10734.00,-7.96,0.10,6.10,-1.47,-1.33,1.46,-33.99,-13.12,56.94,-1.00
10746.00,-6.05,0.20,6.62,-1.08,-0.90,1.49,-33.99,-13.12,56.94,-1.00
10758.00,-6.48,0.29,7.10,-0.64,-0.59,1.24,-34.58,-13.88,57.84,-1.00
10772.00,-6.48,0.29,7.10,-0.64,-0.59,1.24,-34.58,-13.88,57.84,-1.00
10784.00,-7.53,0.07,5.98,-0.41,-0.54,0.92,-34.58,-13.88,57.84,-1.00
10796.00,-7.53,0.07,5.98,-0.41,-0.54,0.92,-34.58,-13.88,57.84,-1.00
10808.00,-8.88,0.58,5.40,-0.31,-0.58,0.80,-34.58,-13.88,57.84,-1.00
10822.00,-8.45,-0.38,6.17,-0.42,-0.62,0.81,-34.58,-13.88,57.84,-1.00
10834.00,-8.45,-0.38,6.17,-0.42,-0.62,0.81,-34.58,-13.88,57.84,-1.00
10846.00,-7.22,-0.44,6.70,-0.49,-0.51,0.93,-34.58,-13.88,57.84,-1.00
10860.00,-7.76,-0.22,6.35,-0.30,-0.32,0.96,-34.58,-13.88,57.84,-1.00
10872.00,-7.76,-0.22,6.35,-0.30,-0.32,0.96,-34.58,-13.88,57.84,-1.00
10884.00,-9.01,0.17,4.70,-0.29,-0.34,0.97,-36.14,-13.57,57.84,-1.00
10896.00,-9.01,0.17,4.70,-0.29,-0.34,0.97,-36.14,-13.57,57.84,-1.00
10911.00,-9.17,0.28,4.63,-0.46,-0.46,1.00,-36.14,-13.57,57.84,-1.00
10923.00,-8.48,-0.06,5.55,-0.47,-0.58,0.92,-36.14,-13.57,57.84,-1.00
10935.00,-8.48,-0.06,5.55,-0.47,-0.58,0.92,-36.14,-13.57,57.84,-1.00
10947.00,-8.90,1.85,5.63,-0.36,-0.62,0.77,-36.14,-13.57,57.84,-1.00
10961.00,-8.58,1.61,5.60,-0.33,-0.56,0.55,-36.14,-13.57,57.84,-1.00
10973.00,-8.58,1.61,5.60,-0.33,-0.56,0.55,-36.14,-13.57,57.84,-1.00
10985.00,-7.79,0.40,6.29,-0.39,-0.49,0.64,-36.14,-13.57,57.84,-1.00
10999.00,-7.04,-0.95,5.39,-0.55,-0.46,1.05,-36.14,-13.57,57.84,-1.00
11011.00,-7.04,-0.95,5.39,-0.55,-0.46,1.05,-36.14,-13.57,57.84,-1.00
11023.00,-8.23,0.76,5.48,-0.63,-0.60,1.41,-34.97,-13.88,56.40,-1.00
11035.00,-8.23,0.76,5.48,-0.63,-0.60,1.41,-34.97,-13.88,56.40,-1.00
11049.00,-8.62,-0.06,5.52,-0.53,-0.68,1.17,-34.97,-13.88,56.40,-1.00
11061.00,-9.46,0.98,6.14,-0.63,-0.75,0.88,-34.97,-13.88,56.40,-1.00
11073.00,-9.46,0.98,6.14,-0.63,-0.75,0.88,-34.97,-13.88,56.40,-1.00
11085.00,-7.44,-0.22,5.56,-0.70,-0.61,0.70,-34.97,-13.88,56.40,-1.00
11100.00,-7.64,-0.16,5.70,-0.54,-0.50,0.84,-34.97,-13.88,56.40,-1.00
11111.00,-7.64,-0.16,5.70,-0.54,-0.50,0.84,-34.97,-13.88,56.40,-1.00
11123.00,-8.60,-0.17,4.97,-0.27,-0.45,0.92,-34.97,-13.88,56.40,-1.00
11137.00,-9.02,0.81,6.04,-0.10,-0.55,0.76,-36.33,-12.51,55.51,-1.00
11149.00,-9.02,0.81,6.04,-0.10,-0.55,0.76,-36.33,-12.51,55.51,-1.00
11161.00,-8.38,1.97,5.02,-0.21,-0.55,0.44,-36.33,-12.51,55.51,-1.00
11173.00,-8.38,1.97,5.02,-0.21,-0.55,0.44,-36.33,-12.51,55.51,-1.00
11187.00,-7.90,1.00,5.66,-0.45,-0.66,0.46,-36.33,-12.51,55.51,-1.00
11199.00,-7.59,-1.08,5.04,-0.83,-0.84,0.75,-36.33,-12.51,55.51,-1.00
11211.00,-7.59,-1.08,5.04,-0.83,-0.84,0.75,-36.33,-12.51,55.51,-1.00
11223.00,-7.87,0.50,6.25,-1.11,-1.02,1.16,-36.33,-12.51,55.51,-1.00
11237.00,-7.74,-0.89,6.83,-1.11,-0.80,1.25,-36.33,-12.51,55.51,-1.00
11249.00,-7.74,-0.89,6.83,-1.11,-0.80,1.25,-36.33,-12.51,55.51,-1.00
11261.00,-8.50,-0.65,4.54,-0.83,-0.43,1.26,-36.33,-13.73,56.22,-1.00
11273.00,-8.50,-0.65,4.54,-0.83,-0.43,1.26,-36.33,-13.73,56.22,-1.00
11287.00,-8.74,0.75,4.29,-0.83,-0.51,1.17,-36.33,-13.73,56.22,-1.00
11299.00,-9.36,0.90,5.58,-0.51,-0.54,1.04,-36.33,-13.73,56.22,-1.00
11311.00,-9.36,0.90,5.58,-0.51,-0.54,1.04,-36.33,-13.73,56.22,-1.00
11325.00,-10.64,0.28,4.47,-0.60,-0.55,0.94,-36.33,-13.73,56.22,-1.00
11337.00,-8.71,0.70,4.56,-1.18,-0.99,0.80,-36.33,-13.73,56.22,-1.00
11349.00,-8.71,0.70,4.56,-1.18,-0.99,0.80,-36.33,-13.73,56.22,-1.00
11361.00,-4.84,-1.22,5.72,-1.10,-0.75,0.92,-36.33,-13.73,56.22,-1.00
11376.00,-4.84,-1.22,5.72,-1.10,-0.75,0.92,-36.33,-13.73,56.22,-1.00
11387.00,-6.74,1.68,7.23,-0.70,-0.43,1.05,-36.92,-13.88,55.33,-1.00
11400.00,-7.43,0.59,5.63,-0.42,-0.41,0.73,-36.92,-13.88,55.33,-1.00
11412.00,-7.43,0.59,5.63,-0.42,-0.41,0.73,-36.92,-13.88,55.33,-1.00
11426.00,-9.33,0.88,4.84,-0.29,-0.50,0.65,-36.92,-13.88,55.33,-1.00
11438.00,-8.67,-0.39,5.24,-0.41,-0.66,0.63,-36.92,-13.88,55.33,-1.00
11450.00,-8.67,-0.39,5.24,-0.41,-0.66,0.63,-36.92,-13.88,55.33,-1.00
11464.00,-8.10,-0.34,6.05,-0.51,-0.67,0.75,-36.92,-13.88,55.33,-1.00
11476.00,-8.10,-0.34,6.05,-0.51,-0.67,0.75,-36.92,-13.88,55.33,-1.00
11488.00,-7.92,0.06,5.83,-0.46,-0.58,0.81,-36.92,-13.88,55.33,-1.00
11500.00,-8.10,0.12,5.65,-0.36,-0.45,0.91,-35.55,-14.94,55.15,-1.00
11514.00,-8.10,0.12,5.65,-0.36,-0.45,0.91,-35.55,-14.94,55.15,-1.00
11526.00,-8.25,0.58,5.26,-0.39,-0.46,1.03,-35.55,-14.94,55.15,-1.00
11538.00,-8.52,-0.10,5.08,-0.37,-0.48,1.09,-35.55,-14.94,55.15,-1.00
11550.00,-8.52,-0.10,5.08,-0.37,-0.48,1.09,-35.55,-14.94,55.15,-1.00
11565.00,-8.42,0.52,5.41,-0.43,-0.57,1.06,-35.55,-14.94,55.15,-1.00
11576.00,-8.42,0.52,5.41,-0.43,-0.57,1.06,-35.55,-14.94,55.15,-1.00
11588.00,-8.06,0.23,4.80,-0.52,-0.66,0.97,-35.55,-14.94,55.15,-1.00
11602.00,-8.50,0.42,5.17,-0.54,-0.79,0.92,-35.55,-14.94,55.15,-1.00
11614.00,-8.50,0.42,5.17,-0.54,-0.79,0.92,-35.55,-14.94,55.15,-1.00
11626.00,-8.92,0.37,5.95,-0.63,-0.82,0.72,-37.31,-12.66,53.17,-1.00
11638.00,-8.82,0.00,5.32,-0.64,-0.72,0.51,-37.31,-12.66,53.17,-1.00
11652.00,-8.82,0.00,5.32,-0.64,-0.72,0.51,-37.31,-12.66,53.17,-1.00
11664.00,-8.91,0.98,5.73,-0.56,-0.61,0.50,-37.31,-12.66,53.17,-1.00
11676.00,-8.23,-0.12,4.88,-0.46,-0.47,0.61,-37.31,-12.66,53.17,-1.00
11688.00,-8.23,-0.12,4.88,-0.46,-0.47,0.61,-37.31,-12.66,53.17,-1.00
11702.00,-8.22,1.11,5.21,-0.28,-0.45,0.84,-37.31,-12.66,53.17,-1.00
11714.00,-8.22,1.11,5.21,-0.28,-0.45,0.84,-37.31,-12.66,53.17,-1.00
11726.00,-8.79,-0.26,3.99,-0.38,-0.57,0.89,-37.31,-12.66,53.17,-1.00
11740.00,-8.24,0.14,5.83,-0.71,-0.95,1.14,-37.31,-12.66,53.17,-1.00
11752.00,-8.24,0.14,5.83,-0.71,-0.95,1.14,-37.31,-12.66,53.17,-1.00
11764.00,-7.40,-0.33,6.09,-0.91,-0.95,1.31,-36.53,-13.27,54.61,-1.00
11776.00,-7.98,0.05,6.04,-0.55,-0.72,1.41,-36.53,-13.27,54.61,-1.00
11790.00,-7.98,0.05,6.04,-0.55,-0.72,1.41,-36.53,-13.27,54.61,-1.00
11802.00,-8.20,0.50,5.95,-0.30,-0.52,1.30,-36.53,-13.27,54.61,-1.00
11814.00,-8.20,0.50,5.95,-0.30,-0.52,1.30,-36.53,-13.27,54.61,-1.00
11826.00,-8.40,0.87,5.47,-0.37,-0.49,1.10,-36.53,-13.27,54.61,-1.00
11841.00,-8.71,0.12,4.97,-0.40,-0.49,1.00,-36.53,-13.27,54.61,-1.00
11852.00,-8.71,0.12,4.97,-0.40,-0.49,1.00,-36.53,-13.27,54.61,-1.00
11864.00,-8.58,0.44,5.21,-0.43,-0.60,0.94,-36.53,-13.27,54.61,-1.00
11876.00,-9.16,0.30,5.95,-0.43,-0.64,0.73,-38.48,-12.97,54.25,-1.00
11890.00,-9.16,0.30,5.95,-0.43,-0.64,0.73,-38.48,-12.97,54.25,-1.00
11902.00,-8.82,0.43,5.63,-0.31,-0.54,0.37,-38.48,-12.97,54.25,-1.00
11914.00,-8.82,0.43,5.63,-0.31,-0.54,0.37,-38.48,-12.97,54.25,-1.00
11928.00,-8.57,0.94,5.32,0.14,-0.48,0.19,-38.48,-12.97,54.25,-1.00
11940.00,-8.05,1.04,5.35,0.01,-0.57,0.29,-38.48,-12.97,54.25,-1.00
11952.00,-8.05,1.04,5.35,0.01,-0.57,0.29,-38.48,-12.97,54.25,-1.00
11965.00,-8.11,-0.88,4.67,-0.61,-0.72,0.66,-38.48,-12.97,54.25,-1.00
11978.00,-8.93,-0.08,4.46,-0.73,-0.80,1.23,-38.48,-12.97,54.25,-1.00
11990.00,-8.93,-0.08,4.46,-0.73,-0.80,1.23,-38.48,-12.97,54.25,-1.00
12002.00,-8.07,0.55,6.37,-0.66,-0.76,1.43,-37.31,-12.36,53.53,-1.00
12014.00,-8.07,0.55,6.37,-0.66,-0.76,1.43,-37.31,-12.36,53.53,-1.00
12028.00,-7.81,0.17,6.32,-0.45,-0.45,1.33,-37.31,-12.36,53.53,-1.00
12040.00,-8.36,0.82,5.70,-0.29,-0.27,1.20,-37.31,-12.36,53.53,-1.00
12052.00,-8.36,0.82,5.70,-0.29,-0.27,1.20,-37.31,-12.36,53.53,-1.00
12066.00,-8.32,0.42,4.93,-0.43,-0.42,1.00,-37.31,-12.36,53.53,-1.00
12078.00,-8.38,1.54,5.02,-0.49,-0.63,0.90,-37.31,-12.36,53.53,-1.00
12090.00,-8.38,1.54,5.02,-0.49,-0.63,0.90,-37.31,-12.36,53.53,-1.00
12102.00,-8.36,0.64,5.77,-0.50,-0.82,0.69,-37.31,-12.36,53.53,-1.00
12117.00,-8.85,0.05,5.41,-0.46,-0.74,0.70,-37.89,-12.21,53.71,-1.00
12128.00,-8.85,0.05,5.41,-0.46,-0.74,0.70,-37.89,-12.21,53.71,-1.00
12140.00,-8.85,0.39,4.47,-0.55,-0.64,0.86,-37.89,-12.21,53.71,-1.00
12152.00,-8.85,0.39,4.47,-0.55,-0.64,0.86,-37.89,-12.21,53.71,-1.00
12166.00,-9.20,0.79,6.29,-0.60,-0.60,0.95,-37.89,-12.21,53.71,-1.00
12178.00,-8.41,0.17,4.45,-0.49,-0.38,0.93,-37.89,-12.21,53.71,-1.00
12190.00,-8.41,0.17,4.45,-0.49,-0.38,0.93,-37.89,-12.21,53.71,-1.00
12204.00,-8.81,2.73,3.76,-0.26,-0.40,0.97,-37.89,-12.21,53.71,-1.00
12216.00,-9.99,2.30,3.49,-0.24,-0.62,0.73,-37.89,-12.21,53.71,-1.00
12228.00,-9.99,2.30,3.49,-0.24,-0.62,0.73,-37.89,-12.21,53.71,-1.00
12240.00,-10.37,-0.20,2.42,-0.83,-1.34,0.60,-37.31,-11.45,54.61,-1.00
12254.00,-10.37,-0.20,2.42,-0.83,-1.34,0.60,-37.31,-11.45,54.61,-1.00
12266.00,-9.06,-0.55,6.16,-1.47,-2.31,0.85,-37.31,-11.45,54.61,-1.00
12278.00,-7.93,-0.71,7.02,-1.74,-2.20,1.26,-37.31,-11.45,54.61,-1.00
12290.00,-7.93,-0.71,7.02,-1.74,-2.20,1.26,-37.31,-11.45,54.61,-1.00
12304.00,-8.10,0.34,6.32,-1.92,-2.15,1.49,-37.31,-11.45,54.61,-1.00
12316.00,-8.22,0.68,6.46,-1.70,-1.89,1.43,-37.31,-11.45,54.61,-1.00
12328.00,-8.22,0.68,6.46,-1.70,-1.89,1.43,-37.31,-11.45,54.61,-1.00
12340.00,-7.50,0.68,6.40,-1.25,-1.07,1.41,-37.31,-11.45,54.61,-1.00
12354.00,-7.50,0.68,6.40,-1.25,-1.07,1.41,-37.31,-11.45,54.61,-1.00
12366.00,-7.16,0.53,5.13,-0.81,-0.38,1.37,-33.60,-14.64,59.10,-1.00
12378.00,-6.81,0.74,4.70,-0.53,-0.23,1.23,-33.60,-14.64,59.10,-1.00
12393.00,-6.81,0.74,4.70,-0.53,-0.23,1.23,-33.60,-14.64,59.10,-1.00
12404.00,-6.74,0.22,5.85,-0.49,-0.54,1.19,-33.60,-14.64,59.10,-1.00
12417.00,-6.37,0.64,7.63,-0.84,-0.70,1.16,-33.60,-14.64,59.10,-1.00
12429.00,-6.37,0.64,7.63,-0.84,-0.70,1.16,-33.60,-14.64,59.10,-1.00
12443.00,-5.25,0.06,8.31,-0.99,-0.51,0.69,-33.60,-14.64,59.10,-1.00
12455.00,-5.44,-1.43,7.30,-0.71,-0.33,0.37,-33.60,-14.64,59.10,-1.00
12467.00,-5.44,-1.43,7.30,-0.71,-0.33,0.37,-33.60,-14.64,59.10,-1.00
12479.00,-6.34,-0.66,6.84,-0.41,-0.39,0.50,-33.60,-14.64,59.10,-1.00
12493.00,-6.34,-0.66,6.84,-0.41,-0.39,0.50,-33.60,-14.64,59.10,-1.00
12505.00,-6.77,0.23,6.66,-0.33,-0.50,0.60,-33.99,-13.12,57.30,-1.00
12517.00,-12.07,0.91,6.95,0.07,-0.45,0.85,-33.99,-13.12,57.30,-1.00
12531.00,-12.07,0.91,6.95,0.07,-0.45,0.85,-33.99,-13.12,57.30,-1.00
12543.00,-9.42,2.90,4.86,-0.27,-0.80,0.92,-33.99,-13.12,57.30,-1.00
12555.00,-6.80,-0.95,5.31,-0.53,-0.96,0.63,-33.99,-13.12,57.30,-1.00
12567.00,-6.80,-0.95,5.31,-0.53,-0.96,0.63,-33.99,-13.12,57.30,-1.00
12582.00,-8.36,-0.78,6.84,-0.14,-0.59,0.91,-33.99,-13.12,57.30,-1.00
12593.00,-8.36,-0.78,6.84,-0.14,-0.59,0.91,-33.99,-13.12,57.30,-1.00
12605.00,-8.34,0.77,6.77,-0.19,-0.56,1.00,-33.99,-13.12,57.30,-1.00
12617.00,-7.58,0.76,5.61,-0.41,-0.68,0.84,-33.41,-12.06,58.20,-1.00
12631.00,-7.58,0.76,5.61,-0.41,-0.68,0.84,-33.41,-12.06,58.20,-1.00
12643.00,-8.16,0.63,6.09,-0.41,-0.78,0.77,-33.41,-12.06,58.20,-1.00
12655.00,-8.15,0.60,6.10,-0.36,-0.77,0.74,-33.41,-12.06,58.20,-1.00
12669.00,-8.15,0.60,6.10,-0.36,-0.77,0.74,-33.41,-12.06,58.20,-1.00
12681.00,-7.64,0.45,6.03,-0.46,-0.82,0.70,-33.41,-12.06,58.20,-1.00
12693.00,-7.64,0.45,6.03,-0.46,-0.82,0.70,-33.41,-12.06,58.20,-1.00
12705.00,-7.96,0.40,5.75,-0.43,-0.77,0.76,-33.41,-12.06,58.20,-1.00
12719.00,-7.77,0.83,6.03,-0.29,-0.72,0.85,-33.41,-12.06,58.20,-1.00
12806.00,-7.35,0.43,6.19,-0.35,-0.49,0.96,-32.63,-12.66,58.56,-1.00
12895.00,-8.27,2.01,5.97,-0.55,-0.54,0.29,-34.58,-10.84,56.76,-1.00
12982.00,-7.78,-1.20,4.84,-0.87,-0.59,0.83,-35.75,-11.15,57.48,-1.00
12996.00,-8.69,0.60,6.19,-0.70,-0.60,1.23,-35.75,-11.15,57.48,-1.00
13008.00,-8.69,0.60,6.19,-0.70,-0.60,1.23,-35.75,-11.15,57.48,-1.00
13020.00,-8.65,0.01,6.01,-0.70,-0.51,1.13,-35.75,-11.15,57.48,-1.00
13035.00,-7.98,0.36,6.11,-0.65,-0.45,0.98,-35.75,-11.15,57.48,-1.00
13046.00,-7.98,0.36,6.11,-0.65,-0.45,0.98,-35.75,-11.15,57.48,-1.00
13058.00,-7.49,0.75,5.84,-0.50,-0.52,0.83,-35.75,-11.15,57.48,-1.00
13070.00,-7.49,0.75,5.84,-0.50,-0.52,0.83,-35.75,-11.15,57.48,-1.00
13084.00,-7.49,1.91,5.95,-0.43,-0.70,0.67,-35.75,-11.15,57.48,-1.00
13096.00,-8.36,0.92,5.94,-0.52,-0.88,0.51,-35.75,-11.15,57.48,-1.00
13108.00,-8.36,0.92,5.94,-0.52,-0.88,0.51,-35.75,-11.15,57.48,-1.00
13120.00,-8.83,1.17,6.17,-0.83,-0.91,0.61,-34.19,-11.75,56.04,-1.00
13134.00,-9.42,-1.12,5.03,-1.08,-0.79,0.71,-34.19,-11.75,56.04,-1.00
13146.00,-9.42,-1.12,5.03,-1.08,-0.79,0.71,-34.19,-11.75,56.04,-1.00
13158.00,-8.10,0.74,5.53,-1.22,-0.76,1.05,-34.19,-11.75,56.04,-1.00
13171.00,-8.10,0.74,5.53,-1.22,-0.76,1.05,-34.19,-11.75,56.04,-1.00
13186.00,-7.66,0.12,6.13,-0.92,-0.67,0.99,-34.19,-11.75,56.04,-1.00
13197.00,-7.23,0.19,6.38,-0.61,-0.61,0.94,-34.19,-11.75,56.04,-1.00
13209.00,-7.23,0.19,6.38,-0.61,-0.61,0.94,-34.19,-11.75,56.04,-1.00
13223.00,-8.07,0.05,6.04,-0.38,-0.51,0.96,-34.19,-11.75,56.04,-1.00
13235.00,-7.81,0.44,5.84,-0.40,-0.57,0.96,-34.38,-13.42,57.66,-1.00
13247.00,-7.81,0.44,5.84,-0.40,-0.57,0.96,-34.38,-13.42,57.66,-1.00
13259.00,-8.27,0.09,5.90,-0.38,-0.52,0.96,-34.38,-13.42,57.66,-1.00
13273.00,-8.27,0.09,5.90,-0.38,-0.52,0.96,-34.38,-13.42,57.66,-1.00
13285.00,-8.74,0.22,5.73,-0.36,-0.54,0.87,-34.38,-13.42,57.66,-1.00
13297.00,-8.38,0.36,5.40,-0.24,-0.51,0.65,-34.38,-13.42,57.66,-1.00
13309.00,-8.38,0.36,5.40,-0.24,-0.51,0.65,-34.38,-13.42,57.66,-1.00
13323.00,-7.76,1.02,5.74,-0.21,-0.52,0.59,-34.38,-13.42,57.66,-1.00
13335.00,-7.86,0.95,6.29,-0.36,-0.59,0.73,-34.38,-13.42,57.66,-1.00
13347.00,-7.86,0.95,6.29,-0.36,-0.59,0.73,-34.38,-13.42,57.66,-1.00
13361.00,-7.77,0.15,5.53,-0.61,-0.63,0.81,-36.72,-11.60,56.58,-1.00
13373.00,-7.77,0.15,5.53,-0.61,-0.63,0.81,-36.72,-11.60,56.58,-1.00
13385.00,-8.75,-0.14,5.55,-0.77,-0.66,1.09,-36.72,-11.60,56.58,-1.00
13397.00,-8.95,1.05,5.71,-0.73,-0.54,1.29,-36.72,-11.60,56.58,-1.00
13411.00,-8.95,1.05,5.71,-0.73,-0.54,1.29,-36.72,-11.60,56.58,-1.00
13423.00,-8.79,0.36,6.17,-0.76,-0.43,1.09,-36.72,-11.60,56.58,-1.00
13435.00,-7.56,0.72,5.32,-0.70,-0.36,0.92,-36.72,-11.60,56.58,-1.00
13447.00,-7.56,0.72,5.32,-0.70,-0.36,0.92,-36.72,-11.60,56.58,-1.00
13463.00,-7.47,0.51,5.58,-0.63,-0.50,0.86,-36.72,-11.60,56.58,-1.00
13474.00,-7.75,0.47,5.70,-0.59,-0.63,0.87,-36.33,-11.60,56.58,-1.00
13486.00,-7.75,0.47,5.70,-0.59,-0.63,0.87,-36.33,-11.60,56.58,-1.00
13498.00,-7.95,-0.04,5.42,-0.49,-0.72,0.90,-36.33,-11.60,56.58,-1.00
13512.00,-7.95,-0.04,5.42,-0.49,-0.72,0.90,-36.33,-11.60,56.58,-1.00
13524.00,-8.54,0.51,5.57,-0.36,-0.75,0.93,-36.33,-11.60,56.58,-1.00
13536.00,-8.74,1.03,6.07,-0.40,-0.71,0.83,-36.33,-11.60,56.58,-1.00
13550.00,-8.74,1.03,6.07,-0.40,-0.71,0.83,-36.33,-11.60,56.58,-1.00
13562.00,-8.49,0.43,5.68,-0.38,-0.61,0.65,-36.33,-11.60,56.58,-1.00
13574.00,-8.26,1.31,5.41,-0.33,-0.50,0.75,-36.33,-11.60,56.58,-1.00
13586.00,-8.26,1.31,5.41,-0.33,-0.50,0.75,-36.33,-11.60,56.58,-1.00
13600.00,-7.73,0.22,5.32,-0.40,-0.48,0.84,-37.50,-11.30,55.51,-1.00
13612.00,-7.73,0.22,5.32,-0.40,-0.48,0.84,-37.50,-11.30,55.51,-1.00
13624.00,-7.87,1.17,6.04,-0.58,-0.58,1.06,-37.50,-11.30,55.51,-1.00
13636.00,-7.65,0.28,5.48,-0.68,-0.66,1.08,-37.50,-11.30,55.51,-1.00
13651.00,-7.65,0.28,5.48,-0.68,-0.66,1.08,-37.50,-11.30,55.51,-1.00
13662.00,-8.48,-0.05,6.02,-0.70,-0.80,1.03,-37.50,-11.30,55.51,-1.00
13674.00,-8.82,1.13,5.34,-0.69,-0.82,0.89,-37.50,-11.30,55.51,-1.00
13688.00,-8.82,1.13,5.34,-0.69,-0.82,0.89,-37.50,-11.30,55.51,-1.00
13700.00,-9.76,0.37,6.14,-0.85,-0.91,0.60,-37.50,-11.30,55.51,-1.00
13712.00,-9.76,0.37,6.14,-0.85,-0.91,0.60,-37.50,-11.30,55.51,-1.00
13724.00,-8.69,-0.30,4.60,-1.25,-0.93,0.71,-35.94,-12.82,57.66,-1.00
13738.00,-7.48,0.38,5.61,-1.13,-0.84,1.08,-35.94,-12.82,57.66,-1.00
13750.00,-7.48,0.38,5.61,-1.13,-0.84,1.08,-35.94,-12.82,57.66,-1.00
13762.00,-6.83,1.13,6.46,-0.81,-0.71,1.16,-35.94,-12.82,57.66,-1.00
13774.00,-7.14,-0.14,7.12,-0.63,-0.68,0.86,-35.94,-12.82,57.66,-1.00
13788.00,-7.14,-0.14,7.12,-0.63,-0.68,0.86,-35.94,-12.82,57.66,-1.00
13800.00,-8.00,0.10,5.92,-0.50,-0.57,0.79,-35.94,-12.82,57.66,-1.00
13812.00,-8.00,0.10,5.92,-0.50,-0.57,0.79,-35.94,-12.82,57.66,-1.00
13826.00,-8.49,0.73,5.19,-0.52,-0.59,0.80,-35.94,-12.82,57.66,-1.00
13838.00,-8.13,0.55,5.75,-0.60,-0.69,0.77,-35.94,-12.82,57.66,-1.00
13850.00,-8.13,0.55,5.75,-0.60,-0.69,0.77,-35.94,-12.82,57.66,-1.00
13862.00,-7.74,0.01,6.20,-0.56,-0.66,0.79,-35.36,-12.97,56.04,-1.00
13876.00,-7.76,-0.08,6.27,-0.41,-0.54,0.86,-35.36,-12.97,56.04,-1.00
13888.00,-7.76,-0.08,6.27,-0.41,-0.54,0.86,-35.36,-12.97,56.04,-1.00
13900.00,-8.29,0.32,5.75,-0.31,-0.42,0.93,-35.36,-12.97,56.04,-1.00
13912.00,-8.29,0.32,5.75,-0.31,-0.42,0.93,-35.36,-12.97,56.04,-1.00
13927.00,-8.33,0.92,5.93,-0.42,-0.52,0.94,-35.36,-12.97,56.04,-1.00
13938.00,-8.46,0.18,5.56,-0.45,-0.50,0.96,-35.36,-12.97,56.04,-1.00
13950.00,-8.46,0.18,5.56,-0.45,-0.50,0.96,-35.36,-12.97,56.04,-1.00
13964.00,-8.53,0.46,5.75,-0.37,-0.60,0.92,-35.36,-12.97,56.04,-1.00
13976.00,-8.75,0.90,5.39,-0.24,-0.59,0.67,-35.16,-12.21,56.22,-1.00
13988.00,-8.75,0.90,5.39,-0.24,-0.59,0.67,-35.16,-12.21,56.22,-1.00
14000.00,-8.23,1.61,5.31,-0.06,-0.54,0.60,-35.16,-12.21,56.22,-1.00
14014.00,-7.69,0.49,5.82,-0.23,-0.53,0.75,-35.16,-12.21,56.22,-1.00
14026.00,-7.69,0.49,5.82,-0.23,-0.53,0.75,-35.16,-12.21,56.22,-1.00
14038.00,-7.81,0.00,5.93,-0.56,-0.56,1.05,-35.16,-12.21,56.22,-1.00
14050.00,-7.81,0.00,5.93,-0.56,-0.56,1.05,-35.16,-12.21,56.22,-1.00
14064.00,-8.36,0.13,5.59,-0.67,-0.61,1.20,-35.16,-12.21,56.22,-1.00
14076.00,-8.52,-0.91,4.93,-0.45,-0.63,1.03,-35.16,-12.21,56.22,-1.00
14088.00,-8.52,-0.91,4.93,-0.45,-0.63,1.03,-35.16,-12.21,56.22,-1.00
14100.00,-9.18,1.80,6.04,-0.34,-0.62,0.87,-35.94,-11.30,55.86,-1.00
14114.00,-8.26,1.50,5.56,-0.35,-0.49,0.67,-35.94,-11.30,55.86,-1.00
14126.00,-8.26,1.50,5.56,-0.35,-0.49,0.67,-35.94,-11.30,55.86,-1.00
14138.00,-7.69,0.47,5.60,-0.51,-0.48,0.77,-35.94,-11.30,55.86,-1.00
14152.00,-7.69,0.47,5.60,-0.51,-0.48,0.77,-35.94,-11.30,55.86,-1.00
14164.00,-8.08,-0.12,5.42,-0.62,-0.54,1.11,-35.94,-11.30,55.86,-1.00
14176.00,-9.84,0.46,4.48,-0.63,-0.57,1.43,-35.94,-11.30,55.86,-1.00
14188.00,-9.84,0.46,4.48,-0.63,-0.57,1.43,-35.94,-11.30,55.86,-1.00
14202.00,-8.95,1.25,5.60,-0.85,-0.77,1.22,-35.94,-11.30,55.86,-1.00
14214.00,-7.30,0.60,6.12,-1.00,-0.82,0.88,-35.36,-10.84,54.97,-1.00
14226.00,-7.30,0.60,6.12,-1.00,-0.82,0.88,-35.36,-10.84,54.97,-1.00
14238.00,-7.17,0.76,6.16,-0.79,-0.72,0.79,-35.36,-10.84,54.97,-1.00
14252.00,-7.17,0.76,6.16,-0.79,-0.72,0.79,-35.36,-10.84,54.97,-1.00
14264.00,-8.35,0.75,5.21,-0.55,-0.63,0.78,-35.36,-10.84,54.97,-1.00
14276.00,-8.55,0.81,5.28,-0.47,-0.66,0.82,-35.36,-10.84,54.97,-1.00
14290.00,-8.55,0.81,5.28,-0.47,-0.66,0.82,-35.36,-10.84,54.97,-1.00
14302.00,-7.95,0.59,5.99,-0.49,-0.67,0.84,-35.36,-10.84,54.97,-1.00
14314.00,-8.72,0.11,5.39,-0.48,-0.58,0.87,-35.36,-10.84,54.97,-1.00
14326.00,-8.72,0.11,5.39,-0.48,-0.58,0.87,-35.36,-10.84,54.97,-1.00
14340.00,-8.34,0.51,5.28,-0.53,-0.58,0.96,-36.92,-12.06,55.33,-1.00
14352.00,-8.47,0.51,5.49,-0.46,-0.55,0.98,-36.92,-12.06,55.33,-1.00
14364.00,-8.47,0.51,5.49,-0.46,-0.55,0.98,-36.92,-12.06,55.33,-1.00
14376.00,-8.51,0.65,5.38,-0.47,-0.60,0.93,-36.92,-12.06,55.33,-1.00
14390.00,-8.51,0.65,5.38,-0.47,-0.60,0.93,-36.92,-12.06,55.33,-1.00
14402.00,-8.86,0.43,5.69,-0.42,-0.64,0.84,-36.92,-12.06,55.33,-1.00
14414.00,-8.73,1.64,5.57,-0.37,-0.60,0.60,-36.92,-12.06,55.33,-1.00
14426.00,-8.73,1.64,5.57,-0.37,-0.60,0.60,-36.92,-12.06,55.33,-1.00
14440.00,-7.94,0.20,4.93,-0.32,-0.54,0.48,-36.92,-12.06,55.33,-1.00
14452.00,-8.09,1.07,5.63,-0.46,-0.60,0.71,-36.92,-12.06,55.33,-1.00
14464.00,-8.09,1.07,5.63,-0.46,-0.60,0.71,-36.92,-12.06,55.33,-1.00
14479.00,-8.21,0.04,5.41,-0.62,-0.63,0.79,-37.50,-11.30,54.43,-1.00
14490.00,-8.21,0.04,5.41,-0.62,-0.63,0.79,-37.50,-11.30,54.43,-1.00
14503.00,-8.52,-0.28,4.75,-0.62,-0.60,1.08,-37.50,-11.30,54.43,-1.00
14515.00,-8.63,0.99,5.72,-0.56,-0.57,1.29,-37.50,-11.30,54.43,-1.00
14529.00,-8.63,0.99,5.72,-0.56,-0.57,1.29,-37.50,-11.30,54.43,-1.00
14541.00,-8.23,0.44,5.75,-0.52,-0.53,1.11,-37.50,-11.30,54.43,-1.00
14553.00,-8.75,1.10,5.63,-0.45,-0.54,0.93,-37.50,-11.30,54.43,-1.00
14565.00,-8.75,1.10,5.63,-0.45,-0.54,0.93,-37.50,-11.30,54.43,-1.00
14579.00,-8.49,0.70,5.32,-0.36,-0.51,0.76,-37.50,-11.30,54.43,-1.00
14591.00,-8.49,0.70,5.32,-0.36,-0.51,0.76,-37.50,-11.30,54.43,-1.00
14603.00,-8.11,0.84,4.55,-0.32,-0.54,0.71,-37.70,-10.54,53.53,-1.00
14617.00,-9.68,1.71,4.32,-0.43,-0.68,0.75,-37.70,-10.54,53.53,-1.00
14629.00,-9.68,1.71,4.32,-0.43,-0.68,0.75,-37.70,-10.54,53.53,-1.00
14641.00,-9.61,-0.36,3.74,-0.80,-1.06,0.74,-37.70,-10.54,53.53,-1.00
14653.00,-9.69,0.81,4.78,-1.26,-1.64,0.99,-37.70,-10.54,53.53,-1.00
14668.00,-9.69,0.81,4.78,-1.26,-1.64,0.99,-37.70,-10.54,53.53,-1.00
14679.00,-9.83,-0.30,6.08,-1.77,-1.89,1.26,-37.70,-10.54,53.53,-1.00
14691.00,-9.83,-0.30,6.08,-1.77,-1.89,1.26,-37.70,-10.54,53.53,-1.00
14703.00,-8.45,0.88,5.54,-1.92,-1.95,1.49,-37.70,-10.54,53.53,-1.00
14717.00,-5.97,0.54,7.24,-1.27,-1.76,1.18,-33.80,-12.97,57.48,-1.00
14729.00,-5.97,0.54,7.24,-1.27,-1.76,1.18,-33.80,-12.97,57.48,-1.00
14741.00,-6.33,0.69,6.76,-0.84,-0.92,0.98,-33.80,-12.97,57.48,-1.00
14755.00,-6.13,0.40,5.84,-0.79,-0.37,0.87,-33.80,-12.97,57.48,-1.00
14767.00,-6.13,0.40,5.84,-0.79,-0.37,0.87,-33.80,-12.97,57.48,-1.00
14779.00,-5.72,0.50,5.58,-0.95,-0.16,0.75,-33.80,-12.97,57.48,-1.00
14791.00,-5.72,0.50,5.58,-0.95,-0.16,0.75,-33.80,-12.97,57.48,-1.00
14805.00,-6.61,-0.77,6.48,-1.01,-0.07,0.57,-33.80,-12.97,57.48,-1.00
14817.00,-7.82,-0.81,6.04,-1.01,-0.11,0.61,-33.80,-12.97,57.48,-1.00
14829.00,-7.82,-0.81,6.04,-1.01,-0.11,0.61,-33.80,-12.97,57.48,-1.00
14841.00,-9.19,-0.69,7.80,-0.91,-0.57,0.79,-35.55,-14.94,57.30,-1.00
14855.00,-6.61,0.35,7.14,-0.63,-0.82,0.91,-35.55,-14.94,57.30,-1.00
14867.00,-6.61,0.35,7.14,-0.63,-0.82,0.91,-35.55,-14.94,57.30,-1.00
14879.00,-6.82,0.21,5.79,-0.17,-0.65,0.94,-35.55,-14.94,57.30,-1.00
14893.00,-8.70,0.31,5.76,-0.09,-0.62,1.03,-35.55,-14.94,57.30,-1.00
14905.00,-8.70,0.31,5.76,-0.09,-0.62,1.03,-35.55,-14.94,57.30,-1.00
14917.00,-10.20,1.08,4.99,-0.34,-0.68,1.10,-35.55,-14.94,57.30,-1.00
14929.00,-10.20,1.08,4.99,-0.34,-0.68,1.10,-35.55,-14.94,57.30,-1.00
14944.00,-8.36,0.92,5.67,-0.74,-0.96,0.96,-35.55,-14.94,57.30,-1.00
14955.00,-7.33,-0.31,6.27,-0.67,-0.85,0.75,-34.97,-13.88,56.76,-1.00
14967.00,-7.33,-0.31,6.27,-0.67,-0.85,0.75,-34.97,-13.88,56.76,-1.00
14979.00,-8.07,-0.33,6.23,-0.52,-0.56,0.78,-34.97,-13.88,56.76,-1.00
14993.00,-8.78,0.27,5.50,-0.55,-0.45,0.91,-34.97,-13.88,56.76,-1.00
15005.00,-8.78,0.27,5.50,-0.55,-0.45,0.91,-34.97,-13.88,56.76,-1.00
15017.00,-8.63,0.31,6.00,-0.53,-0.44,0.92,-34.97,-13.88,56.76,-1.00
15029.00,-8.63,0.31,6.00,-0.53,-0.44,0.92,-34.97,-13.88,56.76,-1.00
15043.00,-7.83,0.20,5.86,-0.49,-0.38,0.94,-34.97,-13.88,56.76,-1.00
15133.00,-8.78,0.59,4.48,-0.34,-0.44,1.09,-35.75,-13.88,56.40,-1.00
15219.00,-8.50,0.04,5.68,-0.31,-0.83,0.93,-36.72,-11.91,56.94,-1.00
15233.00,-8.82,0.52,5.00,-0.33,-0.75,0.90,-36.72,-11.91,56.94,-1.00
15245.00,-8.82,0.52,5.00,-0.33,-0.75,0.90,-36.72,-11.91,56.94,-1.00
15257.00,-9.44,1.12,5.99,-0.20,-0.69,0.69,-36.72,-11.91,56.94,-1.00
15271.00,-9.44,1.12,5.99,-0.20,-0.69,0.69,-36.72,-11.91,56.94,-1.00
15284.00,-8.27,1.11,5.53,-0.15,-0.50,0.35,-36.72,-11.91,56.94,-1.00
15296.00,-7.28,1.02,5.43,-0.09,-0.44,0.33,-36.72,-11.91,56.94,-1.00
15308.00,-7.28,1.02,5.43,-0.09,-0.44,0.33,-36.72,-11.91,56.94,-1.00
15320.00,-7.51,0.79,5.71,-0.17,-0.58,0.47,-36.72,-11.91,56.94,-1.00
15334.00,-7.72,1.82,6.23,-0.40,-0.73,0.56,-37.50,-11.60,56.22,-1.00
15346.00,-7.72,1.82,6.23,-0.40,-0.73,0.56,-37.50,-11.60,56.22,-1.00
15358.00,-7.34,0.46,5.70,-0.60,-0.83,0.49,-37.50,-11.60,56.22,-1.00
15372.00,-8.01,0.18,5.68,-0.85,-0.93,0.61,-37.50,-11.60,56.22,-1.00
15384.00,-8.01,0.18,5.68,-0.85,-0.93,0.61,-37.50,-11.60,56.22,-1.00
15396.00,-9.16,-0.20,5.57,-0.99,-0.93,0.76,-37.50,-11.60,56.22,-1.00
15408.00,-9.16,-0.20,5.57,-0.99,-0.93,0.76,-37.50,-11.60,56.22,-1.00
15423.00,-8.67,0.31,5.63,-0.87,-0.76,0.91,-37.50,-11.60,56.22,-1.00
15435.00,-8.72,0.30,5.49,-0.94,-0.63,1.00,-37.50,-11.60,56.22,-1.00
15447.00,-8.72,0.30,5.49,-0.94,-0.63,1.00,-37.50,-11.60,56.22,-1.00
15459.00,-8.79,-0.35,5.68,-0.88,-0.51,1.16,-36.72,-12.51,55.86,-1.00
15473.00,-8.70,0.91,5.71,-0.67,-0.35,1.19,-36.72,-12.51,55.86,-1.00
15485.00,-8.70,0.91,5.71,-0.67,-0.35,1.19,-36.72,-12.51,55.86,-1.00
15497.00,-7.53,0.35,5.68,-0.44,-0.31,1.02,-36.72,-12.51,55.86,-1.00
15511.00,-7.34,0.10,6.15,-0.43,-0.47,0.93,-36.72,-12.51,55.86,-1.00
15523.00,-7.34,0.10,6.15,-0.43,-0.47,0.93,-36.72,-12.51,55.86,-1.00
15535.00,-8.06,0.06,5.75,-0.49,-0.60,0.91,-36.72,-12.51,55.86,-1.00
15547.00,-8.06,0.06,5.75,-0.49,-0.60,0.91,-36.72,-12.51,55.86,-1.00
15561.00,-8.28,0.52,5.40,-0.52,-0.63,0.94,-36.72,-12.51,55.86,-1.00
15573.00,-8.51,0.84,5.48,-0.52,-0.68,0.78,-36.92,-12.66,55.69,-1.00
15585.00,-8.51,0.84,5.48,-0.52,-0.68,0.78,-36.92,-12.66,55.69,-1.00
15597.00,-8.67,0.65,5.42,-0.49,-0.65,0.69,-36.92,-12.66,55.69,-1.00
15611.00,-8.71,0.74,5.44,-0.48,-0.56,0.77,-36.92,-12.66,55.69,-1.00
15623.00,-8.71,0.74,5.44,-0.48,-0.56,0.77,-36.92,-12.66,55.69,-1.00
15635.00,-7.79,0.00,5.28,-0.49,-0.53,0.93,-36.92,-12.66,55.69,-1.00
15647.00,-7.79,0.00,5.28,-0.49,-0.53,0.93,-36.92,-12.66,55.69,-1.00
15661.00,-7.71,0.32,6.12,-0.56,-0.62,1.05,-36.92,-12.66,55.69,-1.00
15673.00,-7.48,-0.07,5.43,-0.58,-0.70,1.00,-36.92,-12.66,55.69,-1.00
15685.00,-7.48,-0.07,5.43,-0.58,-0.70,1.00,-36.92,-12.66,55.69,-1.00
15700.00,-8.70,1.09,5.76,-0.63,-0.83,1.04,-37.50,-13.12,55.86,-1.00
15711.00,-8.86,0.38,5.30,-0.61,-0.81,0.93,-37.50,-13.12,55.86,-1.00
15723.00,-8.86,0.38,5.30,-0.61,-0.81,0.93,-37.50,-13.12,55.86,-1.00
15735.00,-8.79,1.30,5.52,-0.67,-0.76,0.82,-37.50,-13.12,55.86,-1.00
15749.00,-8.79,1.30,5.52,-0.67,-0.76,0.82,-37.50,-13.12,55.86,-1.00
15761.00,-9.33,0.43,4.98,-0.88,-0.81,0.60,-37.50,-13.12,55.86,-1.00
15773.00,-9.40,-0.45,4.05,-0.97,-0.90,0.72,-37.50,-13.12,55.86,-1.00
15785.00,-9.40,-0.45,4.05,-0.97,-0.90,0.72,-37.50,-13.12,55.86,-1.00
15799.00,-8.55,-0.23,6.25,-1.07,-1.17,0.95,-37.50,-13.12,55.86,-1.00
15811.00,-7.49,-0.44,6.32,-0.96,-0.93,1.20,-37.50,-13.12,55.86,-1.00
15823.00,-7.49,-0.44,6.32,-0.96,-0.93,1.20,-37.50,-13.12,55.86,-1.00
15837.00,-6.00,0.84,6.85,-0.75,-0.71,1.23,-34.19,-13.88,56.76,-1.00
15849.00,-6.00,0.84,6.85,-0.75,-0.71,1.23,-34.19,-13.88,56.76,-1.00
15861.00,-5.94,0.60,6.57,-0.64,-0.45,0.86,-34.19,-13.88,56.76,-1.00
15873.00,-9.55,0.07,5.61,-0.47,-0.29,0.72,-34.19,-13.88,56.76,-1.00
15888.00,-9.55,0.07,5.61,-0.47,-0.29,0.72,-34.19,-13.88,56.76,-1.00
15899.00,-8.60,0.63,4.74,-0.48,-0.52,0.77,-34.19,-13.88,56.76,-1.00
15911.00,-8.46,-0.14,5.91,-0.53,-0.67,0.73,-34.19,-13.88,56.76,-1.00
15923.00,-8.46,-0.14,5.91,-0.53,-0.67,0.73,-34.19,-13.88,56.76,-1.00
15937.00,-7.83,-0.04,5.90,-0.53,-0.67,0.76,-34.19,-13.88,56.76,-1.00
15949.00,-7.83,-0.04,5.90,-0.53,-0.67,0.76,-34.19,-13.88,56.76,-1.00
15961.00,-8.50,0.26,5.62,-0.46,-0.62,0.79,-36.14,-15.39,56.40,-1.00
15975.00,-8.41,0.21,5.38,-0.49,-0.62,0.82,-36.14,-15.39,56.40,-1.00
15987.00,-8.41,0.21,5.38,-0.49,-0.62,0.82,-36.14,-15.39,56.40,-1.00
15999.00,-7.96,0.15,5.87,-0.55,-0.64,0.90,-36.14,-15.39,56.40,-1.00
16011.00,-8.15,0.30,5.91,-0.49,-0.64,0.90,-36.14,-15.39,56.40,-1.00
16025.00,-8.15,0.30,5.91,-0.49,-0.64,0.90,-36.14,-15.39,56.40,-1.00
16037.00,-8.42,0.22,5.52,-0.48,-0.65,0.83,-36.14,-15.39,56.40,-1.00
16049.00,-8.42,0.22,5.52,-0.48,-0.65,0.83,-36.14,-15.39,56.40,-1.00
16061.00,-8.40,0.26,5.54,-0.54,-0.65,0.83,-36.14,-15.39,56.40,-1.00
16075.00,-8.06,0.08,5.61,-0.62,-0.64,0.89,-36.53,-14.18,55.33,-1.00
16087.00,-8.06,0.08,5.61,-0.62,-0.64,0.89,-36.53,-14.18,55.33,-1.00
16099.00,-8.07,0.29,5.86,-0.57,-0.63,0.94,-36.53,-14.18,55.33,-1.00
16113.00,-8.33,0.26,5.55,-0.50,-0.63,0.90,-36.53,-14.18,55.33,-1.00
16125.00,-8.33,0.26,5.55,-0.50,-0.63,0.90,-36.53,-14.18,55.33,-1.00
16137.00,-8.16,0.24,5.63,-0.50,-0.68,0.87,-36.53,-14.18,55.33,-1.00
16149.00,-8.16,0.24,5.63,-0.50,-0.68,0.87,-36.53,-14.18,55.33,-1.00
16164.00,-7.91,0.17,5.92,-0.53,-0.66,0.89,-36.53,-14.18,55.33,-1.00
16175.00,-7.70,0.00,6.21,-0.52,-0.55,0.97,-36.53,-14.18,55.33,-1.00
16187.00,-7.70,0.00,6.21,-0.52,-0.55,0.97,-36.53,-14.18,55.33,-1.00
16199.00,-8.14,0.28,5.96,-0.48,-0.45,1.05,-37.11,-13.42,56.58,-1.00
16213.00,-8.76,-0.08,5.25,-0.40,-0.40,1.09,-37.11,-13.42,56.58,-1.00
16225.00,-8.76,-0.08,5.25,-0.40,-0.40,1.09,-37.11,-13.42,56.58,-1.00
16237.00,-8.38,-0.70,4.46,-0.43,-0.52,1.07,-37.11,-13.42,56.58,-1.00
16249.00,-8.38,-0.70,4.46,-0.43,-0.52,1.07,-37.11,-13.42,56.58,-1.00
16263.00,-9.64,1.14,5.33,-0.17,-0.54,1.11,-37.11,-13.42,56.58,-1.00
16275.00,-8.75,1.47,5.60,0.07,-0.39,0.76,-37.11,-13.42,56.58,-1.00
16287.00,-8.75,1.47,5.60,0.07,-0.39,0.76,-37.11,-13.42,56.58,-1.00
16301.00,-7.56,0.94,4.55,0.06,-0.35,0.54,-37.11,-13.42,56.58,-1.00
16313.00,-7.85,1.30,5.71,-0.28,-0.60,0.62,-36.92,-11.15,55.33,-1.00
16325.00,-7.85,1.30,5.71,-0.28,-0.60,0.62,-36.92,-11.15,55.33,-1.00
16337.00,-7.22,-0.50,5.47,-0.77,-0.90,0.68,-36.92,-11.15,55.33,-1.00
16351.00,-8.17,0.08,5.97,-1.01,-0.97,1.10,-36.92,-11.15,55.33,-1.00
16363.00,-8.17,0.08,5.97,-1.01,-0.97,1.10,-36.92,-11.15,55.33,-1.00
16375.00,-7.67,-0.30,6.53,-0.99,-0.77,1.27,-36.92,-11.15,55.33,-1.00
16387.00,-7.67,-0.30,6.53,-0.99,-0.77,1.27,-36.92,-11.15,55.33,-1.00
16401.00,-8.41,0.56,5.96,-0.54,-0.39,1.19,-36.92,-11.15,55.33,-1.00
16413.00,-8.44,-0.67,4.56,-0.47,-0.36,1.08,-36.92,-11.15,55.33,-1.00
16425.00,-8.44,-0.67,4.56,-0.47,-0.36,1.08,-36.92,-11.15,55.33,-1.00
16440.00,-8.64,2.12,5.59,-0.44,-0.61,0.95,-35.75,-11.75,55.33,-1.00
16451.00,-8.40,1.83,5.38,-0.48,-0.80,0.30,-35.75,-11.75,55.33,-1.00
16463.00,-8.40,1.83,5.38,-0.48,-0.80,0.30,-35.75,-11.75,55.33,-1.00
16475.00,-8.63,1.01,4.76,-0.47,-0.85,0.14,-35.75,-11.75,55.33,-1.00
16489.00,-8.63,1.01,4.76,-0.47,-0.85,0.14,-35.75,-11.75,55.33,-1.00
16501.00,-8.74,0.64,5.38,-0.60,-0.79,0.43,-35.75,-11.75,55.33,-1.00
16513.00,-9.33,-0.75,4.36,-0.80,-0.93,0.69,-35.75,-11.75,55.33,-1.00
16525.00,-9.33,-0.75,4.36,-0.80,-0.93,0.69,-35.75,-11.75,55.33,-1.00
16539.00,-9.22,-0.28,5.95,-0.94,-1.24,1.07,-35.75,-11.75,55.33,-1.00
16551.00,-7.68,-0.77,6.13,-0.92,-1.06,1.46,-35.75,-11.75,55.33,-1.00
16563.00,-7.68,-0.77,6.13,-0.92,-1.06,1.46,-35.75,-11.75,55.33,-1.00
16577.00,-8.56,0.94,5.69,-0.83,-0.79,1.65,-35.75,-12.06,57.48,-1.00
16589.00,-8.52,0.62,5.55,-0.96,-0.93,1.33,-35.75,-12.06,57.48,-1.00
16601.00,-8.52,0.62,5.55,-0.96,-0.93,1.33,-35.75,-12.06,57.48,-1.00
16613.00,-7.71,1.02,5.80,-1.02,-1.19,1.04,-35.75,-12.06,57.48,-1.00
16627.00,-7.71,1.02,5.80,-1.02,-1.19,1.04,-35.75,-12.06,57.48,-1.00
16716.00,-7.86,0.31,5.38,-0.51,-0.26,0.91,-33.60,-14.03,57.30,-1.00
16804.00,-6.50,0.38,7.25,-0.63,-1.07,1.10,-33.60,-14.03,57.30,-1.00
16891.00,-8.15,-0.40,6.24,-0.61,-0.58,0.94,-36.92,-14.18,60.35,-1.00
16905.00,-8.15,-0.40,6.24,-0.61,-0.58,0.94,-36.92,-14.18,60.35,-1.00
16917.00,-8.03,0.06,6.05,-0.53,-0.58,0.88,-36.92,-14.18,60.35,-1.00
16929.00,-7.58,-0.00,6.13,-0.53,-0.61,0.77,-35.55,-15.85,58.02,-1.00
16943.00,-7.58,-0.00,6.13,-0.53,-0.61,0.77,-35.55,-15.85,58.02,-1.00
16955.00,-7.35,0.25,6.25,-0.42,-0.50,0.80,-35.55,-15.85,58.02,-1.00
16967.00,-7.35,0.25,6.25,-0.42,-0.50,0.80,-35.55,-15.85,58.02,-1.00
16979.00,-8.25,0.73,6.02,-0.38,-0.44,0.77,-35.55,-15.85,58.02,-1.00
16993.00,-8.89,0.36,5.26,-0.47,-0.48,0.79,-35.55,-15.85,58.02,-1.00
17005.00,-8.89,0.36,5.26,-0.47,-0.48,0.79,-35.55,-15.85,58.02,-1.00
17017.00,-8.13,0.07,5.78,-0.55,-0.65,0.82,-35.55,-15.85,58.02,-1.00
17029.00,-7.32,-0.32,6.59,-0.51,-0.69,0.80,-35.55,-15.85,58.02,-1.00
17043.00,-7.32,-0.32,6.59,-0.51,-0.69,0.80,-35.55,-15.85,58.02,-1.00
17055.00,-7.62,-0.14,6.46,-0.47,-0.57,0.82,-34.58,-14.79,57.12,-1.00
17067.00,-7.62,-0.14,6.46,-0.47,-0.57,0.82,-34.58,-14.79,57.12,-1.00
17081.00,-7.90,0.23,6.03,-0.38,-0.47,0.82,-34.58,-14.79,57.12,-1.00
17093.00,-7.72,0.43,6.00,-0.37,-0.38,0.85,-34.58,-14.79,57.12,-1.00
17105.00,-7.72,0.43,6.00,-0.37,-0.38,0.85,-34.58,-14.79,57.12,-1.00
17117.00,-8.08,-0.06,6.30,-0.29,-0.17,0.91,-34.58,-14.79,57.12,-1.00
17131.00,-8.92,0.58,5.60,-0.37,-0.16,1.07,-34.58,-14.79,57.12,-1.00
17143.00,-8.92,0.58,5.60,-0.37,-0.16,1.07,-34.58,-14.79,57.12,-1.00
17155.00,-8.83,1.14,4.82,-0.53,-0.37,1.13,-34.58,-14.79,57.12,-1.00
17167.00,-8.83,1.14,4.82,-0.53,-0.37,1.13,-34.58,-14.79,57.12,-1.00
17182.00,-8.25,0.62,5.36,-0.49,-0.49,1.06,-34.58,-14.79,57.12,-1.00
17193.00,-7.79,0.49,5.80,-0.49,-0.57,0.99,-36.14,-13.27,55.69,-1.00
17205.00,-7.79,0.49,5.80,-0.49,-0.57,0.99,-36.14,-13.27,55.69,-1.00
17217.00,-7.84,0.22,6.24,-0.49,-0.77,0.83,-36.14,-13.27,55.69,-1.00
17231.00,-8.07,0.07,5.50,-0.40,-0.77,0.68,-36.14,-13.27,55.69,-1.00
17243.00,-8.07,0.07,5.50,-0.40,-0.77,0.68,-36.14,-13.27,55.69,-1.00
17255.00,-8.49,0.42,5.10,-0.33,-0.71,0.73,-36.14,-13.27,55.69,-1.00
17269.00,-9.26,-0.57,5.05,-0.18,-0.53,0.73,-36.14,-13.27,55.69,-1.00
17281.00,-9.26,-0.57,5.05,-0.18,-0.53,0.73,-36.14,-13.27,55.69,-1.00
17293.00,-8.55,0.68,6.07,-0.14,-0.47,0.62,-36.14,-13.27,55.69,-1.00
17305.00,-8.55,0.68,6.07,-0.14,-0.47,0.62,-36.14,-13.27,55.69,-1.00
17319.00,-7.64,0.67,5.24,-0.07,-0.43,0.43,-37.31,-12.97,57.84,-1.00
17331.00,-7.67,1.26,5.57,-0.09,-0.61,0.39,-37.31,-12.97,57.84,-1.00
17343.00,-7.67,1.26,5.57,-0.09,-0.61,0.39,-37.31,-12.97,57.84,-1.00
17355.00,-7.42,1.12,5.35,-0.34,-0.75,0.43,-37.31,-12.97,57.84,-1.00
17370.00,-7.86,1.21,5.70,-0.69,-0.91,0.50,-37.31,-12.97,57.84,-1.00
17381.00,-7.86,1.21,5.70,-0.69,-0.91,0.50,-37.31,-12.97,57.84,-1.00
17393.00,-8.78,0.70,5.36,-1.03,-0.98,0.59,-37.31,-12.97,57.84,-1.00
17407.00,-8.78,0.70,5.36,-1.03,-0.98,0.59,-37.31,-12.97,57.84,-1.00
17419.00,-10.43,-1.22,4.33,-1.19,-1.04,0.68,-37.31,-12.97,57.84,-1.00
17431.00,-8.88,-0.24,5.61,-1.25,-1.11,0.90,-36.72,-14.64,56.58,-1.00
17443.00,-8.88,-0.24,5.61,-1.25,-1.11,0.90,-36.72,-14.64,56.58,-1.00
17457.00,-6.90,-1.04,6.40,-1.19,-0.96,1.08,-36.72,-14.64,56.58,-1.00
17469.00,-7.42,-0.00,6.36,-0.80,-0.64,1.31,-36.72,-14.64,56.58,-1.00
17481.00,-7.42,-0.00,6.36,-0.80,-0.64,1.31,-36.72,-14.64,56.58,-1.00
17493.00,-8.03,-0.05,5.69,-0.58,-0.49,1.35,-36.72,-14.64,56.58,-1.00
17507.00,-8.03,-0.05,5.69,-0.58,-0.49,1.35,-36.72,-14.64,56.58,-1.00
17519.00,-7.64,0.29,6.15,-0.45,-0.43,1.33,-36.72,-14.64,56.58,-1.00
17531.00,-7.33,-0.08,6.57,-0.39,-0.35,1.12,-36.72,-14.64,56.58,-1.00
17545.00,-7.33,-0.08,6.57,-0.39,-0.35,1.12,-36.72,-14.64,56.58,-1.00
17632.00,-7.86,0.45,5.90,-0.38,-0.49,0.82,-35.75,-13.57,54.61,-1.00
17721.00,-9.64,0.89,5.59,-0.69,-0.83,0.77,-37.31,-13.27,54.61,-1.00
17808.00,-8.44,0.44,5.31,-0.43,-0.59,0.84,-35.75,-14.79,57.12,-1.00
17822.00,-8.44,0.44,5.31,-0.43,-0.59,0.84,-35.75,-14.79,57.12,-1.00
17835.00,-8.31,-0.07,5.61,-0.47,-0.62,0.80,-35.75,-14.79,57.12,-1.00
17847.00,-8.31,-0.07,5.61,-0.47,-0.62,0.80,-35.75,-14.79,57.12,-1.00
17859.00,-7.69,-0.07,6.21,-0.54,-0.54,0.94,-35.75,-14.79,57.12,-1.00
17873.00,-9.18,-0.07,5.24,-0.45,-0.42,1.00,-35.75,-14.79,57.12,-1.00
17885.00,-9.18,-0.07,5.24,-0.45,-0.42,1.00,-35.75,-14.79,57.12,-1.00
17897.00,-8.37,-0.40,5.12,-0.48,-0.54,0.95,-35.75,-14.79,57.12,-1.00
17911.00,-8.72,0.05,5.91,-0.43,-0.55,0.82,-35.75,-14.79,57.12,-1.00
17923.00,-8.72,0.05,5.91,-0.43,-0.55,0.82,-35.75,-14.79,57.12,-1.00
17935.00,-8.57,0.52,5.28,-0.35,-0.56,0.52,-37.11,-13.42,55.86,-1.00
17947.00,-8.46,1.31,5.34,-0.27,-0.56,0.44,-37.11,-13.42,55.86,-1.00
17962.00,-8.46,1.31,5.34,-0.27,-0.56,0.44,-37.11,-13.42,55.86,-1.00
17973.00,-7.90,-0.09,5.88,-0.44,-0.58,0.59,-37.11,-13.42,55.86,-1.00
17985.00,-7.90,-0.09,5.88,-0.44,-0.58,0.59,-37.11,-13.42,55.86,-1.00
17997.00,-7.83,-0.80,5.27,-0.61,-0.60,0.88,-37.11,-13.42,55.86,-1.00
18011.00,-8.45,-0.06,5.26,-0.66,-0.64,1.22,-37.11,-13.42,55.86,-1.00
18023.00,-8.45,-0.06,5.26,-0.66,-0.64,1.22,-37.11,-13.42,55.86,-1.00
18035.00,-8.41,0.00,5.65,-0.54,-0.63,1.28,-37.11,-13.42,55.86,-1.00
18049.00,-8.70,-0.73,5.62,-0.46,-0.64,1.04,-36.33,-13.73,53.35,-1.00
18061.00,-8.70,-0.73,5.62,-0.46,-0.64,1.04,-36.33,-13.73,53.35,-1.00
18073.00,-8.65,1.14,5.55,-0.38,-0.55,0.80,-36.33,-13.73,53.35,-1.00
18085.00,-8.65,1.14,5.55,-0.38,-0.55,0.80,-36.33,-13.73,53.35,-1.00
18099.00,-8.14,0.40,4.63,-0.37,-0.51,0.55,-36.33,-13.73,53.35,-1.00
18111.00,-8.28,0.68,5.79,-0.50,-0.59,0.69,-36.33,-13.73,53.35,-1.00
18123.00,-8.28,0.68,5.79,-0.50,-0.59,0.69,-36.33,-13.73,53.35,-1.00
18135.00,-7.91,-1.44,4.90,-0.61,-0.57,0.98,-36.33,-13.73,53.35,-1.00
18150.00,-8.37,-0.02,5.61,-0.45,-0.52,1.43,-36.33,-13.73,53.35,-1.00
18161.00,-8.37,-0.02,5.61,-0.45,-0.52,1.43,-36.33,-13.73,53.35,-1.00
18173.00,-8.69,0.34,5.53,-0.30,-0.50,1.28,-36.92,-12.97,54.97,-1.00
18185.00,-8.69,0.34,5.53,-0.30,-0.50,1.28,-36.92,-12.97,54.97,-1.00
18199.00,-8.81,1.47,5.52,-0.32,-0.50,0.99,-36.92,-12.97,54.97,-1.00
18211.00,-8.36,0.52,5.04,-0.46,-0.46,0.77,-36.92,-12.97,54.97,-1.00
18223.00,-8.36,0.52,5.04,-0.46,-0.46,0.77,-36.92,-12.97,54.97,-1.00
18237.00,-8.10,-0.02,4.82,-0.67,-0.63,0.93,-36.92,-12.97,54.97,-1.00
18249.00,-9.01,0.85,4.15,-0.80,-0.82,1.19,-36.92,-12.97,54.97,-1.00
18261.00,-9.01,0.85,4.15,-0.80,-0.82,1.19,-36.92,-12.97,54.97,-1.00
18273.00,-7.62,0.90,6.31,-0.83,-1.04,1.06,-36.92,-12.97,54.97,-1.00
18287.00,-6.78,0.56,6.68,-0.74,-0.86,0.81,-36.92,-12.66,55.33,-1.00
18299.00,-6.78,0.56,6.68,-0.74,-0.86,0.81,-36.92,-12.66,55.33,-1.00
18311.00,-8.17,0.22,5.75,-0.58,-0.66,0.72,-36.92,-12.66,55.33,-1.00
18323.00,-8.17,0.22,5.75,-0.58,-0.66,0.72,-36.92,-12.66,55.33,-1.00
18337.00,-8.95,0.03,4.89,-0.53,-0.62,0.79,-36.92,-12.66,55.33,-1.00
18349.00,-8.29,0.40,5.80,-0.51,-0.66,0.80,-36.92,-12.66,55.33,-1.00
18361.00,-8.29,0.40,5.80,-0.51,-0.66,0.80,-36.92,-12.66,55.33,-1.00
18375.00,-8.09,0.20,5.78,-0.48,-0.62,0.67,-36.92,-12.66,55.33,-1.00
18387.00,-8.64,0.40,5.14,-0.49,-0.56,0.75,-36.92,-12.66,55.33,-1.00
18399.00,-8.64,0.40,5.14,-0.49,-0.56,0.75,-36.92,-12.66,55.33,-1.00
18411.00,-8.27,0.40,5.44,-0.54,-0.56,0.93,-37.31,-13.27,53.89,-1.00
18426.00,-8.27,0.40,5.44,-0.54,-0.56,0.93,-37.31,-13.27,53.89,-1.00
18437.00,-8.22,0.25,5.51,-0.45,-0.53,0.96,-37.31,-13.27,53.89,-1.00
18449.00,-8.65,0.60,5.21,-0.45,-0.56,0.99,-37.31,-13.27,53.89,-1.00
18461.00,-8.65,0.60,5.21,-0.45,-0.56,0.99,-37.31,-13.27,53.89,-1.00
18475.00,-8.24,0.14,5.54,-0.55,-0.62,1.03,-37.31,-13.27,53.89,-1.00
18487.00,-8.13,0.39,5.62,-0.52,-0.53,1.09,-37.31,-13.27,53.89,-1.00
18499.00,-8.13,0.39,5.62,-0.52,-0.53,1.09,-37.31,-13.27,53.89,-1.00
18513.00,-8.80,0.26,5.00,-0.43,-0.53,0.99,-37.31,-13.27,53.89,-1.00
18525.00,-8.80,0.26,5.00,-0.43,-0.53,0.99,-37.31,-13.27,53.89,-1.00
18537.00,-9.18,0.61,5.41,-0.43,-0.63,0.81,-37.31,-13.27,53.89,-1.00
18549.00,-8.87,0.58,5.53,-0.38,-0.56,0.45,-38.09,-12.66,54.61,-1.00
18563.00,-8.87,0.58,5.53,-0.38,-0.56,0.45,-38.09,-12.66,54.61,-1.00
18575.00,-8.51,1.33,5.38,-0.39,-0.48,0.17,-38.09,-12.66,54.61,-1.00
18587.00,-7.98,0.45,5.09,-0.52,-0.51,0.15,-38.09,-12.66,54.61,-1.00
18599.00,-7.98,0.45,5.09,-0.52,-0.51,0.15,-38.09,-12.66,54.61,-1.00
18613.00,-7.98,0.02,5.68,-0.59,-0.59,0.55,-38.09,-12.66,54.61,-1.00
18625.00,-7.98,0.02,5.68,-0.59,-0.59,0.55,-38.09,-12.66,54.61,-1.00
18637.00,-7.80,-0.50,4.62,-0.68,-0.64,0.84,-38.09,-12.66,54.61,-1.00
18649.00,-8.36,0.48,4.99,-0.72,-0.79,1.23,-38.09,-12.66,54.61,-1.00
18663.00,-8.36,0.48,4.99,-0.72,-0.79,1.23,-38.09,-12.66,54.61,-1.00
18675.00,-8.34,0.08,5.38,-0.69,-0.89,1.39,-39.06,-13.73,53.35,-1.00
18687.00,-9.11,0.14,6.15,-0.45,-0.78,1.30,-39.06,-13.73,53.35,-1.00
18702.00,-9.11,0.14,6.15,-0.45,-0.78,1.30,-39.06,-13.73,53.35,-1.00
18713.00,-9.11,0.51,5.06,-0.56,-0.65,1.17,-39.06,-13.73,53.35,-1.00
18725.00,-9.11,0.51,5.06,-0.56,-0.65,1.17,-39.06,-13.73,53.35,-1.00
18737.00,-8.96,0.13,5.20,-0.66,-0.59,1.18,-39.06,-13.73,53.35,-1.00
18751.00,-8.43,0.30,5.66,-0.50,-0.48,1.30,-39.06,-13.73,53.35,-1.00
18763.00,-8.43,0.30,5.66,-0.50,-0.48,1.30,-39.06,-13.73,53.35,-1.00
18775.00,-8.48,0.88,5.59,-0.33,-0.42,1.17,-39.06,-13.73,53.35,-1.00
18787.00,-8.52,1.11,5.70,-0.41,-0.47,0.87,-38.48,-11.75,53.53,-1.00
18801.00,-8.52,1.11,5.70,-0.41,-0.47,0.87,-38.48,-11.75,53.53,-1.00
18813.00,-7.90,0.75,5.15,-0.45,-0.51,0.65,-38.48,-11.75,53.53,-1.00
18825.00,-7.90,0.75,5.15,-0.45,-0.51,0.65,-38.48,-11.75,53.53,-1.00
18839.00,-8.08,1.36,5.03,-0.53,-0.68,0.56,-38.48,-11.75,53.53,-1.00
18851.00,-8.15,0.68,4.76,-0.65,-0.90,0.51,-38.48,-11.75,53.53,-1.00
18863.00,-8.15,0.68,4.76,-0.65,-0.90,0.51,-38.48,-11.75,53.53,-1.00
18875.00,-9.08,0.75,5.23,-0.83,-0.98,0.63,-38.48,-11.75,53.53,-1.00
18889.00,-9.69,-0.05,4.27,-0.79,-0.93,0.73,-38.48,-11.75,53.53,-1.00
18901.00,-9.69,-0.05,4.27,-0.79,-0.93,0.73,-38.48,-11.75,53.53,-1.00
18913.00,-9.62,1.03,5.03,-0.80,-1.12,0.64,-37.70,-13.27,54.61,-1.00
18925.00,-9.62,1.03,5.03,-0.80,-1.12,0.64,-37.70,-13.27,54.61,-1.00
18939.00,-8.61,-0.11,5.28,-1.01,-1.38,0.46,-37.70,-13.27,54.61,-1.00
18951.00,-7.01,-0.93,6.92,-1.03,-1.33,0.62,-37.70,-13.27,54.61,-1.00
18963.00,-7.01,-0.93,6.92,-1.03,-1.33,0.62,-37.70,-13.27,54.61,-1.00
18978.00,-7.20,-0.82,7.03,-0.89,-0.95,0.86,-37.70,-13.27,54.61,-1.00
18989.00,-8.72,0.02,5.48,-0.93,-0.79,1.00,-37.70,-13.27,54.61,-1.00
19002.00,-8.72,0.02,5.48,-0.93,-0.79,1.00,-37.70,-13.27,54.61,-1.00
19014.00,-9.10,-0.28,4.65,-1.25,-0.97,1.12,-37.70,-13.27,54.61,-1.00
19028.00,-8.87,0.07,5.34,-1.04,-1.10,1.23,-35.36,-14.79,57.12,-1.00
19040.00,-8.87,0.07,5.34,-1.04,-1.10,1.23,-35.36,-14.79,57.12,-1.00
19052.00,-7.69,0.14,6.05,-0.82,-1.15,1.12,-35.36,-14.79,57.12,-1.00
19064.00,-7.69,0.14,6.05,-0.82,-1.15,1.12,-35.36,-14.79,57.12,-1.00
19078.00,-7.46,-0.12,7.14,-0.68,-1.07,1.02,-35.36,-14.79,57.12,-1.00
19090.00,-7.41,-0.17,6.52,-0.57,-0.67,1.06,-35.36,-14.79,57.12,-1.00
19102.00,-7.41,-0.17,6.52,-0.57,-0.67,1.06,-35.36,-14.79,57.12,-1.00
19116.00,-7.66,1.05,5.90,-0.68,-0.47,1.13,-35.36,-14.79,57.12,-1.00
19128.00,-8.21,0.49,4.67,-0.99,-0.50,1.01,-35.36,-14.79,57.12,-1.00
19140.00,-8.21,0.49,4.67,-0.99,-0.50,1.01,-35.36,-14.79,57.12,-1.00
19152.00,-8.68,-0.03,3.50,-0.98,-0.55,1.12,-34.58,-14.79,55.33,-1.00
19167.00,-8.11,-0.20,6.29,-0.78,-0.74,1.06,-34.58,-14.79,55.33,-1.00
19178.00,-8.11,-0.20,6.29,-0.78,-0.74,1.06,-34.58,-14.79,55.33,-1.00
19190.00,-7.91,-0.68,6.19,-0.54,-0.49,0.90,-34.58,-14.79,55.33,-1.00
19202.00,-7.91,-0.68,6.19,-0.54,-0.49,0.90,-34.58,-14.79,55.33,-1.00
19216.00,-8.51,-0.92,5.69,-0.42,-0.41,0.89,-34.58,-14.79,55.33,-1.00
19305.00,-7.59,-0.17,7.28,-0.69,-0.88,1.06,-35.36,-15.70,58.20,-1.00
19391.00,-7.77,-0.57,5.94,-0.46,-0.56,0.66,-35.36,-15.70,58.20,-1.00
19405.00,-8.13,-0.55,5.46,-0.39,-0.46,0.71,-34.58,-15.39,58.56,-1.00
19417.00,-8.13,-0.55,5.46,-0.39,-0.46,0.71,-34.58,-15.39,58.56,-1.00
19429.00,-8.30,0.06,6.15,-0.52,-0.55,0.76,-34.58,-15.39,58.56,-1.00
19441.00,-8.30,0.06,6.15,-0.52,-0.55,0.76,-34.58,-15.39,58.56,-1.00
19455.00,-7.86,-0.11,6.27,-0.64,-0.49,0.79,-34.58,-15.39,58.56,-1.00
19467.00,-7.76,0.08,6.03,-0.55,-0.37,0.94,-34.58,-15.39,58.56,-1.00
19479.00,-7.76,0.08,6.03,-0.55,-0.37,0.94,-34.58,-15.39,58.56,-1.00
19491.00,-7.53,-0.19,6.10,-0.42,-0.39,0.85,-34.58,-15.39,58.56,-1.00
19505.00,-7.88,0.20,5.55,-0.28,-0.43,0.74,-34.58,-15.39,58.56,-1.00
19517.00,-7.88,0.20,5.55,-0.28,-0.43,0.74,-34.58,-15.39,58.56,-1.00
19529.00,-8.52,0.06,5.56,-0.21,-0.52,0.70,-33.99,-14.33,56.22,-1.00
19541.00,-8.52,0.06,5.56,-0.21,-0.52,0.70,-33.99,-14.33,56.22,-1.00
19555.00,-8.56,0.06,5.51,-0.20,-0.53,0.80,-33.99,-14.33,56.22,-1.00
19567.00,-8.26,0.04,5.71,-0.39,-0.62,0.84,-33.99,-14.33,56.22,-1.00
19579.00,-8.26,0.04,5.71,-0.39,-0.62,0.84,-33.99,-14.33,56.22,-1.00
19594.00,-7.60,-0.07,6.02,-0.48,-0.70,0.84,-33.99,-14.33,56.22,-1.00
19605.00,-7.83,-0.06,6.02,-0.51,-0.69,0.90,-33.99,-14.33,56.22,-1.00
19617.00,-7.83,-0.06,6.02,-0.51,-0.69,0.90,-33.99,-14.33,56.22,-1.00
19629.00,-8.29,0.39,5.65,-0.49,-0.67,0.93,-33.99,-14.33,56.22,-1.00
19643.00,-8.29,0.39,5.65,-0.49,-0.67,0.93,-33.99,-14.33,56.22,-1.00
19655.00,-8.14,0.16,5.65,-0.52,-0.76,0.84,-36.53,-15.09,55.69,-1.00
19667.00,-7.83,-0.14,6.05,-0.56,-0.73,0.89,-36.53,-15.09,55.69,-1.00
19679.00,-7.83,-0.14,6.05,-0.56,-0.73,0.89,-36.53,-15.09,55.69,-1.00
19693.00,-8.10,-0.11,6.16,-0.52,-0.58,0.94,-36.53,-15.09,55.69,-1.00
19705.00,-8.90,-0.27,5.40,-0.54,-0.50,0.95,-36.53,-15.09,55.69,-1.00
19717.00,-8.90,-0.27,5.40,-0.54,-0.50,0.95,-36.53,-15.09,55.69,-1.00
19731.00,-7.30,-0.88,5.47,-0.58,-0.55,0.96,-36.53,-15.09,55.69,-1.00
19743.00,-7.30,-0.88,5.47,-0.58,-0.55,0.96,-36.53,-15.09,55.69,-1.00
19755.00,-8.34,-0.01,5.77,-0.40,-0.57,0.99,-36.53,-15.09,55.69,-1.00
19768.00,-9.06,0.76,5.10,-0.49,-0.70,0.82,-35.75,-14.48,57.12,-1.00
19782.00,-9.06,0.76,5.10,-0.49,-0.70,0.82,-35.75,-14.48,57.12,-1.00
19794.00,-9.99,1.80,6.12,-0.52,-0.65,0.60,-35.75,-14.48,57.12,-1.00
19806.00,-8.06,-0.06,5.09,-0.30,-0.42,0.39,-35.75,-14.48,57.12,-1.00
19818.00,-8.06,-0.06,5.09,-0.30,-0.42,0.39,-35.75,-14.48,57.12,-1.00
19833.00,-7.31,-0.01,5.70,-0.24,-0.42,0.68,-35.75,-14.48,57.12,-1.00
19845.00,-7.16,-0.52,6.13,-0.43,-0.55,1.09,-35.75,-14.48,57.12,-1.00
19857.00,-7.16,-0.52,6.13,-0.43,-0.55,1.09,-35.75,-14.48,57.12,-1.00
19871.00,-7.31,-0.83,5.44,-0.52,-0.69,1.23,-35.75,-14.48,57.12,-1.00
19883.00,-7.31,-0.83,5.44,-0.52,-0.69,1.23,-35.75,-14.48,57.12,-1.00
19895.00,-8.74,0.81,5.82,-0.45,-0.83,1.22,-35.75,-14.48,57.12,-1.00
19907.00,-8.96,0.33,5.39,-0.65,-0.85,0.95,-35.94,-13.73,55.86,-1.00
19922.00,-8.96,0.33,5.39,-0.65,-0.85,0.95,-35.94,-13.73,55.86,-1.00
19933.00,-9.49,0.61,5.57,-0.73,-0.81,0.75,-35.94,-13.73,55.86,-1.00
19945.00,-9.08,-0.85,5.46,-1.07,-0.88,0.62,-35.94,-13.73,55.86,-1.00
19957.00,-9.08,-0.85,5.46,-1.07,-0.88,0.62,-35.94,-13.73,55.86,-1.00
19971.00,-7.55,-0.16,6.03,-1.03,-0.78,0.87,-35.94,-13.73,55.86,-1.00
19983.00,-7.55,-0.16,6.03,-1.03,-0.78,0.87,-35.94,-13.73,55.86,-1.00
19995.00,-6.55,-0.05,6.39,-0.67,-0.59,1.01,-35.94,-13.73,55.86,-1.00
20009.00,-7.17,0.15,6.40,-0.40,-0.46,1.02,-35.94,-13.73,55.86,-1.00
20099.00,-9.05,0.76,5.75,-0.14,-0.44,0.69,-35.94,-14.33,55.15,-1.00
20185.00,-9.13,0.68,5.41,-0.76,-0.73,1.45,-36.72,-13.73,54.79,-1.00
20274.00,-7.18,0.37,6.28,-0.51,-0.51,0.67,-37.50,-13.73,54.79,-1.00
20287.00,-9.42,-0.54,4.84,-0.28,-0.37,0.73,-37.50,-13.73,54.79,-1.00
20299.00,-9.42,-0.54,4.84,-0.28,-0.37,0.73,-37.50,-13.73,54.79,-1.00
20311.00,-9.67,0.38,4.30,-0.25,-0.36,0.95,-37.50,-13.73,54.79,-1.00
20323.00,-9.67,0.38,4.30,-0.25,-0.36,0.95,-37.50,-13.73,54.79,-1.00
20337.00,-8.50,0.20,5.32,-0.36,-0.42,1.03,-37.50,-13.73,54.79,-1.00
20350.00,-8.22,0.90,5.23,-0.35,-0.43,1.18,-37.50,-13.73,54.79,-1.00
20362.00,-8.22,0.90,5.23,-0.35,-0.43,1.18,-37.50,-13.73,54.79,-1.00
20376.00,-8.01,0.71,5.69,-0.53,-0.57,1.13,-37.50,-13.73,54.79,-1.00
20388.00,-8.04,0.12,5.66,-0.67,-0.67,1.05,-37.70,-13.57,54.25,-1.00
20400.00,-8.04,0.12,5.66,-0.67,-0.67,1.05,-37.70,-13.57,54.25,-1.00
20412.00,-8.45,-0.30,5.59,-0.62,-0.71,1.02,-37.70,-13.57,54.25,-1.00
20426.00,-8.66,0.92,5.61,-0.50,-0.69,0.97,-37.70,-13.57,54.25,-1.00
20438.00,-8.66,0.92,5.61,-0.50,-0.69,0.97,-37.70,-13.57,54.25,-1.00
20450.00,-8.67,0.70,5.51,-0.48,-0.67,0.74,-37.70,-13.57,54.25,-1.00
20462.00,-8.67,0.70,5.51,-0.48,-0.67,0.74,-37.70,-13.57,54.25,-1.00
20476.00,-8.78,0.41,5.06,-0.42,-0.60,0.58,-37.70,-13.57,54.25,-1.00
20488.00,-8.85,0.79,5.37,-0.35,-0.48,0.62,-37.70,-13.57,54.25,-1.00
20500.00,-8.85,0.79,5.37,-0.35,-0.48,0.62,-37.70,-13.57,54.25,-1.00
20515.00,-8.10,-0.15,4.92,-0.19,-0.35,0.77,-38.48,-12.06,54.97,-1.00
20526.00,-8.14,0.90,5.02,-0.01,-0.35,1.05,-38.48,-12.06,54.97,-1.00
20538.00,-8.14,0.90,5.02,-0.01,-0.35,1.05,-38.48,-12.06,54.97,-1.00
20550.00,-8.04,1.49,5.24,-0.15,-0.45,1.13,-38.48,-12.06,54.97,-1.00
20564.00,-7.73,0.34,5.27,-0.51,-0.62,1.15,-38.48,-12.06,54.97,-1.00
20576.00,-7.73,0.34,5.27,-0.51,-0.62,1.15,-38.48,-12.06,54.97,-1.00
20588.00,-8.46,-0.15,5.84,-0.69,-0.71,1.26,-38.48,-12.06,54.97,-1.00
20600.00,-8.46,-0.15,5.84,-0.69,-0.71,1.26,-38.48,-12.06,54.97,-1.00
20614.00,-9.07,0.72,5.61,-0.66,-0.63,1.25,-38.48,-12.06,54.97,-1.00
20626.00,-8.65,0.53,4.70,-0.68,-0.57,1.07,-38.48,-12.06,54.97,-1.00
20638.00,-8.65,0.53,4.70,-0.68,-0.57,1.07,-38.48,-12.06,54.97,-1.00
20650.00,-9.42,1.43,5.01,-0.70,-0.57,1.02,-39.26,-11.15,53.17,-1.00
20665.00,-8.88,1.04,4.57,-0.63,-0.42,0.99,-39.26,-11.15,53.17,-1.00
20676.00,-8.88,1.04,4.57,-0.63,-0.42,0.99,-39.26,-11.15,53.17,-1.00
20688.00,-7.80,0.74,5.88,-0.50,-0.42,0.91,-39.26,-11.15,53.17,-1.00
20702.00,-7.80,0.74,5.88,-0.50,-0.42,0.91,-39.26,-11.15,53.17,-1.00
20714.00,-7.90,0.46,5.91,-0.43,-0.52,0.81,-39.26,-11.15,53.17,-1.00
20726.00,-8.82,0.54,4.90,-0.37,-0.59,0.72,-39.26,-11.15,53.17,-1.00
20738.00,-8.82,0.54,4.90,-0.37,-0.59,0.72,-39.26,-11.15,53.17,-1.00
20752.00,-8.91,0.78,4.52,-0.33,-0.58,0.61,-39.26,-11.15,53.17,-1.00
20764.00,-8.80,1.66,4.64,-0.47,-0.50,0.68,-38.09,-12.06,52.81,-1.00
20776.00,-8.80,1.66,4.64,-0.47,-0.50,0.68,-38.09,-12.06,52.81,-1.00
20788.00,-8.28,-0.11,5.23,-0.67,-0.45,0.89,-38.09,-12.06,52.81,-1.00
20802.00,-8.28,-0.11,5.23,-0.67,-0.45,0.89,-38.09,-12.06,52.81,-1.00
20814.00,-8.05,0.85,4.73,-0.64,-0.42,1.20,-38.09,-12.06,52.81,-1.00
20826.00,-8.60,1.28,5.27,-0.49,-0.56,1.04,-38.09,-12.06,52.81,-1.00
20840.00,-8.60,1.28,5.27,-0.49,-0.56,1.04,-38.09,-12.06,52.81,-1.00
20852.00,-8.62,0.87,4.53,-0.52,-0.64,0.85,-38.09,-12.06,52.81,-1.00
20864.00,-8.74,0.58,4.72,-0.58,-0.72,0.80,-38.09,-12.06,52.81,-1.00
20876.00,-8.74,0.58,4.72,-0.58,-0.72,0.80,-38.09,-12.06,52.81,-1.00
20890.00,-10.70,1.09,4.69,-0.65,-0.94,0.73,-41.01,-11.00,51.92,-1.00
20902.00,-10.70,1.09,4.69,-0.65,-0.94,0.73,-41.01,-11.00,51.92,-1.00
20914.00,-10.62,0.44,2.04,-1.30,-1.52,0.59,-41.01,-11.00,51.92,-1.00
20926.00,-7.52,-0.28,5.78,-1.10,-1.88,0.82,-41.01,-11.00,51.92,-1.00
20940.00,-7.52,-0.28,5.78,-1.10,-1.88,0.82,-41.01,-11.00,51.92,-1.00
20952.00,-7.53,0.26,6.84,-0.95,-1.47,1.13,-41.01,-11.00,51.92,-1.00
20964.00,-7.01,0.57,7.30,-1.12,-1.30,1.16,-41.01,-11.00,51.92,-1.00
20978.00,-7.01,0.57,7.30,-1.12,-1.30,1.16,-41.01,-11.00,51.92,-1.00
20990.00,-7.36,0.63,6.41,-1.34,-1.07,1.02,-41.01,-11.00,51.92,-1.00
21002.00,-7.36,0.63,6.41,-1.34,-1.07,1.02,-41.01,-11.00,51.92,-1.00
21014.00,-7.23,0.17,6.31,-1.24,-0.95,0.67,-36.53,-14.18,56.40,-1.00
21028.00,-7.38,-0.46,6.18,-0.70,-0.70,0.46,-36.53,-14.18,56.40,-1.00
21040.00,-7.38,-0.46,6.18,-0.70,-0.70,0.46,-36.53,-14.18,56.40,-1.00
21052.00,-8.61,0.06,5.88,-0.37,-0.54,0.54,-36.53,-14.18,56.40,-1.00
21064.00,-9.28,0.90,5.14,-0.35,-0.53,0.81,-36.53,-14.18,56.40,-1.00
21078.00,-9.28,0.90,5.14,-0.35,-0.53,0.81,-36.53,-14.18,56.40,-1.00
21091.00,-9.07,1.33,5.49,-0.68,-0.79,1.05,-36.53,-14.18,56.40,-1.00
21102.00,-9.07,1.33,5.49,-0.68,-0.79,1.05,-36.53,-14.18,56.40,-1.00
21116.00,-8.68,0.21,4.47,-0.96,-0.90,1.25,-36.53,-14.18,56.40,-1.00
21128.00,-8.40,-0.20,4.36,-0.85,-0.76,1.43,-35.55,-14.03,56.22,-1.00
21140.00,-8.40,-0.20,4.36,-0.85,-0.76,1.43,-35.55,-14.03,56.22,-1.00
21152.00,-7.91,0.62,4.98,-0.92,-0.70,1.33,-35.55,-14.03,56.22,-1.00
21166.00,-7.84,-0.04,5.01,-0.91,-0.53,1.04,-35.55,-14.03,56.22,-1.00
21178.00,-7.84,-0.04,5.01,-0.91,-0.53,1.04,-35.55,-14.03,56.22,-1.00
21190.00,-7.55,-0.28,4.43,-0.82,-0.48,0.96,-35.55,-14.03,56.22,-1.00
21202.00,-7.55,-0.28,4.43,-0.82,-0.48,0.96,-35.55,-14.03,56.22,-1.00
21217.00,-7.46,0.66,5.53,-0.86,-0.61,1.04,-35.55,-14.03,56.22,-1.00
21228.00,-7.72,0.54,5.79,-0.93,-0.65,1.03,-35.55,-14.03,56.22,-1.00
21240.00,-7.72,0.54,5.79,-0.93,-0.65,1.03,-35.55,-14.03,56.22,-1.00
21252.00,-8.11,0.01,6.49,-0.89,-0.77,1.02,-35.55,-14.03,56.22,-1.00
21266.00,-8.53,0.35,7.48,-0.93,-0.90,1.18,-36.33,-12.51,54.43,-1.00
21278.00,-8.53,0.35,7.48,-0.93,-0.90,1.18,-36.33,-12.51,54.43,-1.00
21290.00,-7.55,1.21,8.17,-1.00,-1.04,1.24,-36.33,-12.51,54.43,-1.00
21304.00,-6.99,0.31,7.03,-0.81,-0.86,0.99,-36.33,-12.51,54.43,-1.00
21316.00,-6.99,0.31,7.03,-0.81,-0.86,0.99,-36.33,-12.51,54.43,-1.00
21328.00,-7.43,-0.06,6.05,-0.74,-0.68,0.83,-36.33,-12.51,54.43,-1.00
21340.00,-7.43,-0.06,6.05,-0.74,-0.68,0.83,-36.33,-12.51,54.43,-1.00
21354.00,-8.55,-0.21,5.49,-0.63,-0.60,0.91,-36.33,-12.51,54.43,-1.00
21366.00,-9.24,0.75,5.68,-0.53,-0.73,0.97,-36.33,-12.51,54.43,-1.00
21378.00,-9.24,0.75,5.68,-0.53,-0.73,0.97,-36.33,-12.51,54.43,-1.00
21390.00,-8.10,0.51,5.43,-0.69,-0.90,0.80,-35.55,-14.33,56.94,-1.00
21405.00,-7.85,-0.50,5.58,-0.66,-0.86,0.75,-35.55,-14.33,56.94,-1.00
21416.00,-7.85,-0.50,5.58,-0.66,-0.86,0.75,-35.55,-14.33,56.94,-1.00
21428.00,-8.61,-0.25,6.10,-0.72,-0.75,0.87,-35.55,-14.33,56.94,-1.00
21442.00,-8.16,0.05,6.33,-0.90,-0.76,0.86,-35.55,-14.33,56.94,-1.00
21454.00,-8.16,0.05,6.33,-0.90,-0.76,0.86,-35.55,-14.33,56.94,-1.00
21466.00,-7.70,0.25,5.83,-0.89,-0.76,0.80,-35.55,-14.33,56.94,-1.00
21478.00,-7.70,0.25,5.83,-0.89,-0.76,0.80,-35.55,-14.33,56.94,-1.00
21492.00,-7.17,0.32,6.84,-0.71,-0.71,0.76,-35.55,-14.33,56.94,-1.00
21504.00,-7.07,-0.37,6.53,-0.64,-0.46,0.63,-35.55,-16.45,57.66,-1.00
21517.00,-7.07,-0.37,6.53,-0.64,-0.46,0.63,-35.55,-16.45,57.66,-1.00
21529.00,-8.46,-0.57,5.93,-0.59,-0.31,0.62,-35.55,-16.45,57.66,-1.00
21543.00,-8.44,0.32,4.93,-0.55,-0.43,0.72,-35.55,-16.45,57.66,-1.00
21555.00,-8.44,0.32,4.93,-0.55,-0.43,0.72,-35.55,-16.45,57.66,-1.00
21567.00,-8.27,0.05,5.66,-0.52,-0.60,0.67,-35.55,-16.45,57.66,-1.00
21581.00,-8.27,0.05,5.66,-0.52,-0.60,0.67,-35.55,-16.45,57.66,-1.00
21593.00,-7.59,-0.72,6.60,-0.37,-0.58,0.61,-35.55,-16.45,57.66,-1.00
21605.00,-7.48,-0.31,6.17,-0.35,-0.52,0.67,-35.55,-16.45,57.66,-1.00
21617.00,-7.48,-0.31,6.17,-0.35,-0.52,0.67,-35.55,-16.45,57.66,-1.00
21631.00,-8.55,0.06,5.43,-0.34,-0.47,0.77,-36.92,-16.00,55.69,-1.00
21643.00,-8.73,0.14,5.58,-0.45,-0.54,0.83,-36.92,-16.00,55.69,-1.00
21655.00,-8.73,0.14,5.58,-0.45,-0.54,0.83,-36.92,-16.00,55.69,-1.00
21667.00,-7.65,-0.45,6.03,-0.52,-0.68,0.73,-36.92,-16.00,55.69,-1.00
21682.00,-7.65,-0.45,6.03,-0.52,-0.68,0.73,-36.92,-16.00,55.69,-1.00
21770.00,-6.92,-0.67,6.73,-0.51,-0.61,0.85,-35.75,-16.00,57.48,-1.00
21857.00,-8.79,0.10,5.65,-0.50,-0.49,0.96,-35.75,-16.00,57.48,-1.00
21872.00,-8.03,-0.03,5.51,-0.53,-0.50,1.01,-37.89,-15.54,55.51,-1.00
21883.00,-8.05,0.31,5.67,-0.52,-0.55,1.03,-37.89,-15.54,55.51,-1.00
21895.00,-8.05,0.31,5.67,-0.52,-0.55,1.03,-37.89,-15.54,55.51,-1.00
21907.00,-8.24,-0.15,5.23,-0.61,-0.67,0.98,-37.89,-15.54,55.51,-1.00
21921.00,-8.24,-0.15,5.23,-0.61,-0.67,0.98,-37.89,-15.54,55.51,-1.00
21933.00,-7.96,0.10,5.77,-0.73,-0.84,0.92,-37.89,-15.54,55.51,-1.00
21945.00,-8.26,-0.89,5.23,-0.49,-0.68,0.84,-37.89,-15.54,55.51,-1.00
21957.00,-8.26,-0.89,5.23,-0.49,-0.68,0.84,-37.89,-15.54,55.51,-1.00
21971.00,-8.91,-0.02,5.56,-0.25,-0.60,0.78,-37.89,-15.54,55.51,-1.00
21983.00,-8.43,1.10,5.64,-0.27,-0.59,0.61,-37.89,-15.54,55.51,-1.00
21995.00,-8.43,1.10,5.64,-0.27,-0.59,0.61,-37.89,-15.54,55.51,-1.00
22009.00,-7.92,1.18,5.51,-0.32,-0.61,0.58,-37.70,-15.39,56.04,-1.00
22021.00,-7.92,1.18,5.51,-0.32,-0.61,0.58,-37.70,-15.39,56.04,-1.00
22033.00,-7.95,-0.28,5.65,-0.47,-0.68,0.66,-37.70,-15.39,56.04,-1.00
22045.00,-7.09,-0.50,5.97,-0.67,-0.86,1.06,-37.70,-15.39,56.04,-1.00
22059.00,-7.09,-0.50,5.97,-0.67,-0.86,1.06,-37.70,-15.39,56.04,-1.00
22071.00,-7.99,-0.17,5.82,-0.69,-0.81,1.50,-37.70,-15.39,56.04,-1.00
22083.00,-8.87,0.22,5.49,-0.38,-0.70,1.61,-37.70,-15.39,56.04,-1.00
22095.00,-8.87,0.22,5.49,-0.38,-0.70,1.61,-37.70,-15.39,56.04,-1.00
22109.00,-8.16,0.68,6.49,-0.17,-0.58,1.31,-37.70,-15.39,56.04,-1.00
22121.00,-8.16,0.68,6.49,-0.17,-0.58,1.31,-37.70,-15.39,56.04,-1.00
22133.00,-8.81,-0.57,5.26,-0.38,-0.52,0.97,-37.11,-14.33,56.58,-1.00
22148.00,-9.51,0.67,5.97,-0.45,-0.63,0.82,-37.11,-14.33,56.58,-1.00
22159.00,-9.51,0.67,5.97,-0.45,-0.63,0.82,-37.11,-14.33,56.58,-1.00
22171.00,-9.06,0.40,5.61,-0.49,-0.51,0.35,-37.11,-14.33,56.58,-1.00
22183.00,-7.95,0.19,5.04,-0.29,-0.40,0.19,-37.11,-14.33,56.58,-1.00
22197.00,-7.95,0.19,5.04,-0.29,-0.40,0.19,-37.11,-14.33,56.58,-1.00
22209.00,-7.34,0.54,5.62,-0.35,-0.47,0.53,-37.11,-14.33,56.58,-1.00
22221.00,-8.04,0.73,6.24,-0.54,-0.58,0.77,-37.11,-14.33,56.58,-1.00
22233.00,-8.04,0.73,6.24,-0.54,-0.58,0.77,-37.11,-14.33,56.58,-1.00
22247.00,-7.74,-1.03,5.10,-0.77,-0.61,1.05,-35.55,-14.33,54.79,-1.00
22259.00,-7.74,-1.03,5.10,-0.77,-0.61,1.05,-35.55,-14.33,54.79,-1.00
22271.00,-9.04,0.24,5.71,-0.75,-0.65,1.54,-35.55,-14.33,54.79,-1.00
22283.00,-8.41,-0.56,5.27,-0.57,-0.57,1.23,-35.55,-14.33,54.79,-1.00
22298.00,-8.41,-0.56,5.27,-0.57,-0.57,1.23,-35.55,-14.33,54.79,-1.00
22309.00,-8.78,0.45,5.97,-0.44,-0.55,0.97,-35.55,-14.33,54.79,-1.00
22321.00,-8.42,0.85,5.33,-0.40,-0.54,0.71,-35.55,-14.33,54.79,-1.00
22335.00,-8.42,0.85,5.33,-0.40,-0.54,0.71,-35.55,-14.33,54.79,-1.00
22347.00,-8.24,0.85,5.24,-0.42,-0.54,0.66,-35.55,-14.33,54.79,-1.00
22359.00,-8.24,0.85,5.24,-0.42,-0.54,0.66,-35.55,-14.33,54.79,-1.00
22371.00,-8.33,0.49,5.46,-0.56,-0.54,0.81,-39.06,-13.73,54.07,-1.00
22385.00,-8.53,-0.58,5.33,-0.51,-0.51,0.93,-39.06,-13.73,54.07,-1.00
22397.00,-8.53,-0.58,5.33,-0.51,-0.51,0.93,-39.06,-13.73,54.07,-1.00
22409.00,-8.75,0.88,5.14,-0.44,-0.42,1.13,-39.06,-13.73,54.07,-1.00
22421.00,-8.07,0.93,4.52,-0.51,-0.39,1.25,-39.06,-13.73,54.07,-1.00
22435.00,-8.07,0.93,4.52,-0.51,-0.39,1.25,-39.06,-13.73,54.07,-1.00
22447.00,-8.03,0.97,5.93,-0.50,-0.53,1.25,-39.06,-13.73,54.07,-1.00
22459.00,-8.03,0.97,5.93,-0.50,-0.53,1.25,-39.06,-13.73,54.07,-1.00
22474.00,-7.74,0.19,5.74,-0.48,-0.62,1.06,-39.06,-13.73,54.07,-1.00
22486.00,-8.52,0.24,5.19,-0.45,-0.70,1.01,-36.53,-12.97,52.81,-1.00
22498.00,-8.52,0.24,5.19,-0.45,-0.70,1.01,-36.53,-12.97,52.81,-1.00
22510.00,-8.76,0.12,5.55,-0.43,-0.75,0.92,-36.53,-12.97,52.81,-1.00
22524.00,-8.80,0.26,5.08,-0.48,-0.71,0.73,-36.53,-12.97,52.81,-1.00
22613.00,-8.48,1.55,4.81,-0.37,-0.54,0.82,-36.53,-12.97,52.81,-1.00
22701.00,-4.87,0.25,7.07,-1.47,-0.95,0.94,-37.50,-12.21,53.35,-1.00
22788.00,-13.80,-0.21,3.77,0.24,0.30,0.83,-34.58,-16.91,57.12,-1.00
22803.00,-12.76,3.67,0.55,-0.31,-0.06,1.10,-34.58,-16.91,57.12,-1.00
22814.00,-12.76,3.67,0.55,-0.31,-0.06,1.10,-34.58,-16.91,57.12,-1.00
22826.00,-9.96,-1.25,5.45,-1.10,-0.72,0.75,-34.58,-16.91,57.12,-1.00
22840.00,-6.84,-1.72,7.49,-1.17,-0.65,1.06,-34.58,-16.91,57.12,-1.00
22852.00,-6.84,-1.72,7.49,-1.17,-0.65,1.06,-34.58,-16.91,57.12,-1.00
22864.00,-5.71,-0.18,6.12,-0.66,-0.22,1.58,-37.70,-16.00,54.61,-1.00
22876.00,-5.71,-0.18,6.12,-0.66,-0.22,1.58,-37.70,-16.00,54.61,-1.00
22890.00,-7.59,1.59,6.17,-0.37,-0.28,1.66,-37.70,-16.00,54.61,-1.00
22902.00,-7.65,1.64,4.47,-0.41,-0.55,1.31,-37.70,-16.00,54.61,-1.00
22914.00,-7.65,1.64,4.47,-0.41,-0.55,1.31,-37.70,-16.00,54.61,-1.00
22926.00,-7.45,0.69,5.47,-0.50,-0.72,0.84,-37.70,-16.00,54.61,-1.00
22940.00,-10.72,-0.62,4.95,-0.52,-0.62,0.59,-37.70,-16.00,54.61,-1.00
22952.00,-10.72,-0.62,4.95,-0.52,-0.62,0.59,-37.70,-16.00,54.61,-1.00
22964.00,-8.93,-0.32,4.56,-0.73,-0.80,0.75,-37.70,-16.00,54.61,-1.00
22978.00,-8.93,-0.32,4.56,-0.73,-0.80,0.75,-37.70,-16.00,54.61,-1.00
22990.00,-7.87,-0.37,6.25,-0.71,-0.81,0.84,-37.89,-14.33,55.15,-1.00
23002.00,-7.09,-0.23,6.09,-0.48,-0.66,0.81,-37.89,-14.33,55.15,-1.00
23014.00,-7.09,-0.23,6.09,-0.48,-0.66,0.81,-37.89,-14.33,55.15,-1.00
23028.00,-8.44,0.27,5.71,-0.28,-0.50,0.86,-37.89,-14.33,55.15,-1.00
23040.00,-10.15,0.26,4.73,-0.23,-0.43,0.94,-37.89,-14.33,55.15,-1.00
23052.00,-10.15,0.26,4.73,-0.23,-0.43,0.94,-37.89,-14.33,55.15,-1.00
23064.00,-8.37,0.34,6.00,-0.44,-0.56,0.98,-37.89,-14.33,55.15,-1.00
23079.00,-8.37,0.34,6.00,-0.44,-0.56,0.98,-37.89,-14.33,55.15,-1.00
23090.00,-8.77,-1.15,4.70,-0.46,-0.44,1.03,-37.89,-14.33,55.15,-1.00
23102.00,-8.74,-1.13,4.43,-0.30,-0.55,1.13,-38.87,-14.79,53.17,-1.00
23116.00,-8.74,-1.13,4.43,-0.30,-0.55,1.13,-38.87,-14.79,53.17,-1.00
23128.00,-9.67,2.53,5.84,-0.26,-0.58,0.99,-38.87,-14.79,53.17,-1.00
23140.00,-8.49,0.98,5.07,-0.26,-0.43,0.37,-38.87,-14.79,53.17,-1.00
23152.00,-8.49,0.98,5.07,-0.26,-0.43,0.37,-38.87,-14.79,53.17,-1.00
23166.00,-7.85,1.63,4.46,-0.21,-0.41,0.16,-38.87,-14.79,53.17,-1.00
23178.00,-7.85,1.63,4.46,-0.21,-0.41,0.16,-38.87,-14.79,53.17,-1.00
23190.00,-8.08,0.50,5.02,-0.31,-0.55,0.15,-38.87,-14.79,53.17,-1.00
23202.00,-8.44,-0.50,5.48,-0.52,-0.59,0.45,-38.87,-14.79,53.17,-1.00
23216.00,-8.44,-0.50,5.48,-0.52,-0.59,0.45,-38.87,-14.79,53.17,-1.00
23228.00,-8.65,-0.99,4.69,-0.76,-0.74,0.94,-38.48,-15.09,53.53,-1.00
23240.00,-8.52,0.33,6.08,-0.84,-0.76,1.21,-38.48,-15.09,53.53,-1.00
23252.00,-8.52,0.33,6.08,-0.84,-0.76,1.21,-38.48,-15.09,53.53,-1.00
23266.00,-7.18,-0.09,5.88,-0.63,-0.52,1.06,-38.48,-15.09,53.53,-1.00
23278.00,-7.18,-0.09,5.88,-0.63,-0.52,1.06,-38.48,-15.09,53.53,-1.00
23290.00,-7.93,0.19,5.55,-0.36,-0.35,0.99,-38.48,-15.09,53.53,-1.00
23304.00,-8.58,0.22,4.61,-0.37,-0.38,1.00,-38.48,-15.09,53.53,-1.00
23316.00,-8.58,0.22,4.61,-0.37,-0.38,1.00,-38.48,-15.09,53.53,-1.00
23328.00,-8.52,0.04,4.14,-0.43,-0.49,1.05,-38.48,-15.09,53.53,-1.00
23340.00,-8.51,0.16,5.08,-0.53,-0.68,1.03,-38.48,-15.09,53.53,-1.00
23355.00,-8.51,0.16,5.08,-0.53,-0.68,1.03,-38.48,-15.09,53.53,-1.00
23366.00,-8.74,-0.09,4.98,-0.64,-0.76,1.02,-40.04,-14.18,53.17,-1.00
23378.00,-8.74,-0.09,4.98,-0.64,-0.76,1.02,-40.04,-14.18,53.17,-1.00
23390.00,-8.79,0.19,5.40,-0.55,-0.73,0.98,-40.04,-14.18,53.17,-1.00
23404.00,-9.02,0.38,4.86,-0.53,-0.69,0.82,-40.04,-14.18,53.17,-1.00
23416.00,-9.02,0.38,4.86,-0.53,-0.69,0.82,-40.04,-14.18,53.17,-1.00
23428.00,-9.22,0.73,5.16,-0.47,-0.64,0.62,-40.04,-14.18,53.17,-1.00
23442.00,-8.57,0.65,5.06,-0.44,-0.52,0.56,-40.04,-14.18,53.17,-1.00
23454.00,-8.57,0.65,5.06,-0.44,-0.52,0.56,-40.04,-14.18,53.17,-1.00
23466.00,-8.12,0.08,5.11,-0.46,-0.50,0.69,-40.04,-14.18,53.17,-1.00
23478.00,-8.12,0.08,5.11,-0.46,-0.50,0.69,-40.04,-14.18,53.17,-1.00
23492.00,-8.43,-0.17,4.61,-0.55,-0.56,0.91,-38.28,-14.33,52.28,-1.00
23504.00,-8.73,0.00,4.59,-0.62,-0.62,1.23,-38.28,-14.33,52.28,-1.00
23516.00,-8.73,0.00,4.59,-0.62,-0.62,1.23,-38.28,-14.33,52.28,-1.00
23528.00,-8.65,0.20,5.68,-0.63,-0.63,1.29,-38.28,-14.33,52.28,-1.00
23542.00,-8.90,-0.64,4.84,-0.47,-0.60,1.02,-38.28,-14.33,52.28,-1.00
23554.00,-8.90,-0.64,4.84,-0.47,-0.60,1.02,-38.28,-14.33,52.28,-1.00
23566.00,-9.56,2.27,5.54,-0.52,-0.58,0.79,-38.28,-14.33,52.28,-1.00
23580.00,-8.50,0.70,4.31,-0.57,-0.50,0.47,-38.28,-14.33,52.28,-1.00
23592.00,-8.50,0.70,4.31,-0.57,-0.50,0.47,-38.28,-14.33,52.28,-1.00
23604.00,-9.11,-0.12,4.49,-0.62,-0.60,0.60,-40.23,-14.33,51.56,-1.00
23616.00,-9.11,-0.12,4.49,-0.62,-0.60,0.60,-40.23,-14.33,51.56,-1.00
23631.00,-8.34,-0.57,5.27,-0.80,-0.84,0.94,-40.23,-14.33,51.56,-1.00
23642.00,-7.75,-0.05,5.84,-0.83,-0.84,1.23,-40.23,-14.33,51.56,-1.00
23654.00,-7.75,-0.05,5.84,-0.83,-0.84,1.23,-40.23,-14.33,51.56,-1.00
23666.00,-7.47,0.29,5.88,-0.55,-0.64,1.18,-40.23,-14.33,51.56,-1.00
23680.00,-9.24,0.20,4.76,-0.35,-0.45,1.06,-40.23,-14.33,51.56,-1.00
23692.00,-9.24,0.20,4.76,-0.35,-0.45,1.06,-40.23,-14.33,51.56,-1.00
23704.00,-9.39,0.62,3.34,-0.40,-0.44,1.12,-40.23,-14.33,51.56,-1.00
23718.00,-9.39,0.62,3.34,-0.40,-0.44,1.12,-40.23,-14.33,51.56,-1.00
23730.00,-8.95,0.55,4.92,-0.54,-0.55,1.10,-40.04,-13.57,51.38,-1.00
23742.00,-8.80,0.73,4.83,-0.50,-0.51,1.08,-40.04,-13.57,51.38,-1.00
23754.00,-8.80,0.73,4.83,-0.50,-0.51,1.08,-40.04,-13.57,51.38,-1.00
23768.00,-8.53,0.74,5.08,-0.46,-0.50,1.00,-40.04,-13.57,51.38,-1.00
23780.00,-8.52,-0.10,5.02,-0.57,-0.55,0.90,-40.04,-13.57,51.38,-1.00
23792.00,-8.52,-0.10,5.02,-0.57,-0.55,0.90,-40.04,-13.57,51.38,-1.00
23804.00,-8.50,0.05,4.72,-0.52,-0.59,0.92,-40.04,-13.57,51.38,-1.00
23819.00,-8.50,0.05,4.72,-0.52,-0.59,0.92,-40.04,-13.57,51.38,-1.00
23830.00,-8.92,1.25,5.56,-0.43,-0.68,0.72,-40.04,-13.57,51.38,-1.00
23842.00,-8.61,0.20,4.57,-0.55,-0.69,0.50,-40.04,-13.27,51.02,-1.00
23854.00,-8.61,0.20,4.57,-0.55,-0.69,0.50,-40.04,-13.27,51.02,-1.00
23868.00,-8.84,0.35,4.77,-0.65,-0.65,0.73,-40.04,-13.27,51.02,-1.00
23880.00,-9.16,0.29,4.64,-0.68,-0.54,0.92,-40.04,-13.27,51.02,-1.00
23892.00,-9.16,0.29,4.64,-0.68,-0.54,0.92,-40.04,-13.27,51.02,-1.00
23906.00,-8.94,1.39,3.16,-1.08,-0.42,0.98,-40.04,-13.27,51.02,-1.00
23918.00,-8.94,1.39,3.16,-1.08,-0.42,0.98,-40.04,-13.27,51.02,-1.00
23931.00,-8.35,0.68,4.30,-1.34,-0.47,0.97,-40.04,-13.27,51.02,-1.00
23942.00,-9.31,-0.31,4.13,-0.77,-0.64,1.03,-40.04,-13.27,51.02,-1.00
23956.00,-9.31,-0.31,4.13,-0.77,-0.64,1.03,-40.04,-13.27,51.02,-1.00
23968.00,-8.28,0.50,5.11,-0.79,-0.86,1.15,-40.04,-13.27,51.02,-1.00
23980.00,-7.49,0.34,5.70,-0.73,-0.85,1.00,-40.62,-13.12,50.84,-1.00
23992.00,-7.49,0.34,5.70,-0.73,-0.85,1.00,-40.62,-13.12,50.84,-1.00
24006.00,-8.83,0.06,4.98,-0.55,-0.65,0.86,-40.62,-13.12,50.84,-1.00
24018.00,-8.83,0.06,4.98,-0.55,-0.65,0.86,-40.62,-13.12,50.84,-1.00
24030.00,-9.34,0.50,4.72,-0.55,-0.65,0.88,-40.62,-13.12,50.84,-1.00
24044.00,-8.66,0.12,5.41,-0.60,-0.66,0.88,-40.62,-13.12,50.84,-1.00
24056.00,-8.66,0.12,5.41,-0.60,-0.66,0.88,-40.62,-13.12,50.84,-1.00
24068.00,-8.53,-0.10,5.35,-0.55,-0.58,0.90,-40.62,-13.12,50.84,-1.00
24080.00,-9.32,-0.06,4.31,-0.51,-0.50,0.97,-40.62,-13.12,50.84,-1.00
24095.00,-9.32,-0.06,4.31,-0.51,-0.50,0.97,-40.62,-13.12,50.84,-1.00
24106.00,-9.25,0.81,4.59,-0.53,-0.60,0.94,-41.40,-14.03,50.84,-1.00
24118.00,-9.25,0.81,4.59,-0.53,-0.60,0.94,-41.40,-14.03,50.84,-1.00
24130.00,-9.28,0.99,4.99,-0.59,-0.58,0.80,-41.40,-14.03,50.84,-1.00
24144.00,-8.50,0.16,4.57,-0.57,-0.48,0.80,-41.40,-14.03,50.84,-1.00
24156.00,-8.50,0.16,4.57,-0.57,-0.48,0.80,-41.40,-14.03,50.84,-1.00
24168.00,-8.47,0.26,4.75,-0.54,-0.49,0.99,-41.40,-14.03,50.84,-1.00
24182.00,-8.57,0.52,4.60,-0.51,-0.54,1.16,-41.40,-14.03,50.84,-1.00
24270.00,-9.11,1.11,4.77,-0.43,-0.67,0.92,-41.79,-12.51,50.48,-1.00
24357.00,-8.66,-1.71,7.19,-0.93,-0.33,0.16,-42.18,-14.64,49.04,-1.00
24447.00,-9.11,-0.29,4.35,-0.81,-0.81,0.84,-42.18,-14.64,49.04,-1.00
24460.00,-10.08,-0.83,3.68,-0.57,-0.80,0.83,-41.01,-17.06,49.76,-1.00
24472.00,-10.08,-0.83,3.68,-0.57,-0.80,0.83,-41.01,-17.06,49.76,-1.00
24484.00,-10.40,0.17,3.57,-0.62,-1.06,0.93,-41.01,-17.06,49.76,-1.00
24496.00,-10.40,0.17,3.57,-0.62,-1.06,0.93,-41.01,-17.06,49.76,-1.00
24510.00,-9.12,-1.23,4.89,-0.71,-1.28,0.99,-41.01,-17.06,49.76,-1.00
24522.00,-9.39,0.36,4.93,-0.60,-1.24,1.22,-41.01,-17.06,49.76,-1.00
24534.00,-9.39,0.36,4.93,-0.60,-1.24,1.22,-41.01,-17.06,49.76,-1.00
24548.00,-9.25,0.95,5.22,-0.74,-1.46,1.12,-41.01,-17.06,49.76,-1.00
24560.00,-8.16,0.04,6.38,-1.01,-1.69,1.03,-41.01,-17.06,49.76,-1.00
24572.00,-8.16,0.04,6.38,-1.01,-1.69,1.03,-41.01,-17.06,49.76,-1.00
24584.00,-9.19,1.76,3.09,-1.17,-1.20,1.15,-37.31,-17.82,52.45,-1.00
24598.00,-8.23,1.46,2.09,-1.19,-0.94,1.01,-37.31,-17.82,52.45,-1.00
24610.00,-8.23,1.46,2.09,-1.19,-0.94,1.01,-37.31,-17.82,52.45,-1.00
24622.00,-6.27,-1.73,5.33,-1.24,-1.11,0.71,-37.31,-17.82,52.45,-1.00
24634.00,-6.27,-1.73,5.33,-1.24,-1.11,0.71,-37.31,-17.82,52.45,-1.00
24648.00,-6.80,-2.48,4.50,-1.05,-0.70,1.05,-37.31,-17.82,52.45,-1.00
24660.00,-6.83,-0.69,5.69,-1.03,-0.85,1.43,-37.31,-17.82,52.45,-1.00
24672.00,-6.83,-0.69,5.69,-1.03,-0.85,1.43,-37.31,-17.82,52.45,-1.00
24686.00,-6.60,-0.93,8.17,-1.21,-1.18,1.18,-37.31,-17.82,52.45,-1.00
24698.00,-6.81,-1.70,9.19,-1.11,-1.04,0.84,-37.31,-17.82,52.45,-1.00
24710.00,-6.81,-1.70,9.19,-1.11,-1.04,0.84,-37.31,-17.82,52.45,-1.00
24722.00,-8.32,-1.00,8.04,-0.61,-0.76,0.74,-38.28,-18.88,54.79,-1.00
24737.00,-8.32,-1.00,8.04,-0.61,-0.76,0.74,-38.28,-18.88,54.79,-1.00
24749.00,-8.30,0.15,5.09,-0.39,-0.64,0.80,-38.28,-18.88,54.79,-1.00
24761.00,-8.74,-0.53,4.76,-0.50,-0.69,0.89,-38.28,-18.88,54.79,-1.00
24773.00,-8.74,-0.53,4.76,-0.50,-0.69,0.89,-38.28,-18.88,54.79,-1.00
24787.00,-9.56,-0.90,5.37,-0.48,-0.63,1.09,-38.28,-18.88,54.79,-1.00
24799.00,-8.12,-0.56,5.89,-0.54,-0.78,0.98,-38.28,-18.88,54.79,-1.00
24811.00,-8.12,-0.56,5.89,-0.54,-0.78,0.98,-38.28,-18.88,54.79,-1.00
24825.00,-7.03,-0.76,6.14,-0.38,-0.81,0.82,-38.28,-18.88,54.79,-1.00
24837.00,-7.03,-0.76,6.14,-0.38,-0.81,0.82,-38.28,-18.88,54.79,-1.00
24849.00,-8.18,-0.21,6.40,-0.23,-0.58,0.86,-37.50,-16.76,55.86,-1.00
24861.00,-8.85,-0.01,5.83,-0.31,-0.54,0.81,-37.50,-16.76,55.86,-1.00
24875.00,-8.85,-0.01,5.83,-0.31,-0.54,0.81,-37.50,-16.76,55.86,-1.00
24887.00,-8.16,-0.15,5.53,-0.63,-0.76,0.71,-37.50,-16.76,55.86,-1.00
24899.00,-8.60,-0.31,4.98,-0.69,-0.70,0.82,-37.50,-16.76,55.86,-1.00
24911.00,-8.60,-0.31,4.98,-0.69,-0.70,0.82,-37.50,-16.76,55.86,-1.00
24925.00,-8.83,0.08,5.33,-0.58,-0.69,0.91,-37.50,-16.76,55.86,-1.00
24937.00,-8.83,0.08,5.33,-0.58,-0.69,0.91,-37.50,-16.76,55.86,-1.00
24949.00,-7.63,-0.82,6.21,-0.53,-0.69,0.85,-37.50,-16.76,55.86,-1.00
24963.00,-7.35,-1.22,6.39,-0.44,-0.52,0.91,-35.94,-16.76,54.43,-1.00
24975.00,-7.35,-1.22,6.39,-0.44,-0.52,0.91,-35.94,-16.76,54.43,-1.00
24987.00,-7.82,-0.39,5.70,-0.28,-0.37,1.00,-35.94,-16.76,54.43,-1.00
24999.00,-8.39,-0.22,5.64,-0.23,-0.32,1.04,-35.94,-16.76,54.43,-1.00
25014.00,-8.39,-0.22,5.64,-0.23,-0.32,1.04,-35.94,-16.76,54.43,-1.00
25025.00,-9.80,-0.74,4.40,-0.23,-0.27,1.01,-35.94,-16.76,54.43,-1.00
25037.00,-9.26,0.30,5.66,-0.33,-0.49,0.84,-35.94,-16.76,54.43,-1.00
25049.00,-9.26,0.30,5.66,-0.33,-0.49,0.84,-35.94,-16.76,54.43,-1.00
25063.00,-9.54,-0.04,5.78,-0.26,-0.32,0.32,-35.94,-16.76,54.43,-1.00
25075.00,-9.54,-0.04,5.78,-0.26,-0.32,0.32,-35.94,-16.76,54.43,-1.00
25087.00,-7.57,0.00,5.21,-0.17,-0.25,0.14,-37.70,-17.21,54.25,-1.00
25101.00,-7.40,-0.08,5.35,-0.20,-0.40,0.36,-37.70,-17.21,54.25,-1.00
25113.00,-7.40,-0.08,5.35,-0.20,-0.40,0.36,-37.70,-17.21,54.25,-1.00
25125.00,-8.16,0.58,6.17,-0.41,-0.60,0.68,-37.70,-17.21,54.25,-1.00
25137.00,-7.52,-0.64,5.38,-0.70,-0.63,0.78,-37.70,-17.21,54.25,-1.00
25151.00,-7.52,-0.64,5.38,-0.70,-0.63,0.78,-37.70,-17.21,54.25,-1.00
25164.00,-7.77,-1.03,5.34,-0.87,-0.77,1.08,-37.70,-17.21,54.25,-1.00
25176.00,-7.77,-1.03,5.34,-0.87,-0.77,1.08,-37.70,-17.21,54.25,-1.00
25188.00,-9.06,-0.51,5.38,-0.92,-0.87,1.16,-37.70,-17.21,54.25,-1.00
25203.00,-8.57,-1.23,4.88,-0.67,-0.76,0.94,-38.09,-16.91,54.25,-1.00
25214.00,-8.57,-1.23,4.88,-0.67,-0.76,0.94,-38.09,-16.91,54.25,-1.00
25226.00,-8.90,-0.06,5.49,-0.58,-0.73,0.83,-38.09,-16.91,54.25,-1.00
25240.00,-9.27,-0.16,5.57,-0.53,-0.65,0.59,-38.09,-16.91,54.25,-1.00
25252.00,-9.27,-0.16,5.57,-0.53,-0.65,0.59,-38.09,-16.91,54.25,-1.00
25264.00,-8.53,-0.21,5.23,-0.45,-0.49,0.49,-38.09,-16.91,54.25,-1.00
25276.00,-8.53,-0.21,5.23,-0.45,-0.49,0.49,-38.09,-16.91,54.25,-1.00
25290.00,-8.20,0.00,5.82,-0.46,-0.46,0.58,-38.09,-16.91,54.25,-1.00
25302.00,-8.29,-0.99,4.35,-0.60,-0.47,0.81,-38.09,-16.91,54.25,-1.00
25314.00,-8.29,-0.99,4.35,-0.60,-0.47,0.81,-38.09,-16.91,54.25,-1.00
25326.00,-9.86,-0.54,3.80,-0.74,-0.66,1.23,-38.09,-16.91,54.25,-1.00
25340.00,-9.14,-0.33,4.54,-0.93,-0.90,1.39,-38.09,-16.91,54.25,-1.00
25352.00,-9.14,-0.33,4.54,-0.93,-0.90,1.39,-38.09,-16.91,54.25,-1.00
25364.00,-6.88,-0.66,6.71,-0.99,-0.99,1.14,-38.09,-16.91,54.25,-1.00
25378.00,-6.62,-0.93,6.80,-0.73,-0.73,0.98,-38.09,-16.91,54.25,-1.00
25390.00,-6.62,-0.93,6.80,-0.73,-0.73,0.98,-38.09,-16.91,54.25,-1.00
25402.00,-7.63,-0.84,6.01,-0.50,-0.53,0.92,-38.09,-16.91,54.25,-1.00
25414.00,-7.63,-0.84,6.01,-0.50,-0.53,0.92,-38.09,-16.91,54.25,-1.00
25428.00,-8.58,-0.54,5.32,-0.32,-0.41,0.92,-38.09,-16.91,54.25,-1.00
25440.00,-9.16,-0.30,4.83,-0.33,-0.46,0.92,-38.09,-16.91,54.25,-1.00
25453.00,-9.16,-0.30,4.83,-0.33,-0.46,0.92,-38.09,-16.91,54.25,-1.00
25464.00,-8.22,-1.51,4.98,-0.49,-0.55,0.89,-39.06,-17.36,52.63,-1.00
25478.00,-8.74,-0.74,5.08,-0.48,-0.52,0.92,-39.06,-17.36,52.63,-1.00
25490.00,-8.74,-0.74,5.08,-0.48,-0.52,0.92,-39.06,-17.36,52.63,-1.00
25502.00,-9.14,-0.08,5.20,-0.48,-0.59,0.69,-39.06,-17.36,52.63,-1.00
25516.00,-9.14,-0.08,5.20,-0.48,-0.59,0.69,-39.06,-17.36,52.63,-1.00
25528.00,-8.93,0.47,5.39,-0.40,-0.50,0.53,-39.06,-17.36,52.63,-1.00
25540.00,-8.37,-0.05,5.36,-0.29,-0.41,0.61,-39.06,-17.36,52.63,-1.00
25552.00,-8.37,-0.05,5.36,-0.29,-0.41,0.61,-39.06,-17.36,52.63,-1.00
25566.00,-7.73,-1.10,5.00,-0.41,-0.43,0.87,-39.06,-17.36,52.63,-1.00
25578.00,-8.13,-0.16,5.03,-0.58,-0.59,1.16,-39.65,-17.52,52.81,-1.00
25590.00,-8.13,-0.16,5.03,-0.58,-0.59,1.16,-39.65,-17.52,52.81,-1.00
