time,ax,ay,az,gx,gy,gz,mx,my,mz
402,-0.44,6.34,-8.06,0.00,0.00,-0.00,-20.70,27.04,-26.62
412,-0.44,6.34,-8.06,0.00,0.00,-0.00,-20.70,27.04,-26.62
423,-0.42,6.34,-8.08,0.00,0.00,-0.00,-20.70,27.04,-26.62
434,-0.42,6.34,-8.08,0.00,0.00,-0.00,-20.70,27.04,-26.62
445,-0.42,6.31,-8.10,0.00,-0.00,-0.00,-20.70,27.04,-26.62
456,-0.42,6.31,-8.10,0.00,-0.00,-0.00,-20.70,27.04,-26.62
467,-0.42,6.31,-8.10,0.00,-0.00,-0.00,-21.46,26.69,-27.28
478,-0.42,6.31,-8.10,0.00,-0.00,-0.00,-21.46,26.69,-27.28
489,-0.44,6.34,-8.10,-0.00,-0.00,-0.00,-21.46,26.69,-27.28
500,-0.46,6.34,-8.09,-0.00,-0.00,-0.00,-21.46,26.69,-27.28
511,-0.46,6.34,-8.09,-0.00,-0.00,-0.00,-21.46,26.69,-27.28
522,-0.43,6.34,-8.10,0.00,-0.00,-0.00,-21.46,26.69,-27.28
533,-0.43,6.34,-8.10,0.00,-0.00,-0.00,-21.46,26.69,-27.28
544,-0.42,6.32,-8.09,0.00,-0.00,-0.00,-21.46,26.69,-27.28
555,-0.42,6.32,-8.09,0.00,-0.00,-0.00,-21.46,26.69,-27.28
566,-0.42,6.31,-8.10,0.00,-0.00,-0.00,-21.46,26.69,-27.28
577,-0.42,6.31,-8.10,0.00,-0.00,-0.00,-21.46,26.69,-27.28
588,-0.43,6.32,-8.10,0.00,-0.00,-0.00,-21.46,26.69,-27.28
599,-0.45,6.36,-8.09,0.00,-0.00,-0.00,-21.46,26.69,-27.28
614,-0.45,6.36,-8.09,0.00,-0.00,-0.00,-21.65,26.52,-28.10
621,-0.44,6.34,-8.08,0.00,-0.00,-0.00,-21.65,26.52,-28.10
632,-0.44,6.34,-8.08,0.00,-0.00,-0.00,-21.65,26.52,-28.10
643,-0.41,6.30,-8.11,0.00,-0.00,-0.00,-21.65,26.52,-28.10
654,-0.41,6.30,-8.11,0.00,-0.00,-0.00,-21.65,26.52,-28.10
665,-0.42,6.30,-8.10,0.00,-0.00,-0.00,-21.65,26.52,-28.10
676,-0.42,6.30,-8.10,0.00,-0.00,-0.00,-21.65,26.52,-28.10
687,-0.46,6.32,-8.09,-0.00,-0.00,-0.00,-21.65,26.52,-28.10
698,-0.46,6.32,-8.09,-0.00,-0.00,-0.00,-21.65,26.52,-28.10
709,-0.45,6.34,-8.05,-0.00,-0.00,-0.00,-21.65,26.52,-28.10
720,-0.42,6.34,-8.09,0.00,-0.00,-0.00,-21.08,26.69,-26.95
731,-0.42,6.34,-8.09,0.00,-0.00,-0.00,-21.08,26.69,-26.95
742,-0.42,6.32,-8.13,0.00,0.00,-0.00,-21.08,26.69,-26.95
753,-0.42,6.32,-8.13,0.00,0.00,-0.00,-21.08,26.69,-26.95
764,-0.44,6.31,-8.15,0.00,-0.00,-0.00,-21.08,26.69,-26.95
775,-0.44,6.31,-8.15,0.00,-0.00,-0.00,-21.08,26.69,-26.95
786,-0.44,6.32,-8.09,-0.00,-0.00,-0.01,-21.08,26.69,-26.95
797,-0.44,6.32,-8.09,-0.00,-0.00,-0.01,-21.08,26.69,-26.95
808,-0.45,6.35,-8.06,-0.00,-0.00,-0.01,-21.08,26.69,-26.95
819,-0.45,6.35,-8.06,-0.00,-0.00,-0.01,-21.08,26.69,-26.95
830,-0.44,6.35,-8.07,0.00,0.00,-0.00,-21.08,26.69,-26.95
841,-0.41,6.31,-8.10,0.00,-0.00,-0.00,-22.22,26.34,-27.93
852,-0.41,6.31,-8.10,0.00,-0.00,-0.00,-22.22,26.34,-27.93
863,-0.40,6.29,-8.12,0.00,-0.00,-0.00,-22.22,26.34,-27.93
874,-0.40,6.29,-8.12,0.00,-0.00,-0.00,-22.22,26.34,-27.93
885,-0.43,6.32,-8.10,0.00,-0.00,-0.00,-22.22,26.34,-27.93
896,-0.43,6.32,-8.10,0.00,-0.00,-0.00,-22.22,26.34,-27.93
907,-0.46,6.34,-8.08,0.00,-0.00,-0.01,-22.22,26.34,-27.93
918,-0.46,6.34,-8.08,0.00,-0.00,-0.01,-22.22,26.34,-27.93
929,-0.45,6.33,-8.08,0.00,-0.00,-0.01,-22.22,26.34,-27.93
940,-0.42,6.31,-8.10,0.00,-0.00,-0.00,-22.22,26.34,-27.93
951,-0.42,6.31,-8.10,0.00,-0.00,-0.00,-22.22,26.34,-27.93
962,-0.41,6.32,-8.11,0.00,-0.00,-0.00,-21.46,26.34,-27.28
973,-0.41,6.32,-8.11,0.00,-0.00,-0.00,-21.46,26.34,-27.28
984,-0.43,6.32,-8.09,-0.00,-0.00,-0.01,-21.46,26.34,-27.28
995,-0.43,6.32,-8.09,-0.00,-0.00,-0.01,-21.46,26.34,-27.28
1006,-0.47,6.34,-8.05,-0.00,-0.00,-0.01,-21.46,26.34,-27.28
1017,-0.47,6.34,-8.05,-0.00,-0.00,-0.01,-21.46,26.34,-27.28
1028,-0.43,6.35,-8.05,0.00,-0.00,-0.00,-21.46,26.34,-27.28
1039,-0.43,6.35,-8.05,0.00,-0.00,-0.00,-21.46,26.34,-27.28
1050,-0.41,6.31,-8.10,0.00,-0.00,-0.00,-21.46,26.34,-27.28
1061,-0.41,6.30,-8.09,0.00,-0.00,-0.00,-21.46,26.34,-27.28
1072,-0.41,6.30,-8.09,0.00,-0.00,-0.00,-21.46,26.34,-27.28
1083,-0.43,6.32,-8.12,0.00,-0.00,-0.00,-21.46,26.34,-27.28
1094,-0.43,6.32,-8.12,0.00,-0.00,-0.00,-21.46,26.34,-27.28
1105,-0.45,6.34,-8.11,0.00,-0.00,-0.01,-20.33,25.30,-26.29
1116,-0.45,6.34,-8.11,0.00,-0.00,-0.01,-20.33,25.30,-26.29
1127,-0.45,6.32,-8.08,0.00,-0.00,-0.00,-20.33,25.30,-26.29
1138,-0.45,6.32,-8.08,0.00,-0.00,-0.00,-20.33,25.30,-26.29
1149,-0.43,6.34,-8.09,0.00,-0.00,-0.00,-20.33,25.30,-26.29
1160,-0.41,6.32,-8.10,0.00,-0.00,-0.00,-20.33,25.30,-26.29
1171,-0.41,6.32,-8.10,0.00,-0.00,-0.00,-20.33,25.30,-26.29
1182,-0.42,6.30,-8.07,0.00,-0.00,-0.00,-20.33,25.30,-26.29
1193,-0.42,6.30,-8.07,0.00,-0.00,-0.00,-20.33,25.30,-26.29
1204,-0.44,6.33,-8.09,0.00,-0.00,-0.01,-20.33,25.30,-26.29
1215,-0.44,6.33,-8.09,0.00,-0.00,-0.01,-20.33,25.30,-26.29
1226,-0.45,6.33,-8.11,0.00,-0.00,-0.00,-21.08,26.69,-27.61
1237,-0.45,6.33,-8.11,0.00,-0.00,-0.00,-21.08,26.69,-27.61
1248,-0.43,6.32,-8.09,0.00,-0.00,-0.00,-21.08,26.69,-27.61
1259,-0.43,6.32,-8.09,0.00,-0.00,-0.00,-21.08,26.69,-27.61
1270,-0.40,6.32,-8.11,0.00,-0.00,-0.00,-21.08,26.69,-27.61
1281,-0.41,6.32,-8.13,0.00,-0.00,-0.00,-21.08,26.69,-27.61
1292,-0.41,6.32,-8.13,0.00,-0.00,-0.00,-21.08,26.69,-27.61
1303,-0.45,6.32,-8.08,0.00,-0.00,-0.01,-21.08,26.69,-27.61
1314,-0.45,6.32,-8.08,0.00,-0.00,-0.01,-21.08,26.69,-27.61
1325,-0.44,6.34,-8.07,0.00,-0.00,-0.01,-21.08,26.69,-27.61
1336,-0.44,6.34,-8.07,0.00,-0.00,-0.01,-21.08,26.69,-27.61
1347,-0.42,6.33,-8.09,0.00,-0.00,-0.01,-21.27,26.52,-27.44
1358,-0.42,6.33,-8.09,0.00,-0.00,-0.01,-21.27,26.52,-27.44
1369,-0.44,6.29,-8.15,0.00,-0.00,-0.00,-21.27,26.52,-27.44
1380,-0.45,6.30,-8.09,0.00,-0.00,-0.00,-21.27,26.52,-27.44
1391,-0.45,6.30,-8.09,0.00,-0.00,-0.00,-21.27,26.52,-27.44
1402,-0.45,6.33,-8.09,0.00,-0.00,-0.01,-21.27,26.52,-27.44
1418,-0.45,6.33,-8.09,0.00,-0.00,-0.01,-21.27,26.52,-27.44
1424,-0.42,6.35,-8.06,0.00,-0.00,-0.00,-21.27,26.52,-27.44
1435,-0.42,6.35,-8.06,0.00,-0.00,-0.00,-21.27,26.52,-27.44
1446,-0.41,6.34,-8.08,0.00,-0.00,-0.00,-21.27,26.52,-27.44
1457,-0.41,6.34,-8.08,0.00,-0.00,-0.00,-21.27,26.52,-27.44
1468,-0.41,6.32,-8.09,0.00,-0.00,-0.00,-21.27,26.52,-27.44
1479,-0.41,6.32,-8.09,0.00,-0.00,-0.00,-21.27,26.52,-27.44
1490,-0.43,6.32,-8.14,0.00,-0.00,-0.01,-20.52,26.87,-26.46
1501,-0.46,6.30,-8.10,0.00,-0.00,-0.00,-20.52,26.87,-26.46
1512,-0.46,6.30,-8.10,0.00,-0.00,-0.00,-20.52,26.87,-26.46
1523,-0.44,6.33,-8.09,0.00,-0.00,-0.00,-20.52,26.87,-26.46
1534,-0.44,6.33,-8.09,0.00,-0.00,-0.00,-20.52,26.87,-26.46
1545,-0.41,6.34,-8.06,0.00,-0.00,-0.01,-20.52,26.87,-26.46
1556,-0.41,6.34,-8.06,0.00,-0.00,-0.01,-20.52,26.87,-26.46
1567,-0.39,6.32,-8.07,0.00,-0.00,-0.00,-20.52,26.87,-26.46
1578,-0.39,6.32,-8.07,0.00,-0.00,-0.00,-20.52,26.87,-26.46
1589,-0.43,6.29,-8.12,0.00,-0.00,-0.00,-20.52,26.87,-26.46
1600,-0.46,6.32,-8.13,0.00,0.00,-0.01,-21.08,26.34,-26.46
1611,-0.46,6.32,-8.13,0.00,0.00,-0.01,-21.08,26.34,-27.28
1622,-0.45,6.34,-8.07,0.00,-0.00,-0.00,-21.08,26.34,-27.28
1633,-0.45,6.34,-8.07,0.00,-0.00,-0.00,-21.08,26.34,-27.28
1644,-0.43,6.29,-8.09,0.00,-0.00,-0.00,-21.08,26.34,-27.28
1655,-0.43,6.29,-8.09,0.00,-0.00,-0.00,-21.08,26.34,-27.28
1666,-0.40,6.34,-8.06,0.00,-0.00,-0.01,-21.08,26.34,-27.28
1677,-0.40,6.34,-8.06,0.00,-0.00,-0.01,-21.08,26.34,-27.28
1688,-0.41,6.35,-8.08,-0.00,-0.00,-0.01,-21.08,26.34,-27.28
1699,-0.41,6.35,-8.08,-0.00,-0.00,-0.01,-21.08,26.34,-27.28
1710,-0.46,6.32,-8.12,0.00,-0.00,-0.00,-21.08,26.34,-27.28
1721,-0.46,6.30,-8.10,0.00,-0.00,-0.01,-20.89,26.17,-27.44
1732,-0.46,6.30,-8.10,0.00,-0.00,-0.01,-20.89,26.17,-27.44
1743,-0.42,6.29,-8.11,0.00,-0.00,-0.00,-20.89,26.17,-27.44
1754,-0.42,6.29,-8.11,0.00,-0.00,-0.00,-20.89,26.17,-27.44
1765,-0.41,6.33,-8.07,0.00,-0.00,-0.00,-20.89,26.17,-27.44
1776,-0.41,6.33,-8.07,0.00,-0.00,-0.00,-20.89,26.17,-27.44
1787,-0.42,6.31,-8.09,0.00,-0.00,-0.00,-20.89,26.17,-27.44
1798,-0.42,6.31,-8.09,0.00,-0.00,-0.00,-20.89,26.17,-27.44
1809,-0.43,6.28,-8.11,0.00,-0.00,-0.00,-20.89,26.17,-27.44
1820,-0.43,6.28,-8.11,0.00,-0.00,-0.00,-20.89,26.17,-27.44
1831,-0.47,6.34,-8.05,-0.00,-0.00,-0.00,-20.89,26.17,-27.44
1842,-0.44,6.42,-8.03,-0.00,-0.00,-0.01,-20.89,26.17,-27.44
1853,-0.44,6.42,-8.03,-0.00,-0.00,-0.01,-20.89,26.17,-27.44
1864,-0.40,6.35,-8.07,0.00,-0.00,-0.00,-20.52,26.52,-27.77
1875,-0.40,6.35,-8.07,0.00,-0.00,-0.00,-20.52,26.52,-27.77
1886,-0.44,6.24,-8.16,0.00,-0.00,-0.00,-20.52,26.52,-27.77
1897,-0.44,6.24,-8.16,0.00,-0.00,-0.00,-20.52,26.52,-27.77
1908,-0.44,6.28,-8.13,0.00,-0.00,-0.01,-20.52,26.52,-27.77
1919,-0.44,6.28,-8.13,0.00,-0.00,-0.01,-20.52,26.52,-27.77
1930,-0.45,6.37,-8.05,-0.00,-0.00,-0.01,-20.52,26.52,-27.77
1941,-0.44,6.35,-8.04,0.00,-0.00,-0.00,-20.52,26.52,-27.77
1952,-0.44,6.35,-8.04,0.00,-0.00,-0.00,-20.52,26.52,-27.77
1963,-0.43,6.31,-8.08,0.00,-0.00,-0.00,-20.52,26.52,-27.77
1974,-0.43,6.31,-8.08,0.00,-0.00,-0.00,-20.52,26.52,-27.77
1985,-0.41,6.30,-8.13,0.00,-0.00,-0.01,-21.08,26.69,-26.29
1996,-0.41,6.30,-8.13,0.00,-0.00,-0.01,-21.08,26.69,-26.29
2007,-0.44,6.28,-8.12,0.00,-0.00,-0.01,-21.08,26.69,-26.29
2018,-0.44,6.28,-8.12,0.00,-0.00,-0.01,-21.08,26.69,-26.29
2029,-0.46,6.31,-8.12,0.00,-0.00,-0.00,-21.08,26.69,-26.29
2040,-0.46,6.31,-8.12,0.00,-0.00,-0.00,-21.08,26.69,-26.29
2051,-0.44,6.37,-8.04,-0.00,-0.00,-0.01,-21.08,26.69,-26.29
2062,-0.39,6.36,-8.07,0.00,-0.00,-0.00,-21.08,26.69,-26.29
2073,-0.39,6.36,-8.07,0.00,-0.00,-0.00,-21.08,26.69,-26.29
2084,-0.41,6.31,-8.13,0.00,-0.00,-0.00,-21.08,26.69,-26.29
2095,-0.41,6.31,-8.13,0.00,-0.00,-0.00,-21.08,26.69,-26.29
2106,-0.46,6.29,-8.14,0.00,0.00,-0.01,-20.33,24.60,-26.95
2117,-0.46,6.29,-8.14,0.00,0.00,-0.01,-20.33,24.60,-26.95
2128,-0.44,6.29,-8.13,0.00,-0.00,-0.01,-20.33,24.60,-26.95
2139,-0.44,6.29,-8.13,0.00,-0.00,-0.01,-20.33,24.60,-26.95
2150,-0.44,6.32,-8.07,-0.00,-0.00,-0.00,-20.33,24.60,-26.95
2161,-0.42,6.34,-8.07,0.00,-0.00,-0.00,-20.33,24.60,-26.95
2172,-0.42,6.34,-8.07,0.00,-0.00,-0.00,-20.33,24.60,-26.95
2183,-0.43,6.32,-8.09,0.00,-0.00,-0.01,-20.33,24.60,-26.95
2194,-0.43,6.32,-8.09,0.00,-0.00,-0.01,-20.33,24.60,-26.95
2205,-0.45,6.30,-8.12,0.00,-0.00,-0.00,-20.33,24.60,-26.95
2216,-0.45,6.30,-8.12,0.00,-0.00,-0.00,-20.33,24.60,-26.95
2227,-0.45,6.29,-8.10,0.00,-0.00,-0.01,-20.33,24.60,-26.95
2238,-0.45,6.29,-8.10,0.00,-0.00,-0.01,-20.33,24.60,-26.95
2249,-0.42,6.31,-8.10,0.00,-0.00,-0.01,-22.41,26.87,-26.46
2260,-0.42,6.31,-8.10,0.00,-0.00,-0.01,-22.41,26.87,-26.46
2271,-0.43,6.38,-8.06,-0.00,-0.00,-0.00,-22.41,26.87,-26.46
2282,-0.41,6.36,-8.06,0.00,-0.00,-0.00,-22.41,26.87,-26.46
2293,-0.41,6.36,-8.06,0.00,-0.00,-0.00,-22.41,26.87,-26.46
2304,-0.43,6.30,-8.13,0.00,-0.00,-0.01,-22.41,26.87,-26.46
2315,-0.43,6.30,-8.13,0.00,-0.00,-0.01,-22.41,26.87,-26.46
2326,-0.45,6.29,-8.14,0.00,-0.00,-0.00,-22.41,26.87,-26.46
2337,-0.45,6.29,-8.14,0.00,-0.00,-0.00,-22.41,26.87,-26.46
2348,-0.45,6.32,-8.10,0.00,-0.00,-0.00,-22.41,26.87,-26.46
2359,-0.45,6.32,-8.10,0.00,-0.00,-0.00,-22.41,26.87,-26.46
2370,-0.42,6.34,-8.09,-0.00,-0.00,-0.01,-22.22,26.34,-26.62
2381,-0.43,6.35,-8.09,0.00,-0.00,-0.00,-22.22,26.34,-26.62
2392,-0.43,6.35,-8.09,0.00,-0.00,-0.00,-22.22,26.34,-26.62
2403,-0.45,6.34,-8.11,0.00,-0.00,-0.00,-22.22,26.34,-26.62
2414,-0.45,6.34,-8.11,0.00,-0.00,-0.00,-22.22,26.34,-26.62
2425,-0.45,6.29,-8.12,0.00,-0.00,-0.01,-22.22,26.34,-26.62
2436,-0.45,6.29,-8.12,0.00,-0.00,-0.01,-22.22,26.34,-26.62
2447,-0.43,6.31,-8.10,-0.00,-0.00,-0.01,-22.22,26.34,-26.62
2458,-0.43,6.31,-8.10,-0.00,-0.00,-0.01,-22.22,26.34,-26.62
2469,-0.44,6.36,-8.09,0.00,-0.00,-0.00,-22.22,26.34,-26.62
2480,-0.44,6.36,-8.09,0.00,-0.00,-0.00,-22.22,26.34,-26.62
2496,-0.43,6.34,-8.11,0.00,-0.00,-0.00,-22.03,25.82,-27.44
2502,-0.44,6.31,-8.11,0.00,-0.00,-0.00,-22.03,25.82,-27.44
2513,-0.44,6.31,-8.11,0.00,-0.00,-0.00,-22.03,25.82,-27.44
2524,-0.45,6.30,-8.11,0.00,-0.00,-0.00,-22.03,25.82,-27.44
2535,-0.45,6.30,-8.11,0.00,-0.00,-0.00,-22.03,25.82,-27.44
2546,-0.42,6.33,-8.07,0.00,-0.00,-0.00,-22.03,25.82,-27.44
2557,-0.42,6.33,-8.07,0.00,-0.00,-0.00,-22.03,25.82,-27.44
2568,-0.43,6.34,-8.08,0.00,-0.00,-0.00,-22.03,25.82,-27.44
2579,-0.43,6.34,-8.08,0.00,-0.00,-0.00,-22.03,25.82,-27.44
2590,-0.43,6.34,-8.08,0.00,-0.00,-0.00,-22.03,25.82,-27.44
2601,-0.46,6.33,-8.10,0.00,-0.00,-0.00,-19.38,26.52,-27.44
2612,-0.46,6.33,-8.10,0.00,-0.00,-0.00,-19.38,26.52,-27.44
2623,-0.42,6.32,-8.12,0.00,-0.00,-0.00,-19.38,26.52,-27.44
2634,-0.42,6.32,-8.12,0.00,-0.00,-0.00,-19.38,26.52,-27.44
2645,-0.43,6.33,-8.11,0.00,-0.00,-0.00,-19.38,26.52,-27.44
2656,-0.43,6.33,-8.11,0.00,-0.00,-0.00,-19.38,26.52,-27.44
2667,-0.43,6.33,-8.08,0.00,-0.00,-0.00,-19.38,26.52,-27.44
2678,-0.43,6.33,-8.08,0.00,-0.00,-0.00,-19.38,26.52,-27.44
2689,-0.43,6.33,-8.07,0.00,-0.00,-0.00,-19.38,26.52,-27.44
2700,-0.43,6.33,-8.07,0.00,-0.00,-0.00,-19.38,26.52,-27.44
2711,-0.45,6.32,-8.08,0.00,0.00,-0.01,-19.38,26.52,-27.44
2722,-0.45,6.29,-8.11,0.00,-0.00,-0.00,-19.38,26.52,-27.44
2733,-0.45,6.29,-8.11,0.00,-0.00,-0.00,-19.38,26.52,-27.44
2744,-0.43,6.31,-8.12,0.00,-0.00,-0.00,-20.70,25.30,-27.93
2755,-0.43,6.31,-8.12,0.00,-0.00,-0.00,-20.70,25.30,-27.93
2766,-0.41,6.36,-8.08,-0.00,-0.00,-0.00,-20.70,25.30,-27.93
2777,-0.41,6.36,-8.08,-0.00,-0.00,-0.00,-20.70,25.30,-27.93
2788,-0.43,6.36,-8.09,0.00,-0.00,-0.01,-20.70,25.30,-27.93
2799,-0.43,6.36,-8.09,0.00,-0.00,-0.01,-20.70,25.30,-27.93
2810,-0.44,6.32,-8.11,0.00,-0.00,-0.00,-20.70,25.30,-27.93
2821,-0.44,6.30,-8.09,0.00,-0.00,-0.00,-20.70,25.30,-27.93
2832,-0.44,6.30,-8.09,0.00,-0.00,-0.00,-20.70,25.30,-27.93
2843,-0.45,6.31,-8.10,0.00,-0.00,-0.00,-20.70,25.30,-27.93
2854,-0.45,6.31,-8.10,0.00,-0.00,-0.00,-20.70,25.30,-27.93
2865,-0.43,6.33,-8.11,0.00,-0.00,-0.00,-22.41,25.47,-28.10
2876,-0.43,6.33,-8.11,0.00,-0.00,-0.00,-22.41,25.47,-28.10
2887,-0.43,6.35,-8.10,0.00,-0.00,-0.01,-22.41,25.47,-28.10
2898,-0.43,6.35,-8.10,0.00,-0.00,-0.01,-22.41,25.47,-28.10
2909,-0.43,6.33,-8.09,0.00,-0.00,-0.01,-22.41,25.47,-28.10
2920,-0.43,6.33,-8.09,0.00,-0.00,-0.01,-22.41,25.47,-28.10
2931,-0.44,6.31,-8.12,0.00,-0.00,-0.01,-22.41,25.47,-28.10
2942,-0.42,6.32,-8.10,0.00,-0.00,-0.01,-22.41,25.47,-28.10
2953,-0.42,6.32,-8.10,0.00,-0.00,-0.01,-22.41,25.47,-28.10
2964,-0.40,6.33,-8.09,0.00,-0.00,-0.01,-22.41,25.47,-28.10
2975,-0.40,6.33,-8.09,0.00,-0.00,-0.01,-22.41,25.47,-28.10
2986,-0.42,6.32,-8.09,0.00,-0.00,-0.00,-22.03,26.17,-28.10
2997,-0.42,6.32,-8.09,0.00,-0.00,-0.00,-22.03,26.17,-28.10
3008,-0.42,6.32,-8.11,0.00,0.00,-0.00,-22.03,26.17,-28.10
3019,-0.42,6.32,-8.11,0.00,0.00,-0.00,-22.03,26.17,-28.10
3030,-0.43,6.31,-8.08,0.00,-0.00,-0.00,-22.03,26.17,-28.10
3041,-0.43,6.31,-8.08,0.00,-0.00,-0.00,-22.03,26.17,-28.10
3052,-0.43,6.33,-8.09,0.00,-0.00,-0.00,-22.03,26.17,-28.10
3063,-0.42,6.32,-8.09,0.00,-0.00,-0.00,-22.03,26.17,-28.10
3074,-0.42,6.32,-8.09,0.00,-0.00,-0.00,-22.03,26.17,-28.10
3085,-0.44,6.31,-8.10,0.00,-0.00,-0.00,-22.03,26.17,-28.10
3096,-0.44,6.31,-8.10,0.00,-0.00,-0.00,-22.03,26.17,-28.10
3107,-0.45,6.33,-8.09,0.00,-0.00,-0.01,-22.03,26.17,-28.10
3118,-0.45,6.33,-8.09,0.00,-0.00,-0.01,-22.03,26.17,-28.10
3129,-0.44,6.35,-8.11,0.00,-0.00,-0.01,-21.27,27.22,-28.10
3140,-0.44,6.35,-8.11,0.00,-0.00,-0.01,-21.27,27.22,-28.10
3151,-0.42,6.34,-8.07,0.00,-0.00,-0.00,-21.27,27.22,-28.10
3162,-0.43,6.34,-8.10,0.00,-0.00,-0.00,-21.27,27.22,-28.10
3173,-0.43,6.34,-8.10,0.00,-0.00,-0.00,-21.27,27.22,-28.10
3184,-0.45,6.32,-8.09,0.00,-0.00,-0.00,-21.27,27.22,-28.10
3199,-0.45,6.32,-8.09,0.00,-0.00,-0.00,-21.27,27.22,-28.10
3206,-0.45,6.30,-8.09,0.00,-0.00,-0.00,-21.27,27.22,-28.10
3217,-0.45,6.30,-8.09,0.00,-0.00,-0.00,-21.27,27.22,-28.10
3228,-0.45,6.33,-8.08,0.00,-0.00,-0.01,-21.27,27.22,-28.10
3239,-0.45,6.33,-8.08,0.00,-0.00,-0.01,-21.27,27.22,-28.10
3250,-0.43,6.36,-8.10,0.00,-0.00,-0.00,-21.65,26.52,-28.43
3261,-0.43,6.36,-8.10,0.00,-0.00,-0.00,-21.65,26.52,-28.43
3272,-0.41,6.34,-8.10,0.00,-0.00,-0.00,-21.65,26.52,-28.43
3283,-0.43,6.33,-8.13,0.00,-0.00,-0.01,-21.65,26.52,-28.43
3294,-0.43,6.33,-8.13,0.00,-0.00,-0.01,-21.65,26.52,-28.43
3305,-0.44,6.31,-8.12,0.00,-0.00,-0.01,-21.65,26.52,-28.43
3316,-0.44,6.31,-8.12,0.00,-0.00,-0.01,-21.65,26.52,-28.43
3327,-0.45,6.32,-8.12,0.00,-0.00,-0.00,-21.65,26.52,-28.43
3338,-0.45,6.32,-8.12,0.00,-0.00,-0.00,-21.65,26.52,-28.43
3349,-0.43,6.33,-8.07,0.00,-0.00,-0.00,-21.65,26.52,-28.43
3360,-0.43,6.33,-8.07,0.00,-0.00,-0.00,-21.65,26.52,-28.43
3371,-0.43,6.34,-8.09,0.00,-0.00,-0.00,-22.03,26.52,-26.13
3382,-0.44,6.32,-8.08,0.00,-0.00,-0.00,-22.03,26.52,-26.13
3393,-0.44,6.32,-8.08,0.00,-0.00,-0.00,-22.03,26.52,-26.13
3404,-0.43,6.29,-8.10,0.00,-0.00,-0.00,-22.03,26.52,-26.13
3415,-0.43,6.29,-8.10,0.00,-0.00,-0.00,-22.03,26.52,-26.13
3426,-0.44,6.29,-8.12,0.00,-0.00,-0.00,-22.03,26.52,-26.13
3437,-0.44,6.29,-8.12,0.00,-0.00,-0.00,-22.03,26.52,-26.13
3448,-0.44,6.34,-8.08,0.00,-0.00,-0.00,-22.03,26.52,-26.13
3459,-0.44,6.34,-8.08,0.00,-0.00,-0.00,-22.03,26.52,-26.13
3470,-0.43,6.33,-8.06,0.00,-0.00,-0.01,-22.03,26.52,-26.13
3481,-0.43,6.33,-8.06,0.00,-0.00,-0.01,-22.03,26.52,-26.13
3492,-0.45,6.34,-8.08,0.00,-0.00,-0.01,-22.03,26.52,-26.13
3503,-0.44,6.32,-8.10,0.00,-0.00,-0.01,-21.65,26.87,-26.13
3514,-0.44,6.32,-8.10,0.00,-0.00,-0.01,-21.65,26.87,-26.13
3525,-0.44,6.31,-8.10,0.00,-0.00,-0.01,-21.65,26.87,-26.13
3536,-0.44,6.31,-8.10,0.00,-0.00,-0.01,-21.65,26.87,-26.13
3547,-0.44,6.33,-8.09,0.00,-0.00,-0.01,-21.65,26.87,-26.13
3558,-0.44,6.33,-8.09,0.00,-0.00,-0.01,-21.65,26.87,-26.13
3569,-0.43,6.36,-8.06,-0.00,-0.00,-0.00,-21.65,26.87,-26.13
3580,-0.43,6.36,-8.06,-0.00,-0.00,-0.00,-21.65,26.87,-26.13
3591,-0.41,6.35,-8.08,0.00,0.00,-0.00,-21.65,26.87,-26.13
3602,-0.43,6.32,-8.11,0.00,-0.00,-0.01,-21.65,26.87,-26.13
3613,-0.43,6.32,-8.11,0.00,-0.00,-0.01,-21.65,26.87,-26.13
3624,-0.42,6.29,-8.14,0.00,-0.00,-0.00,-21.08,27.04,-27.61
3635,-0.42,6.29,-8.14,0.00,-0.00,-0.00,-21.08,27.04,-27.61
3646,-0.42,6.33,-8.11,0.00,-0.00,-0.00,-21.08,27.04,-27.61
3657,-0.42,6.33,-8.11,0.00,-0.00,-0.00,-21.08,27.04,-27.61
3668,-0.44,6.36,-8.05,-0.00,-0.00,-0.01,-21.08,27.04,-27.61
3679,-0.44,6.36,-8.05,-0.00,-0.00,-0.01,-21.08,27.04,-27.61
3690,-0.44,6.33,-8.10,0.00,-0.00,-0.01,-21.08,27.04,-27.61
3701,-0.44,6.33,-8.10,0.00,-0.00,-0.01,-21.08,27.04,-27.61
3712,-0.42,6.31,-8.10,0.00,-0.00,-0.00,-21.08,27.04,-27.61
3723,-0.41,6.31,-8.10,0.00,-0.00,-0.01,-21.08,27.04,-27.61
3734,-0.41,6.31,-8.10,0.00,-0.00,-0.01,-21.08,27.04,-27.61
3745,-0.42,6.34,-8.09,0.00,-0.00,-0.01,-20.52,26.52,-27.44
3756,-0.42,6.34,-8.09,0.00,-0.00,-0.01,-20.52,26.52,-27.44
3767,-0.43,6.32,-8.08,0.00,-0.00,-0.00,-20.52,26.52,-27.44
3778,-0.43,6.32,-8.08,0.00,-0.00,-0.00,-20.52,26.52,-27.44
3789,-0.44,6.33,-8.09,0.00,-0.00,-0.00,-20.52,26.52,-27.44
3800,-0.44,6.33,-8.09,0.00,-0.00,-0.00,-20.52,26.52,-27.44
3811,-0.43,6.31,-8.11,0.00,-0.00,-0.01,-20.52,26.52,-27.44
3822,-0.43,6.30,-8.08,0.00,-0.00,-0.01,-20.52,26.52,-27.44
3833,-0.43,6.30,-8.08,0.00,-0.00,-0.01,-20.52,26.52,-27.44
3844,-0.42,6.33,-8.09,0.00,-0.00,-0.01,-20.52,26.52,-27.44
3855,-0.42,6.33,-8.09,0.00,-0.00,-0.01,-20.52,26.52,-27.44
3866,-0.42,6.34,-8.11,0.00,-0.00,-0.00,-20.70,25.65,-27.61
3877,-0.42,6.34,-8.11,0.00,-0.00,-0.00,-20.70,25.65,-27.61
3888,-0.43,6.32,-8.10,0.00,-0.00,-0.00,-20.70,25.65,-27.61
3899,-0.43,6.32,-8.10,0.00,-0.00,-0.00,-20.70,25.65,-27.61
3910,-0.43,6.31,-8.10,0.00,-0.00,-0.00,-20.70,25.65,-27.61
3921,-0.43,6.31,-8.10,0.00,-0.00,-0.00,-20.70,25.65,-27.61
3932,-0.43,6.32,-8.09,-0.00,-0.00,-0.01,-20.70,25.65,-27.61
3943,-0.45,6.34,-8.09,-0.00,-0.00,-0.00,-20.70,25.65,-27.61
3954,-0.45,6.34,-8.09,-0.00,-0.00,-0.00,-20.70,25.65,-27.61
3965,-0.42,6.32,-8.11,0.00,-0.00,-0.01,-20.70,25.65,-27.61
3976,-0.42,6.32,-8.11,0.00,-0.00,-0.01,-20.70,25.65,-27.61
3987,-0.42,6.32,-8.09,0.00,-0.00,-0.01,-20.70,25.65,-27.61
3998,-0.42,6.32,-8.09,0.00,-0.00,-0.01,-20.70,25.65,-27.61
4009,-0.42,6.33,-8.11,0.00,-0.00,-0.01,-21.27,26.17,-27.44
4020,-0.42,6.33,-8.11,0.00,-0.00,-0.01,-21.27,26.17,-27.44
4031,-0.42,6.32,-8.09,0.00,0.00,-0.01,-21.27,26.17,-27.44
4042,-0.42,6.32,-8.09,0.00,0.00,-0.01,-21.27,26.17,-27.44
4053,-0.43,6.31,-8.10,0.00,-0.00,-0.01,-21.27,26.17,-27.44
4064,-0.44,6.31,-8.09,0.00,-0.00,-0.01,-21.27,26.17,-27.44
4075,-0.44,6.31,-8.09,0.00,-0.00,-0.01,-21.27,26.17,-27.44
4091,-0.43,6.33,-8.08,0.00,-0.00,-0.01,-21.27,26.17,-27.44
4097,-0.43,6.33,-8.08,0.00,-0.00,-0.01,-21.27,26.17,-27.44
4108,-0.40,6.34,-8.07,0.00,-0.00,-0.01,-21.27,26.17,-27.44
4119,-0.40,6.34,-8.07,0.00,-0.00,-0.01,-21.27,26.17,-27.44
4130,-0.43,6.31,-8.10,0.00,-0.00,-0.00,-20.70,24.60,-26.29
4141,-0.43,6.31,-8.10,0.00,-0.00,-0.00,-20.70,24.60,-26.29
4152,-0.43,6.29,-8.10,0.00,-0.00,-0.00,-20.70,24.60,-26.29
4163,-0.43,6.31,-8.10,0.00,-0.00,-0.00,-20.70,24.60,-26.29
4174,-0.43,6.31,-8.10,0.00,-0.00,-0.00,-20.70,24.60,-26.29
4185,-0.43,6.31,-8.08,0.00,-0.00,-0.00,-20.70,24.60,-26.29
4196,-0.43,6.31,-8.08,0.00,-0.00,-0.00,-20.70,24.60,-26.29
4207,-0.43,6.33,-8.08,0.00,-0.00,-0.00,-20.70,24.60,-26.29
4218,-0.43,6.33,-8.08,0.00,-0.00,-0.00,-20.70,24.60,-26.29
4229,-0.43,6.34,-8.10,0.00,-0.00,-0.01,-20.70,24.60,-26.29
4240,-0.43,6.34,-8.10,0.00,-0.00,-0.01,-20.70,24.60,-26.29
4251,-0.44,6.34,-8.10,0.00,-0.00,-0.01,-19.57,27.74,-26.95
4262,-0.44,6.34,-8.10,0.00,-0.00,-0.01,-19.57,27.74,-26.95
4273,-0.44,6.30,-8.08,0.00,-0.00,-0.01,-19.57,27.74,-26.95
4284,-0.42,6.31,-8.10,0.00,-0.00,-0.01,-19.57,27.74,-26.95
4295,-0.42,6.31,-8.10,0.00,-0.00,-0.01,-19.57,27.74,-26.95
4306,-0.42,6.32,-8.10,0.00,-0.00,-0.01,-19.57,27.74,-26.95
4317,-0.42,6.32,-8.10,0.00,-0.00,-0.01,-19.57,27.74,-26.95
4328,-0.43,6.34,-8.08,0.00,-0.00,-0.00,-19.57,27.74,-26.95
4339,-0.43,6.34,-8.08,0.00,-0.00,-0.00,-19.57,27.74,-26.95
4350,-0.44,6.33,-8.09,0.00,-0.00,-0.00,-19.57,27.74,-26.95
4361,-0.44,6.33,-8.09,0.00,-0.00,-0.00,-19.57,27.74,-26.95
4372,-0.41,6.30,-8.10,0.00,-0.00,-0.00,-19.57,27.74,-26.95
4383,-0.42,6.28,-8.14,0.00,-0.00,-0.00,-21.27,26.17,-27.77
4394,-0.42,6.28,-8.14,0.00,-0.00,-0.00,-21.27,26.17,-27.77
4405,-0.45,6.31,-8.10,0.00,-0.00,-0.00,-21.27,26.17,-27.77
4416,-0.45,6.31,-8.10,0.00,-0.00,-0.00,-21.27,26.17,-27.77
4427,-0.46,6.38,-8.02,-0.00,-0.00,-0.01,-21.27,26.17,-27.77
4438,-0.46,6.38,-8.02,-0.00,-0.00,-0.01,-21.27,26.17,-27.77
4449,-0.45,6.38,-8.03,0.00,-0.00,-0.01,-21.27,26.17,-27.77
4460,-0.45,6.38,-8.03,0.00,-0.00,-0.01,-21.27,26.17,-27.77
4471,-0.44,6.32,-8.07,0.00,-0.00,-0.01,-21.27,26.17,-27.77
4482,-0.44,6.32,-8.07,0.00,-0.00,-0.01,-21.27,26.17,-27.77
4493,-0.43,6.28,-8.13,0.00,-0.00,-0.01,-21.27,26.17,-27.77
4504,-0.39,6.28,-8.13,0.00,-0.00,-0.01,-21.46,26.69,-26.62
4515,-0.39,6.28,-8.13,0.00,-0.00,-0.01,-21.46,26.69,-26.62
4526,-0.42,6.35,-8.07,-0.00,-0.00,-0.01,-21.46,26.69,-26.62
4537,-0.42,6.35,-8.07,-0.00,-0.00,-0.01,-21.46,26.69,-26.62
4548,-0.45,6.32,-8.08,0.00,-0.00,-0.00,-21.46,26.69,-26.62
4559,-0.45,6.32,-8.08,0.00,-0.00,-0.00,-21.46,26.69,-26.62
4570,-0.41,6.28,-8.16,0.00,-0.00,-0.00,-21.46,26.69,-26.62
4581,-0.41,6.28,-8.16,0.00,-0.00,-0.00,-21.46,26.69,-26.62
4592,-0.44,6.26,-8.11,0.00,-0.00,-0.00,-21.46,26.69,-26.62
4604,-0.50,6.36,-8.05,-0.00,-0.00,-0.00,-21.46,26.69,-26.62
4614,-0.50,6.36,-8.05,-0.00,-0.00,-0.00,-21.46,26.69,-26.62
4625,-0.46,6.44,-8.02,-0.00,-0.00,-0.01,-20.52,27.91,-26.46
4636,-0.46,6.44,-8.02,-0.00,-0.00,-0.01,-20.52,27.91,-26.46
4647,-0.40,6.42,-8.01,0.00,0.00,-0.01,-20.52,27.91,-26.46
4658,-0.40,6.42,-8.01,0.00,0.00,-0.01,-20.52,27.91,-26.46
4669,-0.39,6.26,-8.15,0.01,-0.00,-0.00,-20.52,27.91,-26.46
4680,-0.39,6.26,-8.15,0.01,-0.00,-0.00,-20.52,27.91,-26.46
4691,-0.42,6.19,-8.19,0.00,-0.00,-0.01,-20.52,27.91,-26.46
4702,-0.42,6.19,-8.19,0.00,-0.00,-0.01,-20.52,27.91,-26.46
4713,-0.44,6.32,-8.10,-0.00,-0.00,-0.01,-20.52,27.91,-26.46
4724,-0.47,6.41,-8.02,-0.00,-0.00,-0.01,-20.52,27.91,-26.46
4735,-0.47,6.41,-8.02,-0.00,-0.00,-0.01,-20.52,27.91,-26.46
4746,-0.45,6.35,-8.08,0.00,-0.00,-0.00,-20.52,27.91,-26.46
4757,-0.45,6.35,-8.08,0.00,-0.00,-0.00,-20.52,27.91,-26.46
4768,-0.37,6.27,-8.14,0.00,-0.00,-0.00,-22.22,27.74,-26.62
4779,-0.37,6.27,-8.14,0.00,-0.00,-0.00,-22.22,27.74,-26.62
4790,-0.38,6.27,-8.12,0.00,0.00,-0.01,-22.22,27.74,-26.62
4801,-0.38,6.27,-8.12,0.00,0.00,-0.01,-22.22,27.74,-26.62
4812,-0.45,6.30,-8.10,-0.00,-0.00,-0.00,-22.22,27.74,-26.62
4823,-0.50,6.34,-8.06,-0.00,-0.00,-0.01,-22.22,27.74,-26.62
4834,-0.50,6.34,-8.06,-0.00,-0.00,-0.01,-22.22,27.74,-26.62
4845,-0.43,6.39,-8.05,0.00,-0.00,-0.01,-22.22,27.74,-26.62
4856,-0.43,6.39,-8.05,0.00,-0.00,-0.01,-22.22,27.74,-26.62
4867,-0.38,6.31,-8.11,0.00,-0.00,-0.00,-22.22,27.74,-26.62
4878,-0.38,6.31,-8.11,0.00,-0.00,-0.00,-22.22,27.74,-26.62
4889,-0.40,6.25,-8.19,0.00,-0.00,-0.00,-19.38,26.52,-26.78
4900,-0.40,6.25,-8.19,0.00,-0.00,-0.00,-19.38,26.52,-26.78
4911,-0.45,6.31,-8.13,-0.00,-0.00,-0.01,-19.38,26.52,-26.78
4922,-0.45,6.31,-8.13,-0.00,-0.00,-0.01,-19.38,26.52,-26.78
4933,-0.48,6.38,-8.07,-0.00,-0.00,-0.01,-19.38,26.52,-26.78
4944,-0.46,6.38,-8.06,0.00,-0.00,-0.00,-19.38,26.52,-26.78
4955,-0.46,6.38,-8.06,0.00,-0.00,-0.00,-19.38,26.52,-26.78
4966,-0.41,6.32,-8.08,0.00,0.00,-0.00,-19.38,26.52,-26.78
4977,-0.41,6.32,-8.08,0.00,0.00,-0.00,-19.38,26.52,-26.78
4988,-0.38,6.27,-8.12,0.00,-0.00,-0.00,-19.38,26.52,-26.78
4999,-0.38,6.27,-8.12,0.00,-0.00,-0.00,-19.38,26.52,-26.78
5010,-0.43,6.29,-8.18,0.00,-0.00,-0.01,-22.03,25.82,-27.77
5021,-0.43,6.29,-8.18,0.00,-0.00,-0.01,-22.03,25.82,-27.77
5032,-0.49,6.35,-8.07,-0.00,-0.00,-0.01,-22.03,25.82,-27.77
5043,-0.46,6.35,-8.06,-0.00,-0.00,-0.01,-22.03,25.82,-27.77
5054,-0.46,6.35,-8.06,-0.00,-0.00,-0.01,-22.03,25.82,-27.77
5065,-0.42,6.32,-8.07,0.00,-0.00,-0.00,-22.03,25.82,-27.77
5076,-0.42,6.32,-8.07,0.00,-0.00,-0.00,-22.03,25.82,-27.77
5087,-0.38,6.28,-8.11,0.00,-0.00,-0.00,-22.03,25.82,-27.77
5098,-0.38,6.28,-8.11,0.00,-0.00,-0.00,-22.03,25.82,-27.77
5109,-0.41,6.29,-8.09,-0.00,-0.00,-0.01,-22.03,25.82,-27.77
5120,-0.41,6.29,-8.09,-0.00,-0.00,-0.01,-22.03,25.82,-27.77
5131,-0.49,6.32,-8.10,-0.00,-0.00,-0.00,-20.89,27.22,-27.44
5142,-0.49,6.32,-8.10,-0.00,-0.00,-0.00,-20.89,27.22,-27.44
5153,-0.46,6.37,-8.07,-0.00,-0.00,-0.00,-20.89,27.22,-27.44
5164,-0.41,6.33,-8.07,0.00,-0.00,-0.00,-20.89,27.22,-27.44
5175,-0.41,6.33,-8.07,0.00,-0.00,-0.00,-20.89,27.22,-27.44
5186,-0.38,6.26,-8.14,0.00,-0.00,-0.00,-20.89,27.22,-27.44
5197,-0.38,6.26,-8.14,0.00,-0.00,-0.00,-20.89,27.22,-27.44
5208,-0.42,6.26,-8.13,0.00,-0.00,-0.01,-20.89,27.22,-27.44
5219,-0.42,6.26,-8.13,0.00,-0.00,-0.01,-20.89,27.22,-27.44
5230,-0.47,6.34,-8.07,-0.00,-0.00,-0.01,-20.89,27.22,-27.44
5241,-0.47,6.34,-8.07,-0.00,-0.00,-0.01,-20.89,27.22,-27.44
5252,-0.45,6.38,-8.02,-0.00,-0.00,-0.00,-20.89,27.22,-27.44
5263,-0.45,6.38,-8.02,-0.00,-0.00,-0.00,-20.89,27.22,-27.44
5274,-0.43,6.32,-8.10,0.00,-0.00,-0.00,-22.79,26.17,-27.11
5285,-0.39,6.27,-8.14,0.00,-0.00,-0.00,-22.79,26.17,-27.11
5296,-0.39,6.27,-8.14,0.00,-0.00,-0.00,-22.79,26.17,-27.11
5307,-0.40,6.29,-8.13,0.00,-0.00,-0.01,-22.79,26.17,-27.11
5318,-0.40,6.29,-8.13,0.00,-0.00,-0.01,-22.79,26.17,-27.11
5329,-0.47,6.33,-8.09,0.00,-0.00,-0.01,-22.79,26.17,-27.11
5340,-0.47,6.33,-8.09,0.00,-0.00,-0.01,-22.79,26.17,-27.11
5351,-0.47,6.36,-8.04,-0.00,-0.00,-0.01,-22.79,26.17,-27.11
5362,-0.47,6.36,-8.04,-0.00,-0.00,-0.01,-22.79,26.17,-27.11
5373,-0.41,6.33,-8.05,0.00,-0.00,-0.01,-22.79,26.17,-27.11
5384,-0.39,6.26,-8.15,0.00,-0.00,-0.00,-20.33,26.69,-26.95
5395,-0.39,6.26,-8.15,0.00,-0.00,-0.00,-20.33,26.69,-26.95
5406,-0.41,6.29,-8.13,0.00,-0.00,-0.01,-20.33,26.69,-26.95
5417,-0.41,6.29,-8.13,0.00,-0.00,-0.01,-20.33,26.69,-26.95
5428,-0.45,6.34,-8.07,-0.00,-0.00,-0.01,-20.33,26.69,-26.95
5439,-0.45,6.34,-8.07,-0.00,-0.00,-0.01,-20.33,26.69,-26.95
5450,-0.47,6.37,-8.05,-0.00,-0.00,-0.01,-20.33,26.69,-26.95
5461,-0.47,6.37,-8.05,-0.00,-0.00,-0.01,-20.33,26.69,-26.95
5472,-0.42,6.33,-8.07,0.00,-0.00,-0.00,-20.33,26.69,-26.95
5483,-0.42,6.33,-8.07,0.00,-0.00,-0.00,-20.33,26.69,-26.95
5494,-0.39,6.29,-8.14,0.00,-0.00,-0.00,-20.33,26.69,-26.95
5505,-0.41,6.28,-8.11,0.00,-0.00,-0.00,-22.97,25.99,-27.61
5516,-0.41,6.28,-8.11,0.00,-0.00,-0.00,-22.97,25.99,-27.61
5527,-0.45,6.32,-8.11,-0.00,-0.00,-0.01,-22.97,25.99,-27.61
5538,-0.45,6.32,-8.11,-0.00,-0.00,-0.01,-22.97,25.99,-27.61
5549,-0.46,6.35,-8.04,-0.00,-0.00,-0.01,-22.97,25.99,-27.61
5560,-0.46,6.35,-8.04,-0.00,-0.00,-0.01,-22.97,25.99,-27.61
5571,-0.43,6.32,-8.05,0.00,-0.00,-0.00,-22.97,25.99,-27.61
5587,-0.43,6.32,-8.05,0.00,-0.00,-0.00,-22.97,25.99,-27.61
5593,-0.41,6.27,-8.10,0.00,-0.00,-0.00,-22.97,25.99,-27.61
5604,-0.40,6.28,-8.11,0.00,-0.00,-0.00,-22.97,25.99,-27.61
5615,-0.40,6.28,-8.11,0.00,-0.00,-0.00,-22.97,25.99,-27.61
5626,-0.45,6.32,-8.08,-0.00,-0.00,-0.01,-22.97,25.99,-27.61
5637,-0.45,6.32,-8.08,-0.00,-0.00,-0.01,-22.97,25.99,-27.61
5648,-0.46,6.35,-8.09,-0.00,-0.00,-0.01,-22.03,27.91,-27.11
5659,-0.46,6.35,-8.09,-0.00,-0.00,-0.01,-22.03,27.91,-27.11
5670,-0.44,6.34,-8.09,0.00,-0.00,-0.00,-22.03,27.91,-27.11
5681,-0.44,6.34,-8.09,0.00,-0.00,-0.00,-22.03,27.91,-27.11
5692,-0.40,6.31,-8.09,0.00,-0.00,-0.00,-22.03,27.91,-27.11
5703,-0.40,6.31,-8.09,0.00,-0.00,-0.00,-22.03,27.91,-27.11
5714,-0.40,6.27,-8.11,0.00,-0.00,-0.00,-22.03,27.91,-27.11
5725,-0.45,6.31,-8.12,0.00,-0.00,-0.01,-22.03,27.91,-27.11
5736,-0.45,6.31,-8.12,0.00,-0.00,-0.01,-22.03,27.91,-27.11
5747,-0.45,6.34,-8.06,0.00,-0.00,-0.01,-22.03,27.91,-27.11
5758,-0.45,6.34,-8.06,0.00,-0.00,-0.01,-22.03,27.91,-27.11
5774,-0.45,6.35,-8.06,0.00,-0.00,-0.00,-21.84,26.34,-26.62
5780,-0.45,6.35,-8.06,0.00,-0.00,-0.00,-21.84,26.34,-26.62
5791,-0.40,6.31,-8.10,0.00,-0.00,-0.00,-21.84,26.34,-26.62
5802,-0.40,6.31,-8.10,0.00,-0.00,-0.00,-21.84,26.34,-26.62
5813,-0.39,6.28,-8.12,0.00,-0.00,-0.00,-21.84,26.34,-26.62
5824,-0.43,6.30,-8.10,0.00,-0.00,-0.00,-21.84,26.34,-26.62
5835,-0.43,6.30,-8.10,0.00,-0.00,-0.00,-21.84,26.34,-26.62
5846,-0.47,6.36,-8.05,-0.00,-0.00,-0.01,-21.84,26.34,-26.62
5857,-0.47,6.36,-8.05,-0.00,-0.00,-0.01,-21.84,26.34,-26.62
5868,-0.46,6.35,-8.08,0.00,-0.00,-0.00,-21.84,26.34,-26.62
5879,-0.46,6.35,-8.08,0.00,-0.00,-0.00,-21.84,26.34,-26.62
5890,-0.41,6.31,-8.13,0.00,-0.00,-0.00,-20.14,27.56,-26.78
5901,-0.41,6.31,-8.13,0.00,-0.00,-0.00,-20.14,27.56,-26.78
5913,-0.41,6.29,-8.14,0.00,-0.00,-0.01,-20.14,27.56,-26.78
5923,-0.41,6.29,-8.14,0.00,-0.00,-0.01,-20.14,27.56,-26.78
5934,-0.42,6.30,-8.10,-0.00,-0.00,-0.01,-20.14,27.56,-26.78
5945,-0.45,6.34,-8.06,-0.00,-0.00,-0.01,-20.14,27.56,-26.78
5961,-0.45,6.34,-8.06,-0.00,-0.00,-0.01,-20.14,27.56,-26.78
5967,-0.45,6.35,-8.07,0.00,-0.00,-0.01,-20.14,27.56,-26.78
5978,-0.45,6.35,-8.07,0.00,-0.00,-0.01,-20.14,27.56,-26.78
5989,-0.40,6.32,-8.08,0.00,-0.00,-0.01,-20.14,27.56,-26.78
6000,-0.40,6.32,-8.08,0.00,-0.00,-0.01,-20.14,27.56,-26.78
6011,-0.39,6.27,-8.12,0.00,-0.00,-0.01,-20.14,27.56,-26.78
6022,-0.39,6.27,-8.12,0.00,-0.00,-0.01,-20.14,27.56,-26.78
6033,-0.42,6.28,-8.13,0.00,-0.00,-0.01,-21.65,26.17,-27.44
6044,-0.45,6.34,-8.07,-0.00,-0.00,-0.01,-21.65,26.17,-27.44
6055,-0.45,6.34,-8.07,-0.00,-0.00,-0.01,-21.65,26.17,-27.44
6066,-0.45,6.34,-8.06,-0.00,-0.00,-0.00,-21.65,26.17,-27.44
6077,-0.45,6.34,-8.06,-0.00,-0.00,-0.00,-21.65,26.17,-27.44
6088,-0.41,6.32,-8.10,0.00,-0.00,-0.00,-21.65,26.17,-27.44
6099,-0.41,6.32,-8.10,0.00,-0.00,-0.00,-21.65,26.17,-27.44
6110,-0.39,6.30,-8.12,0.00,-0.00,-0.00,-21.65,26.17,-27.44
6121,-0.39,6.30,-8.12,0.00,-0.00,-0.00,-21.65,26.17,-27.44
6132,-0.41,6.30,-8.11,0.00,-0.00,-0.00,-21.65,26.17,-27.44
6143,-0.41,6.30,-8.11,0.00,-0.00,-0.00,-21.65,26.17,-27.44
6154,-0.46,6.34,-8.09,-0.00,-0.00,-0.01,-20.14,27.22,-26.13
6165,-0.46,6.34,-8.10,0.00,-0.00,-0.00,-20.14,27.22,-26.13
6176,-0.46,6.34,-8.10,0.00,-0.00,-0.00,-20.14,27.22,-26.13
6187,-0.44,6.32,-8.10,0.00,-0.00,-0.00,-20.14,27.22,-26.13
6198,-0.44,6.32,-8.10,0.00,-0.00,-0.00,-20.14,27.22,-26.13
6209,-0.39,6.29,-8.10,0.00,-0.00,-0.00,-20.14,27.22,-26.13
6220,-0.39,6.29,-8.10,0.00,-0.00,-0.00,-20.14,27.22,-26.13
6231,-0.43,6.26,-8.11,0.00,-0.00,-0.01,-20.14,27.22,-26.13
6242,-0.43,6.26,-8.11,0.00,-0.00,-0.01,-20.14,27.22,-26.13
6253,-0.45,6.32,-8.10,-0.01,0.00,-0.00,-20.14,27.22,-26.13
6264,-0.45,6.32,-8.10,-0.01,0.00,-0.00,-20.14,27.22,-26.13
6275,-0.45,6.34,-8.08,-0.00,-0.00,-0.01,-21.65,27.22,-27.44
6286,-0.42,6.33,-8.10,0.00,-0.00,-0.01,-21.65,27.22,-27.44
6297,-0.42,6.33,-8.10,0.00,-0.00,-0.01,-21.65,27.22,-27.44
6308,-0.40,6.31,-8.12,0.00,-0.00,-0.01,-21.65,27.22,-27.44
6319,-0.40,6.31,-8.12,0.00,-0.00,-0.01,-21.65,27.22,-27.44
6335,-0.42,6.31,-8.10,0.00,-0.00,-0.01,-21.65,27.22,-27.44
6341,-0.42,6.31,-8.10,0.00,-0.00,-0.01,-21.65,27.22,-27.44
6352,-0.45,6.32,-8.07,0.00,-0.00,-0.01,-21.65,27.22,-27.44
6363,-0.45,6.32,-8.07,0.00,-0.00,-0.01,-21.65,27.22,-27.44
6374,-0.45,6.35,-8.06,0.00,-0.00,-0.01,-21.65,27.22,-27.44
6385,-0.44,6.33,-8.06,0.00,-0.00,-0.01,-21.65,27.22,-27.44
6396,-0.44,6.33,-8.06,0.00,-0.00,-0.01,-21.65,27.22,-27.44
6407,-0.41,6.30,-8.10,0.00,-0.00,-0.00,-21.27,25.82,-28.10
6418,-0.41,6.30,-8.10,0.00,-0.00,-0.00,-21.27,25.82,-28.10
6429,-0.41,6.30,-8.12,0.00,-0.00,-0.00,-21.27,25.82,-28.10
6440,-0.41,6.30,-8.12,0.00,-0.00,-0.00,-21.27,25.82,-28.10
6451,-0.45,6.35,-8.10,0.00,-0.00,-0.01,-21.27,25.82,-28.10
6462,-0.45,6.35,-8.10,0.00,-0.00,-0.01,-21.27,25.82,-28.10
6473,-0.46,6.34,-8.08,-0.00,-0.00,-0.01,-21.27,25.82,-28.10
6484,-0.46,6.34,-8.08,-0.00,-0.00,-0.01,-21.27,25.82,-28.10
6495,-0.43,6.34,-8.08,0.00,-0.00,-0.01,-21.27,25.82,-28.10
6506,-0.41,6.32,-8.09,0.00,-0.00,-0.00,-21.27,25.82,-28.10
6517,-0.41,6.32,-8.09,0.00,-0.00,-0.00,-21.27,25.82,-28.10
6528,-0.41,6.29,-8.13,0.00,-0.00,-0.00,-21.27,27.22,-28.76
6539,-0.41,6.29,-8.13,0.00,-0.00,-0.00,-21.27,27.22,-28.76
6550,-0.43,6.31,-8.09,0.00,-0.00,-0.01,-21.27,27.22,-28.76
6561,-0.43,6.31,-8.09,0.00,-0.00,-0.01,-21.27,27.22,-28.76
6572,-0.46,6.34,-8.08,-0.00,-0.00,-0.00,-21.27,27.22,-28.76
6583,-0.46,6.34,-8.08,-0.00,-0.00,-0.00,-21.27,27.22,-28.76
6594,-0.45,6.33,-8.07,0.00,-0.00,-0.00,-21.27,27.22,-28.76
6605,-0.41,6.31,-8.10,0.00,-0.00,-0.00,-21.27,27.22,-28.76
6616,-0.41,6.31,-8.10,0.00,-0.00,-0.00,-21.27,27.22,-28.76
6627,-0.42,6.29,-8.12,0.00,-0.00,-0.00,-21.27,27.22,-28.76
6638,-0.42,6.29,-8.12,0.00,-0.00,-0.00,-21.27,27.22,-28.76
6649,-0.44,6.30,-8.13,0.00,-0.00,-0.00,-20.14,26.52,-28.76
6660,-0.44,6.30,-8.13,0.00,-0.00,-0.00,-20.14,26.52,-28.76
6671,-0.45,6.32,-8.09,0.00,-0.00,-0.01,-20.14,26.52,-28.76
6682,-0.45,6.32,-8.09,0.00,-0.00,-0.01,-20.14,26.52,-28.76
6693,-0.44,6.29,-8.12,0.01,-0.01,-0.01,-20.14,26.52,-28.76
6704,-0.44,6.29,-8.12,0.01,-0.01,-0.01,-20.14,26.52,-28.76
6715,-0.41,6.29,-8.08,-0.00,-0.03,-0.03,-20.14,26.52,-28.76
6726,-0.43,6.30,-8.08,-0.00,-0.03,-0.03,-20.14,26.52,-28.76
6737,-0.43,6.30,-8.08,-0.00,-0.03,-0.03,-20.14,26.52,-28.76
6748,-0.45,6.31,-8.08,-0.00,-0.04,-0.03,-20.14,26.52,-28.76
6759,-0.45,6.31,-8.08,-0.00,-0.04,-0.03,-20.14,26.52,-28.76
6770,-0.49,6.33,-8.05,-0.01,-0.04,-0.04,-21.08,27.04,-26.29
6781,-0.49,6.33,-8.05,-0.01,-0.04,-0.04,-21.08,27.04,-26.29
6792,-0.48,6.33,-8.09,-0.02,-0.04,-0.04,-21.08,27.04,-26.29
6804,-0.48,6.33,-8.09,-0.02,-0.04,-0.04,-21.08,27.04,-26.29
6814,-0.48,6.32,-8.07,-0.03,-0.04,-0.03,-21.08,27.04,-26.29
6825,-0.47,6.33,-8.11,-0.03,-0.03,-0.03,-21.08,27.04,-26.29
6836,-0.47,6.33,-8.11,-0.03,-0.03,-0.03,-21.08,27.04,-26.29
6847,-0.52,6.31,-8.11,-0.03,-0.02,-0.03,-21.08,27.04,-26.29
6858,-0.52,6.31,-8.11,-0.03,-0.02,-0.03,-21.08,27.04,-26.29
6869,-0.62,6.60,-7.89,-0.09,0.17,-0.27,-21.08,27.04,-26.29
6880,-0.62,6.60,-7.89,-0.09,0.17,-0.27,-21.08,27.04,-26.29
6891,-0.49,6.16,-8.16,0.18,0.53,-0.44,-21.08,27.04,-26.29
6902,-0.49,6.16,-8.16,0.18,0.53,-0.44,-21.08,27.04,-26.29
6913,0.12,6.56,-8.90,0.16,0.36,-0.10,-22.41,25.12,-27.11
6924,0.12,6.56,-8.90,0.16,0.36,-0.10,-22.41,25.12,-27.11
6935,0.39,6.86,-11.95,0.97,0.17,0.09,-22.41,25.12,-27.11
6946,0.56,3.66,-10.84,3.98,-0.41,0.68,-22.41,25.12,-27.11
6957,0.56,3.66,-10.84,3.98,-0.41,0.68,-22.41,25.12,-27.11
6968,-0.46,0.24,-6.75,4.61,-0.95,1.66,-22.41,25.12,-27.11
6979,-0.46,0.24,-6.75,4.61,-0.95,1.66,-22.41,25.12,-27.11
6990,-0.45,5.39,-10.36,1.70,-1.12,2.41,-22.41,25.12,-27.11
7001,-0.45,5.39,-10.36,1.70,-1.12,2.41,-22.41,25.12,-27.11
7012,-2.76,8.26,-10.60,2.16,-1.13,2.51,-22.41,25.12,-27.11
7023,-2.76,8.26,-10.60,2.16,-1.13,2.51,-22.41,25.12,-27.11
7034,-1.76,10.96,-11.39,0.05,-0.70,1.20,-20.89,20.24,-32.37
7045,-1.63,10.89,-12.51,-0.99,-0.57,-0.59,-20.89,20.24,-32.37
7056,-1.63,10.89,-12.51,-0.99,-0.57,-0.59,-20.89,20.24,-32.37
7067,-1.12,9.06,-11.78,0.94,-0.80,-1.87,-20.89,20.24,-32.37
7078,-1.12,9.06,-11.78,0.94,-0.80,-1.87,-20.89,20.24,-32.37
7089,-1.52,5.74,-11.55,2.27,-1.12,-2.75,-20.89,20.24,-32.37
7100,-1.52,5.74,-11.55,2.27,-1.12,-2.75,-20.89,20.24,-32.37
7111,-1.51,4.53,-10.90,2.84,-1.56,-2.91,-20.89,20.24,-32.37
7122,-1.51,4.53,-10.90,2.84,-1.56,-2.91,-20.89,20.24,-32.37
7133,-1.40,4.08,-11.10,2.55,-1.81,-2.95,-20.89,20.24,-32.37
7144,-1.40,4.08,-11.10,2.55,-1.81,-2.95,-20.89,20.24,-32.37
7155,-1.74,2.55,-10.90,1.30,-2.17,-3.20,-30.35,10.47,-31.71
7166,-2.53,0.19,-6.74,-1.76,-2.73,-3.34,-30.35,10.47,-31.71
7177,-2.53,0.19,-6.74,-1.76,-2.73,-3.34,-30.35,10.47,-31.71
7188,-1.88,3.37,-9.94,-5.48,-2.95,-3.55,-30.35,10.47,-31.71
7199,-1.88,3.37,-9.94,-5.48,-2.95,-3.55,-30.35,10.47,-31.71
7210,-3.99,4.35,-7.60,-3.25,-2.93,-3.60,-30.35,10.47,-31.71
7221,-3.99,4.35,-7.60,-3.25,-2.93,-3.60,-30.35,10.47,-31.71
7232,-3.55,2.55,-5.39,1.60,-1.65,-3.78,-30.35,10.47,-31.71
7243,-3.55,2.55,-5.39,1.60,-1.65,-3.78,-30.35,10.47,-31.71
7254,-4.57,0.15,-3.16,5.01,-0.54,-3.46,-30.35,10.47,-31.71
7265,-5.35,-1.20,-4.66,4.75,0.27,-2.96,-30.35,10.47,-31.71
7276,-5.35,-1.20,-4.66,4.75,0.27,-2.96,-30.35,10.47,-31.71
7287,-6.59,-4.75,-4.42,2.55,0.92,-2.23,-39.24,-5.05,-24.98
7298,-6.59,-4.75,-4.42,2.55,0.92,-2.23,-39.24,-5.05,-24.98
7309,-4.98,-6.02,-10.50,-0.36,1.63,-1.24,-39.24,-5.05,-24.98
7320,-4.98,-6.02,-10.50,-0.36,1.63,-1.24,-39.24,-5.05,-24.98
7331,-1.74,-2.25,-14.58,-0.13,1.05,0.08,-39.24,-5.05,-24.98
7342,-1.74,-2.25,-14.58,-0.13,1.05,0.08,-39.24,-5.05,-24.98
7353,-3.29,1.40,-11.13,-0.07,-0.63,0.25,-39.24,-5.05,-24.98
7364,-3.29,1.40,-11.13,-0.07,-0.63,0.25,-39.24,-5.05,-24.98
7375,-6.38,2.89,-5.67,0.36,-1.50,-0.55,-39.24,-5.05,-24.98
7386,-7.70,4.09,-4.24,3.49,-0.35,-1.62,-39.24,-5.05,-24.98
7397,-7.70,4.09,-4.24,3.49,-0.35,-1.62,-39.24,-5.05,-24.98
7409,-1.41,3.37,-2.74,8.20,1.39,-2.62,-37.54,-16.74,-22.18
7419,-1.41,3.37,-2.74,8.20,1.39,-2.62,-37.54,-16.74,-22.18
7430,-5.49,9.43,3.56,-0.14,2.97,-3.89,-37.54,-16.74,-22.18
7441,-5.49,9.43,3.56,-0.14,2.97,-3.89,-37.54,-16.74,-22.18
7452,7.54,-21.86,-32.97,-2.33,5.21,-5.91,-37.54,-16.74,-22.18
7463,7.54,-21.86,-32.97,-2.33,5.21,-5.91,-37.54,-16.74,-22.18
7474,-2.45,-8.20,-1.18,2.93,-0.15,-1.34,-37.54,-16.74,-22.18
7485,-2.45,-8.20,-1.18,2.93,-0.15,-1.34,-37.54,-16.74,-22.18
7496,-2.87,-4.84,-15.41,1.91,0.27,-0.29,-37.54,-16.74,-22.18
7507,-3.11,-2.83,-9.69,2.37,-1.20,-0.25,-37.54,-16.74,-22.18
7518,-3.11,-2.83,-9.69,2.37,-1.20,-0.25,-37.54,-16.74,-22.18
7529,-2.68,-4.04,-7.98,0.84,-1.84,-1.26,-26.76,-29.12,-22.35
7540,-2.68,-4.04,-7.98,0.84,-1.84,-1.26,-26.76,-29.12,-22.35
7551,-3.83,-3.83,-6.86,-0.81,-1.75,-2.11,-26.76,-29.12,-22.35
7562,-3.83,-3.83,-6.86,-0.81,-1.75,-2.11,-26.76,-29.12,-22.35
7573,-2.82,-5.80,-7.41,-2.52,-1.36,-2.74,-26.76,-29.12,-22.35
7584,-2.82,-5.80,-7.41,-2.52,-1.36,-2.74,-26.76,-29.12,-22.35
7595,-3.15,-5.38,-10.20,-4.90,-1.30,-2.66,-26.76,-29.12,-22.35
7606,-3.10,-0.24,-13.98,-5.94,-1.72,-2.16,-26.76,-29.12,-22.35
7617,-3.10,-0.24,-13.98,-5.94,-1.72,-2.16,-26.76,-29.12,-22.35
7628,-6.78,0.06,-9.15,-3.90,-2.52,-2.21,-26.76,-29.12,-22.35
7639,-6.78,0.06,-9.15,-3.90,-2.52,-2.21,-26.76,-29.12,-22.35
7650,-3.63,2.11,-7.97,-2.76,-2.45,-3.25,-26.76,-29.12,-22.35
7662,-3.63,2.11,-7.97,-2.76,-2.45,-3.25,-26.76,-29.12,-22.35
7672,-2.83,0.72,-4.07,-2.18,-1.61,-4.73,-26.76,-23.89,-27.93
7683,-2.83,0.72,-4.07,-2.18,-1.61,-4.73,-26.76,-23.89,-27.93
7694,-1.95,-7.63,-6.62,-1.90,0.29,-5.05,-26.76,-23.89,-27.93
7705,-1.95,-7.63,-6.62,-1.90,0.29,-5.05,-26.76,-23.89,-27.93
7716,1.11,-12.56,-9.58,0.14,1.14,-2.63,-26.76,-23.89,-27.93
7727,0.48,-6.01,-7.67,-1.99,0.39,0.35,-26.76,-23.89,-27.93
7738,0.48,-6.01,-7.67,-1.99,0.39,0.35,-26.76,-23.89,-27.93
7749,0.01,1.13,-9.75,-3.14,0.07,1.64,-26.76,-23.89,-27.93
7760,0.01,1.13,-9.75,-3.14,0.07,1.64,-26.76,-23.89,-27.93
7771,-1.81,2.32,-8.96,-2.23,-0.24,1.45,-26.76,-23.89,-27.93
7782,-1.81,2.32,-8.96,-2.23,-0.24,1.45,-26.76,-23.89,-27.93
7793,-5.78,6.58,-13.31,2.25,-0.64,0.95,-20.33,-20.05,-32.54
7804,-5.78,6.58,-13.31,2.25,-0.64,0.95,-20.33,-20.05,-32.54
7815,0.09,1.64,-8.21,9.70,-0.76,0.26,-20.33,-20.05,-32.54
7826,-1.46,-2.73,-6.26,6.71,-1.02,-0.28,-20.33,-20.05,-32.54
7837,-1.46,-2.73,-6.26,6.71,-1.02,-0.28,-20.33,-20.05,-32.54
7848,-0.49,-1.15,-10.34,1.74,-1.19,-1.04,-20.33,-20.05,-32.54
7859,-0.49,-1.15,-10.34,1.74,-1.19,-1.04,-20.33,-20.05,-32.54
7870,-0.10,-2.29,-10.61,1.03,-1.72,-1.95,-20.33,-20.05,-32.54
7881,-0.10,-2.29,-10.61,1.03,-1.72,-1.95,-20.33,-20.05,-32.54
7892,-0.71,-4.94,-8.93,-0.04,-2.28,-2.35,-20.33,-20.05,-32.54
7903,-0.71,-4.94,-8.93,-0.04,-2.28,-2.35,-20.33,-20.05,-32.54
7914,-3.68,-6.61,-5.07,-1.11,-2.52,-2.20,-22.97,-34.35,-19.39
7925,-3.68,-6.61,-5.07,-1.11,-2.52,-2.20,-22.97,-34.35,-19.39
7937,-3.35,-4.89,-4.77,-2.24,-2.24,-1.94,-22.97,-34.35,-19.39
7947,-2.14,-5.84,-1.08,-0.32,-1.48,-1.27,-22.97,-34.35,-19.39
7958,-2.14,-5.84,-1.08,-0.32,-1.48,-1.27,-22.97,-34.35,-19.39
7969,-2.90,-6.11,2.11,1.36,0.01,-0.61,-22.97,-34.35,-19.39
7980,-2.90,-6.11,2.11,1.36,0.01,-0.61,-22.97,-34.35,-19.39
7991,-4.83,-5.54,6.16,0.90,2.36,-0.32,-22.97,-34.35,-19.39
8002,-4.83,-5.54,6.16,0.90,2.36,-0.32,-22.97,-34.35,-19.39
8013,-4.23,-10.45,-36.45,-3.56,4.90,-0.56,-22.97,-34.35,-19.39
8024,-4.23,-10.45,-36.45,-3.56,4.90,-0.56,-22.97,-34.35,-19.39
8035,2.13,2.07,-11.22,-4.01,1.07,0.45,-22.97,-34.35,-19.39
8046,-4.20,3.70,-10.14,-3.58,-0.56,-0.29,-22.97,-34.35,-19.39
8057,-4.20,3.70,-10.14,-3.58,-0.56,-0.29,-22.97,-34.35,-19.39
8068,-1.65,-5.81,-9.32,1.23,-0.44,-0.96,-22.97,-34.35,-19.39
8079,-1.65,-5.81,-9.32,1.23,-0.44,-0.96,-22.97,-34.35,-19.39
8090,-2.33,-7.36,-2.04,0.92,-1.42,-0.07,-22.97,-34.35,-19.39
8101,-2.33,-7.36,-2.04,0.92,-1.42,-0.07,-22.97,-34.35,-19.39
8112,-5.01,-4.11,-6.56,-1.65,-0.93,0.75,-22.97,-34.35,-19.39
8123,-5.01,-4.11,-6.56,-1.65,-0.93,0.75,-22.97,-34.35,-19.39
8134,-7.08,-0.67,-8.35,-2.66,-0.47,1.17,-22.97,-34.35,-19.39
8145,-7.08,-0.67,-8.35,-2.66,-0.47,1.17,-22.97,-34.35,-19.39
8156,-3.50,-0.75,-8.69,-2.18,0.31,0.95,-22.97,-34.35,-19.39
8167,-2.45,-2.41,-11.31,-3.09,0.09,0.19,-20.14,-27.20,-29.74
8178,-2.45,-2.41,-11.31,-3.09,0.09,0.19,-20.14,-27.20,-29.74
8189,-3.85,-1.21,-10.86,-3.70,-0.71,0.12,-20.14,-27.20,-29.74
8200,-3.85,-1.21,-10.86,-3.70,-0.71,0.12,-20.14,-27.20,-29.74
8211,-6.48,0.23,-10.53,-3.19,-0.69,0.43,-20.14,-27.20,-29.74
8222,-6.48,0.23,-10.53,-3.19,-0.69,0.43,-20.14,-27.20,-29.74
8233,-7.50,1.94,-10.52,-3.13,-0.22,0.20,-20.14,-27.20,-29.74
8244,-7.50,1.94,-10.52,-3.13,-0.22,0.20,-20.14,-27.20,-29.74
8255,-5.48,2.11,-13.18,-2.12,0.37,-0.02,-20.14,-27.20,-29.74
8266,-2.91,1.52,-14.80,-0.22,0.01,0.18,-20.14,-27.20,-29.74
8277,-2.91,1.52,-14.80,-0.22,0.01,0.18,-20.14,-27.20,-29.74
8288,-3.23,-2.35,-11.57,-0.39,-1.52,-0.05,-20.70,-16.91,-34.51
8299,-3.23,-2.35,-11.57,-0.39,-1.52,-0.05,-20.70,-16.91,-34.51
8310,-6.95,-2.04,-8.78,-1.90,-2.37,-0.00,-20.70,-16.91,-34.51
8321,-6.95,-2.04,-8.78,-1.90,-2.37,-0.00,-20.70,-16.91,-34.51
8332,-9.21,1.74,-10.08,-3.19,-1.88,0.33,-20.70,-16.91,-34.51
8343,-9.21,1.74,-10.08,-3.19,-1.88,0.33,-20.70,-16.91,-34.51
8354,-7.83,4.86,-12.00,-2.66,-1.06,0.08,-20.70,-16.91,-34.51
8366,-7.83,4.86,-12.00,-2.66,-1.06,0.08,-20.70,-16.91,-34.51
8376,-6.08,2.40,-12.95,-0.44,-0.48,-0.47,-20.70,-16.91,-34.51
8387,-4.14,0.19,-12.08,0.93,-0.45,-0.50,-20.70,-16.91,-34.51
8398,-4.14,0.19,-12.08,0.93,-0.45,-0.50,-20.70,-16.91,-34.51
8409,-4.18,0.85,-10.65,1.33,-0.67,-0.25,-27.32,-13.60,-32.37
8420,-4.18,0.85,-10.65,1.33,-0.67,-0.25,-27.32,-13.60,-32.37
8431,-5.30,2.47,-8.89,0.62,-0.96,-0.29,-27.32,-13.60,-32.37
8442,-5.30,2.47,-8.89,0.62,-0.96,-0.29,-27.32,-13.60,-32.37
8453,-4.76,3.33,-8.12,0.37,-0.89,-0.69,-27.32,-13.60,-32.37
8464,-4.76,3.33,-8.12,0.37,-0.89,-0.69,-27.32,-13.60,-32.37
8475,-4.13,1.89,-6.46,1.48,-0.57,-1.07,-27.32,-13.60,-32.37
8486,-4.13,1.89,-6.46,1.48,-0.57,-1.07,-27.32,-13.60,-32.37
8497,-3.36,-0.17,-5.89,1.97,-0.30,-1.18,-27.32,-13.60,-32.37
8508,-4.26,0.08,-5.63,1.31,-0.40,-1.00,-27.32,-13.60,-32.37
8519,-4.26,0.08,-5.63,1.31,-0.40,-1.00,-27.32,-13.60,-32.37
8530,-6.58,0.59,-4.93,0.93,-0.45,-0.81,-27.32,-13.60,-32.37
8541,-6.58,0.59,-4.93,0.93,-0.45,-0.81,-27.32,-13.60,-32.37
8552,-4.08,3.34,-7.39,0.37,-0.47,-1.08,-28.46,-20.23,-30.07
8563,-4.08,3.34,-7.39,0.37,-0.47,-1.08,-28.46,-20.23,-30.07
8574,-7.70,0.51,-3.10,3.14,-0.64,-1.54,-28.46,-20.23,-30.07
8585,-7.70,0.51,-3.10,3.14,-0.64,-1.54,-28.46,-20.23,-30.07
8596,-5.38,-3.88,-3.10,3.54,-0.33,-1.67,-28.46,-20.23,-30.07
8607,-6.04,-6.41,-4.47,2.85,0.22,-0.88,-28.46,-20.23,-30.07
8618,-6.04,-6.41,-4.47,2.85,0.22,-0.88,-28.46,-20.23,-30.07
8629,-7.04,-4.26,-5.45,0.59,0.37,0.20,-28.46,-20.23,-30.07
8640,-7.04,-4.26,-5.45,0.59,0.37,0.20,-28.46,-20.23,-30.07
8651,-6.61,-1.38,-8.44,-0.80,0.54,0.69,-28.46,-20.23,-30.07
8662,-6.61,-1.38,-8.44,-0.80,0.54,0.69,-28.46,-20.23,-30.07
8673,-5.62,0.78,-11.86,0.03,0.45,0.50,-26.00,-28.07,-24.98
8684,-5.62,0.78,-11.86,0.03,0.45,0.50,-26.00,-28.07,-24.98
8695,-7.33,0.33,-12.27,2.98,0.30,0.22,-26.00,-28.07,-24.98
8706,-7.33,0.33,-12.27,2.98,0.30,0.22,-26.00,-28.07,-24.98
8717,-8.06,-3.72,-13.94,5.08,0.28,-0.08,-26.00,-28.07,-24.98
8728,-9.20,-5.15,-6.99,5.66,-0.52,0.04,-26.00,-28.07,-24.98
8739,-9.20,-5.15,-6.99,5.66,-0.52,0.04,-26.00,-28.07,-24.98
8750,-6.66,-6.22,-3.66,3.78,-0.64,-0.46,-26.00,-28.07,-24.98
8761,-6.66,-6.22,-3.66,3.78,-0.64,-0.46,-26.00,-28.07,-24.98
8772,-5.69,-7.26,-2.87,2.17,-0.43,-0.52,-26.00,-28.07,-24.98
8783,-5.69,-7.26,-2.87,2.17,-0.43,-0.52,-26.00,-28.07,-24.98
8794,-4.74,-6.42,-4.66,1.06,0.07,0.18,-27.51,-34.35,-12.49
8805,-4.74,-6.42,-4.66,1.06,0.07,0.18,-27.51,-34.35,-12.49
8816,-5.75,-5.84,-6.67,0.11,0.58,0.89,-27.51,-34.35,-12.49
8827,-4.73,-6.06,-7.17,-0.85,0.54,1.14,-27.51,-34.35,-12.49
8838,-4.73,-6.06,-7.17,-0.85,0.54,1.14,-27.51,-34.35,-12.49
8849,-4.78,-6.84,-6.81,-2.74,-0.19,1.41,-27.51,-34.35,-12.49
8860,-4.78,-6.84,-6.81,-2.74,-0.19,1.41,-27.51,-34.35,-12.49
8871,-9.33,-2.04,-6.27,-4.05,-0.74,1.84,-27.51,-34.35,-12.49
8882,-9.33,-2.04,-6.27,-4.05,-0.74,1.84,-27.51,-34.35,-12.49
8893,-8.26,1.40,-7.48,-3.07,-0.19,1.40,-27.51,-34.35,-12.49
8904,-8.26,1.40,-7.48,-3.07,-0.19,1.40,-27.51,-34.35,-12.49
8915,-6.29,0.26,-8.98,-1.06,0.17,0.45,-27.51,-34.35,-12.49
8926,-6.29,0.26,-8.98,-1.06,0.17,0.45,-27.51,-34.35,-12.49
8937,-5.76,-1.94,-6.94,0.28,-0.12,-0.16,-31.49,-26.85,-19.55
8948,-5.56,-3.63,-6.39,0.67,-0.46,-0.42,-31.49,-26.85,-19.55
8959,-5.56,-3.63,-6.39,0.67,-0.46,-0.42,-31.49,-26.85,-19.55
8970,-6.31,-3.98,-6.24,0.60,-0.74,-0.35,-31.49,-26.85,-19.55
8981,-6.31,-3.98,-6.24,0.60,-0.74,-0.35,-31.49,-26.85,-19.55
8992,-9.00,-2.18,-6.73,0.42,-0.76,-0.29,-31.49,-26.85,-19.55
9003,-9.00,-2.18,-6.73,0.42,-0.76,-0.29,-31.49,-26.85,-19.55
9014,-8.21,-3.53,-5.94,1.18,-0.29,-0.47,-31.49,-26.85,-19.55
9025,-8.21,-3.53,-5.94,1.18,-0.29,-0.47,-31.49,-26.85,-19.55
9036,-6.99,-4.88,-4.94,0.84,-0.04,-0.37,-31.49,-26.85,-19.55
9047,-6.57,-2.17,-5.81,0.63,0.18,0.01,-31.49,-29.64,-16.60
9058,-6.57,-2.17,-5.81,0.63,0.18,0.01,-31.49,-29.64,-16.60
9069,-6.47,-1.88,-8.13,2.32,0.57,0.11,-31.49,-29.64,-16.60
9080,-6.47,-1.88,-8.13,2.32,0.57,0.11,-31.49,-29.64,-16.60
9091,-6.87,-3.39,-7.64,3.15,0.43,-0.13,-31.49,-29.64,-16.60
9102,-6.87,-3.39,-7.64,3.15,0.43,-0.13,-31.49,-29.64,-16.60
9113,-6.98,-4.08,-5.92,2.41,0.06,-0.43,-31.49,-29.64,-16.60
9124,-6.98,-4.08,-5.92,2.41,0.06,-0.43,-31.49,-29.64,-16.60
9135,-6.50,-4.73,-4.53,3.02,-0.19,-0.59,-31.49,-29.64,-16.60
9146,-6.50,-4.73,-4.53,3.02,-0.19,-0.59,-31.49,-29.64,-16.60
9157,-7.32,-9.20,-2.65,1.84,-0.26,-0.70,-31.49,-29.64,-16.60
9169,-6.46,-5.71,-4.46,-0.24,-0.10,-0.03,-30.73,-34.53,-8.71
9179,-6.46,-5.71,-4.46,-0.24,-0.10,-0.03,-30.73,-34.53,-8.71
9190,-6.38,-5.39,-6.23,-0.87,0.12,0.09,-30.73,-34.53,-8.71
9201,-6.38,-5.39,-6.23,-0.87,0.12,0.09,-30.73,-34.53,-8.71
9212,-6.95,-4.90,-6.06,-0.75,0.08,0.18,-30.73,-34.53,-8.71
9223,-6.95,-4.90,-6.06,-0.75,0.08,0.18,-30.73,-34.53,-8.71
9234,-6.68,-4.77,-6.41,-0.51,0.06,0.23,-30.73,-34.53,-8.71
9245,-6.68,-4.77,-6.41,-0.51,0.06,0.23,-30.73,-34.53,-8.71
9256,-7.27,-4.53,-6.89,-0.05,-0.09,0.36,-30.73,-34.53,-8.71
9267,-7.66,-2.72,-7.24,0.96,-0.16,0.36,-30.73,-34.53,-8.71
9278,-7.66,-2.72,-7.24,0.96,-0.16,0.36,-30.73,-34.53,-8.71
9289,-6.91,-2.84,-6.54,2.34,-0.18,-0.09,-30.73,-34.53,-8.71
9300,-6.91,-2.84,-6.54,2.34,-0.18,-0.09,-30.73,-34.53,-8.71
9311,-6.99,-6.45,-4.28,2.94,-0.33,-0.43,-30.92,-35.05,-6.24
9322,-6.99,-6.45,-4.28,2.94,-0.33,-0.43,-30.92,-35.05,-6.24
9333,-7.59,-6.66,-4.07,2.32,-0.34,-0.19,-30.92,-35.05,-6.24
9344,-7.59,-6.66,-4.07,2.32,-0.34,-0.19,-30.92,-35.05,-6.24
9355,-8.62,-5.57,-5.61,2.85,-0.01,0.10,-30.92,-35.05,-6.24
9366,-8.62,-5.57,-5.61,2.85,-0.01,0.10,-30.92,-35.05,-6.24
9377,-6.50,-7.86,-3.24,5.94,0.15,0.30,-30.92,-35.05,-6.24
9388,-5.98,-9.99,0.14,6.69,0.21,0.88,-30.92,-35.05,-6.24
9399,-5.98,-9.99,0.14,6.69,0.21,0.88,-30.92,-35.05,-6.24
9410,-6.95,-7.92,-2.48,3.60,0.31,1.39,-30.92,-35.05,-6.24
9421,-6.95,-7.92,-2.48,3.60,0.31,1.39,-30.92,-35.05,-6.24
9432,-6.72,-6.97,-2.56,3.30,0.42,1.77,-32.24,-33.13,8.06
9443,-6.72,-6.97,-2.56,3.30,0.42,1.77,-32.24,-33.13,8.06
9454,-7.03,-5.05,-1.79,3.00,0.36,1.83,-32.24,-33.13,8.06
9465,-7.03,-5.05,-1.79,3.00,0.36,1.83,-32.24,-33.13,8.06
9476,-7.72,-2.51,-1.29,1.59,-0.02,1.42,-32.24,-33.13,8.06
9487,-6.93,-0.53,-2.40,0.72,-0.22,0.42,-32.24,-33.13,8.06
9498,-6.93,-0.53,-2.40,0.72,-0.22,0.42,-32.24,-33.13,8.06
9509,-6.71,-2.32,-0.41,1.46,-0.11,-0.88,-32.24,-33.13,8.06
9520,-6.71,-2.32,-0.41,1.46,-0.11,-0.88,-32.24,-33.13,8.06
9531,-6.65,-3.94,0.08,0.28,0.06,-1.97,-32.24,-33.13,8.06
9542,-6.65,-3.94,0.08,0.28,0.06,-1.97,-32.24,-33.13,8.06
9553,-10.22,-5.28,0.61,-0.81,0.35,-2.75,-33.00,-30.34,12.33
9564,-10.22,-5.28,0.61,-0.81,0.35,-2.75,-33.00,-30.34,12.33
9575,-4.02,-12.94,-10.73,-2.24,0.60,-3.20,-33.00,-30.34,12.33
9586,-4.02,-12.94,-10.73,-2.24,0.60,-3.20,-33.00,-30.34,12.33
9597,-4.21,-12.71,-3.14,1.13,-0.65,-1.54,-33.00,-30.34,12.33
9613,-7.53,-4.41,-2.24,1.01,-1.52,-0.16,-33.00,-30.34,12.33
9619,-7.53,-4.41,-2.24,1.01,-1.52,-0.16,-33.00,-30.34,12.33
9630,-6.17,-6.60,1.32,3.19,-1.38,-0.46,-33.00,-30.34,12.33
9641,-6.17,-6.60,1.32,3.19,-1.38,-0.46,-33.00,-30.34,12.33
9652,-5.75,-11.00,3.58,3.22,-0.88,-0.55,-33.00,-30.34,12.33
9663,-5.75,-11.00,3.58,3.22,-0.88,-0.55,-33.00,-30.34,12.33
9674,-6.82,-7.42,1.82,1.33,-0.43,0.10,-27.32,-31.74,19.89
9686,-6.82,-7.42,1.82,1.33,-0.43,0.10,-27.32,-31.74,19.89
9696,-6.17,-7.34,0.63,0.70,-0.11,0.05,-27.32,-31.74,19.89
9707,-6.17,-7.34,0.63,0.70,-0.11,0.05,-27.32,-31.74,19.89
9718,-6.25,-7.54,-0.23,0.65,-0.03,-0.00,-27.32,-31.74,19.89
9729,-6.90,-6.63,0.06,1.33,-0.13,0.11,-27.32,-31.74,19.89
9740,-6.90,-6.63,0.06,1.33,-0.13,0.11,-27.32,-31.74,19.89
9751,-7.50,-6.41,0.49,2.91,-0.11,0.14,-27.32,-31.74,19.89
9762,-7.50,-6.41,0.49,2.91,-0.11,0.14,-27.32,-31.74,19.89
9773,-7.13,-6.68,-0.07,5.25,0.01,0.06,-27.32,-31.74,19.89
9784,-7.13,-6.68,-0.07,5.25,0.01,0.06,-27.32,-31.74,19.89
9795,-6.29,-8.70,3.24,7.25,-0.29,-0.09,-27.32,-31.74,19.89
9806,-6.29,-8.70,3.24,7.25,-0.29,-0.09,-27.32,-31.74,19.89
9817,-7.68,-9.16,6.28,5.45,-0.76,0.08,-28.27,-20.05,30.24
9828,-7.85,-6.33,7.57,3.40,-0.69,0.13,-28.27,-20.05,30.24
9839,-7.85,-6.33,7.57,3.40,-0.69,0.13,-28.27,-20.05,30.24
9850,-7.55,-5.13,7.46,1.93,-0.50,-0.29,-28.27,-20.05,30.24
9861,-7.55,-5.13,7.46,1.93,-0.50,-0.29,-28.27,-20.05,30.24
9872,-6.68,-4.89,6.57,1.07,-0.02,-0.85,-28.27,-20.05,30.24
9883,-6.68,-4.89,6.57,1.07,-0.02,-0.85,-28.27,-20.05,30.24
9894,-2.63,-4.87,5.30,0.59,0.45,-1.16,-28.27,-20.05,30.24
9905,-2.63,-4.87,5.30,0.59,0.45,-1.16,-28.27,-20.05,30.24
9916,-2.26,-4.46,2.42,-1.42,0.56,-0.27,-28.27,-20.05,30.24
9927,-2.26,-4.46,2.42,-1.42,0.56,-0.27,-28.27,-20.05,30.24
9938,-3.60,-2.09,0.37,-1.75,0.42,0.37,-26.95,-16.74,33.36
9949,-3.53,-2.44,1.30,-0.84,0.11,0.20,-26.95,-16.74,33.36
9960,-3.53,-2.44,1.30,-0.84,0.11,0.20,-26.95,-16.74,33.36
9971,-3.84,-4.11,3.63,-0.57,-0.02,0.14,-26.95,-16.74,33.36
9982,-3.84,-4.11,3.63,-0.57,-0.02,0.14,-26.95,-16.74,33.36
9993,-4.07,-0.04,0.64,-1.21,0.22,-0.01,-26.95,-16.74,33.36
10004,-4.07,-0.04,0.64,-1.21,0.22,-0.01,-26.95,-16.74,33.36
10015,-4.75,-4.90,2.83,1.10,0.39,-0.73,-26.95,-16.74,33.36
10026,-4.75,-4.90,2.83,1.10,0.39,-0.73,-26.95,-16.74,33.36
10037,-5.94,-10.63,2.59,4.25,0.64,-0.33,-26.95,-16.74,33.36
10048,-18.63,-19.47,9.27,9.01,0.16,1.19,-25.81,-8.02,34.68
10059,-18.63,-19.47,9.27,9.01,0.16,1.19,-25.81,-8.02,34.68
10070,-4.91,2.95,6.69,3.43,-1.42,1.95,-25.81,-8.02,34.68
10081,-4.91,2.95,6.69,3.43,-1.42,1.95,-25.81,-8.02,34.68
10092,-5.10,0.57,12.74,-1.88,-1.35,-0.40,-25.81,-8.02,34.68
10103,-5.10,0.57,12.74,-1.88,-1.35,-0.40,-25.81,-8.02,34.68
10114,-4.44,-8.96,3.51,0.09,1.01,-0.93,-25.81,-8.02,34.68
10125,-4.44,-8.96,3.51,0.09,1.01,-0.93,-25.81,-8.02,34.68
10136,-6.26,-8.68,3.74,0.87,1.01,0.26,-25.81,-8.02,34.68
10147,-6.26,-8.68,3.74,0.87,1.01,0.26,-25.81,-8.02,34.68
10158,-7.72,-4.40,8.40,1.11,0.51,0.88,-25.81,-8.02,34.68
10169,-7.85,-3.46,7.03,0.29,0.58,0.28,-25.81,-8.02,34.68
10180,-7.85,-3.46,7.03,0.29,0.58,0.28,-25.81,-8.02,34.68
10191,-7.16,-2.83,5.68,-0.14,0.69,-0.49,-28.08,-6.27,34.68
10202,-7.16,-2.83,5.68,-0.14,0.69,-0.49,-28.08,-6.27,34.68
10213,-5.88,-1.00,2.40,0.65,0.87,-0.99,-28.08,-6.27,34.68
10225,-5.88,-1.00,2.40,0.65,0.87,-0.99,-28.08,-6.27,34.68
10235,-4.01,-2.41,3.54,3.51,0.62,-1.07,-28.08,-6.27,34.68
10246,-4.01,-2.41,3.54,3.51,0.62,-1.07,-28.08,-6.27,34.68
10257,-3.62,-4.41,8.29,2.72,0.29,-0.35,-28.08,-6.27,34.68
10268,-5.43,0.03,4.96,-1.50,0.56,0.08,-28.08,-6.27,34.68
10279,-5.43,0.03,4.96,-1.50,0.56,0.08,-28.08,-6.27,34.68
10290,-7.38,-0.64,4.58,-1.06,0.94,-0.46,-28.08,-6.27,34.68
10301,-7.38,-0.64,4.58,-1.06,0.94,-0.46,-28.08,-6.27,34.68
10312,-13.62,-11.77,13.27,-0.41,0.77,-0.13,-32.24,-4.88,31.72
10323,-13.62,-11.77,13.27,-0.41,0.77,-0.13,-32.24,-4.88,31.72
10334,-7.88,-2.24,3.41,-1.47,0.73,0.64,-32.24,-4.88,31.72
10345,-7.88,-2.24,3.41,-1.47,0.73,0.64,-32.24,-4.88,31.72
10356,-5.79,-4.53,5.69,-0.03,0.14,-0.08,-32.24,-4.88,31.72
10367,-5.79,-4.53,5.69,-0.03,0.14,-0.08,-32.24,-4.88,31.72
10378,-6.25,-5.74,5.59,0.31,0.27,0.11,-32.24,-4.88,31.72
10389,-6.67,-2.95,4.75,-0.25,0.29,0.47,-32.24,-4.88,31.72
10400,-6.67,-2.95,4.75,-0.25,0.29,0.47,-32.24,-4.88,31.72
10411,-5.91,-3.99,5.36,-0.04,0.28,0.25,-32.24,-4.88,31.72
10422,-5.91,-3.99,5.36,-0.04,0.28,0.25,-32.24,-4.88,31.72
10433,-5.40,-5.03,3.46,0.04,0.45,-0.03,-33.57,-4.35,30.90
10444,-5.40,-5.03,3.46,0.04,0.45,-0.03,-33.57,-4.35,30.90
10455,-5.45,-4.33,3.40,0.29,0.35,-0.06,-33.57,-4.35,30.90
10466,-5.45,-4.33,3.40,0.29,0.35,-0.06,-33.57,-4.35,30.90
10477,-5.90,-3.62,4.29,0.17,0.38,-0.01,-33.57,-4.35,30.90
10488,-6.09,-3.06,3.55,-0.50,0.47,0.11,-33.57,-4.35,30.90
10499,-6.09,-3.06,3.55,-0.50,0.47,0.11,-33.57,-4.35,30.90
10510,-8.48,-3.47,2.83,-1.09,0.28,0.20,-33.57,-4.35,30.90
10521,-8.48,-3.47,2.83,-1.09,0.28,0.20,-33.57,-4.35,30.90
10532,-10.94,-8.25,6.88,-0.82,-0.54,0.40,-33.57,-4.35,30.90
10543,-10.94,-8.25,6.88,-0.82,-0.54,0.40,-33.57,-4.35,30.90
10554,-6.63,-2.18,4.81,-0.72,-0.94,0.69,-33.57,-4.35,30.90
10565,-6.63,-2.18,4.81,-0.72,-0.94,0.69,-33.57,-4.35,30.90
10576,-6.46,-3.14,6.44,-0.28,-0.80,0.25,-32.81,-6.10,32.21
10587,-6.46,-3.14,6.44,-0.28,-0.80,0.25,-32.81,-6.10,32.21
10598,-6.99,-4.11,5.23,-0.14,-0.33,0.10,-32.81,-6.10,32.21
10609,-8.08,-4.80,6.00,-0.11,-0.04,0.15,-32.81,-6.10,32.21
10620,-8.08,-4.80,6.00,-0.11,-0.04,0.15,-32.81,-6.10,32.21
10631,-7.19,-4.23,5.27,-0.30,-0.00,0.18,-32.81,-6.10,32.21
10642,-7.19,-4.23,5.27,-0.30,-0.00,0.18,-32.81,-6.10,32.21
10653,-7.11,-3.81,4.81,-0.26,-0.00,0.16,-32.81,-6.10,32.21
10664,-7.11,-3.81,4.81,-0.26,-0.00,0.16,-32.81,-6.10,32.21
10675,-7.26,-3.18,4.55,0.00,0.04,0.14,-32.81,-6.10,32.21
10686,-7.26,-3.18,4.55,0.00,0.04,0.14,-32.81,-6.10,32.21
10697,-7.62,-4.12,5.11,0.39,0.12,0.10,-32.43,-5.75,31.23
10708,-7.62,-4.12,5.11,0.39,0.12,0.10,-32.43,-5.75,31.23
10719,-7.24,-4.05,5.55,0.23,0.14,0.04,-32.43,-5.75,31.23
10730,-7.26,-4.10,4.48,-0.01,0.27,0.02,-32.43,-5.75,31.23
10741,-7.26,-4.10,4.48,-0.01,0.27,0.02,-32.43,-5.75,31.23
10752,-7.45,-3.97,4.70,0.15,0.20,0.12,-32.43,-5.75,31.23
10763,-7.45,-3.97,4.70,0.15,0.20,0.12,-32.43,-5.75,31.23
10774,-7.77,-3.85,5.11,0.29,0.09,0.15,-32.43,-5.75,31.23
10785,-7.77,-3.85,5.11,0.29,0.09,0.15,-32.43,-5.75,31.23
10796,-7.83,-3.83,5.33,0.22,0.01,0.05,-32.43,-5.75,31.23
10807,-7.83,-3.83,5.33,0.22,0.01,0.05,-32.43,-5.75,31.23
10818,-7.32,-3.95,5.17,-0.04,-0.03,-0.03,-33.19,-3.66,30.57
10829,-7.19,-4.07,5.16,-0.09,0.03,-0.03,-33.19,-3.66,30.57
10840,-7.19,-4.07,5.16,-0.09,0.03,-0.03,-33.19,-3.66,30.57
10851,-7.20,-3.89,5.00,-0.12,0.10,0.03,-33.19,-3.66,30.57
10862,-7.20,-3.89,5.00,-0.12,0.10,0.03,-33.19,-3.66,30.57
10873,-6.99,-4.22,4.88,-0.01,0.14,0.11,-33.19,-3.66,30.57
10884,-6.99,-4.22,4.88,-0.01,0.14,0.11,-33.19,-3.66,30.57
10895,-7.80,-3.65,4.94,0.02,0.12,0.16,-33.19,-3.66,30.57
10906,-7.80,-3.65,4.94,0.02,0.12,0.16,-33.19,-3.66,30.57
10918,-7.49,-3.79,4.63,-0.06,0.01,0.08,-33.19,-3.66,30.57
10928,-7.49,-3.79,4.63,-0.06,0.01,0.08,-33.19,-3.66,30.57
10939,-7.44,-4.01,4.72,0.07,-0.06,0.05,-32.24,-5.23,31.06
10950,-7.55,-4.15,4.86,0.20,-0.11,0.02,-32.24,-5.23,31.06
10961,-7.55,-4.15,4.86,0.20,-0.11,0.02,-32.24,-5.23,31.06
10972,-7.45,-3.99,4.86,0.24,-0.09,0.06,-32.24,-5.23,31.06
10983,-7.45,-3.99,4.86,0.24,-0.09,0.06,-32.24,-5.23,31.06
10994,-7.97,-4.16,4.31,0.38,0.04,0.10,-32.24,-5.23,31.06
11005,-7.97,-4.16,4.31,0.38,0.04,0.10,-32.24,-5.23,31.06
11016,-8.33,-3.72,5.27,0.57,0.08,0.07,-32.24,-5.23,31.06
11027,-8.33,-3.72,5.27,0.57,0.08,0.07,-32.24,-5.23,31.06
11038,-8.62,-3.56,6.41,1.08,0.22,-0.14,-32.24,-5.23,31.06
11049,-9.63,-3.93,6.57,1.39,0.43,-0.37,-32.24,-5.23,31.06
11060,-9.63,-3.93,6.57,1.39,0.43,-0.37,-32.24,-5.23,31.06
11071,-8.31,-3.08,6.18,0.89,0.37,-0.43,-34.70,-2.26,29.26
11082,-8.31,-3.08,6.18,0.89,0.37,-0.43,-34.70,-2.26,29.26
11093,-8.27,-1.78,5.48,0.15,0.42,-0.30,-34.70,-2.26,29.26
11104,-8.27,-1.78,5.48,0.15,0.42,-0.30,-34.70,-2.26,29.26
11115,-9.47,-2.87,4.42,-0.21,0.41,-0.09,-34.70,-2.26,29.26
11126,-9.47,-2.87,4.42,-0.21,0.41,-0.09,-34.70,-2.26,29.26
11137,-8.36,-2.96,4.76,-0.37,-0.03,-0.09,-34.70,-2.26,29.26
11148,-8.36,-2.96,4.76,-0.37,-0.03,-0.09,-34.70,-2.26,29.26
11159,-7.53,-3.49,4.67,-0.32,-0.27,-0.33,-34.70,-2.26,29.26
11170,-6.22,-4.45,4.37,-0.30,-0.33,-0.37,-34.70,-2.26,29.26
11181,-6.22,-4.45,4.37,-0.30,-0.33,-0.37,-34.70,-2.26,29.26
11192,-5.21,-4.36,4.15,-0.40,-0.35,-0.18,-33.76,-4.53,30.41
11203,-5.21,-4.36,4.15,-0.40,-0.35,-0.18,-33.76,-4.53,30.41
11214,-4.73,-4.01,4.61,-0.38,-0.32,-0.05,-33.76,-4.53,30.41
11225,-4.73,-4.01,4.61,-0.38,-0.32,-0.05,-33.76,-4.53,30.41
11236,-4.56,-3.66,4.31,-0.62,-0.25,-0.17,-33.76,-4.53,30.41
11247,-4.56,-3.66,4.31,-0.62,-0.25,-0.17,-33.76,-4.53,30.41
11258,-4.44,-4.51,4.51,-0.50,-0.23,-0.43,-33.76,-4.53,30.41
11269,-4.75,-4.74,4.97,-0.39,-0.21,-0.62,-33.76,-4.53,30.41
11280,-4.75,-4.74,4.97,-0.39,-0.21,-0.62,-33.76,-4.53,30.41
11291,-5.05,-4.68,5.08,-0.21,-0.11,-0.69,-33.76,-4.53,30.41
11302,-5.05,-4.68,5.08,-0.21,-0.11,-0.69,-33.76,-4.53,30.41
11313,-6.11,-4.17,4.88,0.03,0.00,-0.47,-33.38,-6.62,31.72
11324,-6.11,-4.17,4.88,0.03,0.00,-0.47,-33.38,-6.62,31.72
11335,-6.45,-3.43,4.91,-0.05,-0.02,-0.19,-33.38,-6.62,31.72
11346,-6.45,-3.43,4.91,-0.05,-0.02,-0.19,-33.38,-6.62,31.72
11357,-6.57,-2.67,4.55,-0.13,-0.04,-0.09,-33.38,-6.62,31.72
11368,-6.57,-2.67,4.55,-0.13,-0.04,-0.09,-33.38,-6.62,31.72
11379,-6.47,-2.72,4.75,-0.07,-0.03,-0.14,-33.38,-6.62,31.72
11390,-7.12,-3.60,5.33,-0.19,0.18,-0.21,-33.38,-6.62,31.72
11401,-7.12,-3.60,5.33,-0.19,0.18,-0.21,-33.38,-6.62,31.72
11412,-16.67,-14.98,12.68,0.56,0.39,0.29,-33.38,-6.62,31.72
11423,-16.67,-14.98,12.68,0.56,0.39,0.29,-33.38,-6.62,31.72
11434,-8.18,0.40,2.22,-0.86,0.07,0.89,-33.38,-6.62,31.72
11445,-8.18,0.40,2.22,-0.86,0.07,0.89,-33.38,-6.62,31.72
11457,-4.76,-4.25,7.19,-0.03,-0.41,-0.25,-33.19,-6.45,31.56
11467,-4.76,-4.25,7.19,-0.03,-0.41,-0.25,-33.19,-6.45,31.56
11478,-4.93,-3.51,1.42,0.30,0.32,-0.09,-33.19,-6.45,31.56
11489,-8.83,-4.60,4.35,0.87,0.08,0.33,-33.19,-6.45,31.56
11505,-8.83,-4.60,4.35,0.87,0.08,0.33,-33.19,-6.45,31.56
11511,-8.23,-5.48,7.01,0.80,-0.27,0.33,-33.19,-6.45,31.56
11522,-8.23,-5.48,7.01,0.80,-0.27,0.33,-33.19,-6.45,31.56
11533,-6.17,-4.80,5.44,0.75,-0.21,0.16,-33.19,-6.45,31.56
11544,-6.17,-4.80,5.44,0.75,-0.21,0.16,-33.19,-6.45,31.56
11555,-5.68,-4.42,5.81,1.10,-0.06,0.06,-33.19,-6.45,31.56
11566,-5.68,-4.42,5.81,1.10,-0.06,0.06,-33.19,-6.45,31.56
11577,-6.74,-3.57,5.54,0.87,0.19,0.02,-31.49,-2.44,31.72
11588,-6.74,-3.57,5.54,0.87,0.19,0.02,-31.49,-2.44,31.72
11599,-7.94,-2.88,5.26,0.81,0.29,-0.03,-31.49,-2.44,31.72
11610,-8.57,-2.10,4.72,0.57,0.22,-0.13,-31.49,-2.44,31.72
11621,-8.57,-2.10,4.72,0.57,0.22,-0.13,-31.49,-2.44,31.72
11632,-7.74,-2.20,5.05,0.78,-0.04,-0.25,-31.49,-2.44,31.72
11643,-7.74,-2.20,5.05,0.78,-0.04,-0.25,-31.49,-2.44,31.72
11654,-8.01,-4.22,6.60,0.23,-0.13,-0.24,-31.49,-2.44,31.72
11665,-8.01,-4.22,6.60,0.23,-0.13,-0.24,-31.49,-2.44,31.72
11676,-7.08,-4.82,5.90,-1.24,-0.08,-0.07,-31.49,-2.44,31.72
11687,-7.08,-4.82,5.90,-1.24,-0.08,-0.07,-31.49,-2.44,31.72
11698,-6.52,-4.18,5.62,-1.50,0.00,0.14,-32.24,-3.83,31.06
11709,-6.84,-5.04,5.07,-0.78,0.11,0.28,-32.24,-3.83,31.06
11720,-6.84,-5.04,5.07,-0.78,0.11,0.28,-32.24,-3.83,31.06
11731,-7.05,-4.29,4.38,-0.23,0.03,0.57,-32.24,-3.83,31.06
11742,-7.05,-4.29,4.38,-0.23,0.03,0.57,-32.24,-3.83,31.06
11753,-6.83,-3.64,5.08,0.38,-0.05,0.84,-32.24,-3.83,31.06
11764,-6.83,-3.64,5.08,0.38,-0.05,0.84,-32.24,-3.83,31.06
11775,-7.44,-2.96,5.75,0.52,0.01,0.76,-32.24,-3.83,31.06
11786,-7.44,-2.96,5.75,0.52,0.01,0.76,-32.24,-3.83,31.06
11797,-7.57,-3.21,5.56,0.40,0.12,0.42,-32.24,-3.83,31.06
11808,-7.57,-3.21,5.56,0.40,0.12,0.42,-32.24,-3.83,31.06
11819,-8.06,-3.00,5.02,0.23,0.16,0.17,-32.24,-3.83,31.06
11830,-7.57,-3.23,5.26,0.19,0.03,0.09,-33.19,-0.87,31.56
11841,-7.57,-3.23,5.26,0.19,0.03,0.09,-33.19,-0.87,31.56
11852,-7.21,-3.62,5.62,0.13,0.00,0.09,-33.19,-0.87,31.56
11863,-7.21,-3.62,5.62,0.13,0.00,0.09,-33.19,-0.87,31.56
11874,-7.32,-3.70,5.46,0.08,0.07,0.08,-33.19,-0.87,31.56
11885,-7.32,-3.70,5.46,0.08,0.07,0.08,-33.19,-0.87,31.56
11896,-7.41,-3.44,5.13,0.08,0.08,0.12,-33.19,-0.87,31.56
11907,-7.41,-3.44,5.13,0.08,0.08,0.12,-33.19,-0.87,31.56
11918,-7.91,-3.01,5.14,0.12,0.06,0.15,-33.19,-0.87,31.56
11929,-7.57,-2.97,5.33,0.03,0.02,0.12,-33.19,-0.87,31.56
11940,-7.57,-2.97,5.33,0.03,0.02,0.12,-33.19,-0.87,31.56
11951,-7.72,-2.98,5.28,-0.00,0.06,0.09,-32.05,0.88,30.57
11962,-7.72,-2.98,5.28,-0.00,0.06,0.09,-32.05,0.88,30.57
11973,-7.36,-3.14,5.47,-0.04,0.02,0.06,-32.05,0.88,30.57
11984,-7.36,-3.14,5.47,-0.04,0.02,0.06,-32.05,0.88,30.57
11995,-7.41,-3.28,5.10,-0.03,-0.00,0.05,-32.05,0.88,30.57
12006,-7.41,-3.28,5.10,-0.03,-0.00,0.05,-32.05,0.88,30.57
12017,-7.81,-3.24,5.25,0.24,-0.04,0.07,-32.05,0.88,30.57
12033,-7.81,-3.24,5.25,0.24,-0.04,0.07,-32.05,0.88,30.57
12039,-7.61,-3.14,5.66,0.20,-0.10,0.09,-32.05,0.88,30.57
12050,-7.53,-3.02,5.42,-0.02,-0.02,0.08,-32.05,0.88,30.57
12061,-7.53,-3.02,5.42,-0.02,-0.02,0.08,-32.05,0.88,30.57
12072,-7.43,-2.98,5.44,-0.11,0.01,0.08,-34.13,0.70,29.75
12083,-7.43,-2.98,5.44,-0.11,0.01,0.08,-34.13,0.70,29.75
12094,-7.14,-3.40,5.37,-0.06,0.04,0.08,-34.13,0.70,29.75
12105,-7.14,-3.40,5.37,-0.06,0.04,0.08,-34.13,0.70,29.75
12116,-7.86,-3.09,5.10,0.11,0.08,0.10,-34.13,0.70,29.75
12127,-7.86,-3.09,5.10,0.11,0.08,0.10,-34.13,0.70,29.75
12138,-7.83,-2.87,5.28,0.15,0.03,0.09,-34.13,0.70,29.75
12149,-7.83,-2.87,5.28,0.15,0.03,0.09,-34.13,0.70,29.75
12160,-7.90,-2.73,5.13,0.05,0.00,0.07,-34.13,0.70,29.75
12171,-7.48,-3.01,5.38,-0.03,-0.03,0.07,-34.13,0.70,29.75
12182,-7.48,-3.01,5.38,-0.03,-0.03,0.07,-34.13,0.70,29.75
12193,-7.37,-3.27,5.39,-0.02,-0.02,0.06,-35.08,1.92,31.23
12204,-7.37,-3.27,5.39,-0.02,-0.02,0.06,-35.08,1.92,31.23
12215,-7.18,-3.29,5.50,0.08,0.02,0.07,-35.08,1.92,31.23
12226,-7.18,-3.29,5.50,0.08,0.02,0.07,-35.08,1.92,31.23
12237,-7.53,-3.09,5.34,0.16,0.10,0.10,-35.08,1.92,31.23
12248,-7.53,-3.09,5.34,0.16,0.10,0.10,-35.08,1.92,31.23
12259,-7.48,-2.91,5.24,0.20,0.12,0.14,-35.08,1.92,31.23
12270,-7.71,-2.88,5.14,0.25,0.16,0.20,-35.08,1.92,31.23
12281,-7.71,-2.88,5.14,0.25,0.16,0.20,-35.08,1.92,31.23
12292,-7.95,-2.55,4.98,0.29,0.11,0.19,-35.08,1.92,31.23
12303,-7.95,-2.55,4.98,0.29,0.11,0.19,-35.08,1.92,31.23
12314,-7.73,-2.65,5.32,0.33,0.05,0.15,-35.08,1.92,31.23
12325,-7.73,-2.65,5.32,0.33,0.05,0.15,-35.08,1.92,31.23
12336,-8.01,-2.58,5.04,0.35,0.04,0.13,-33.76,1.75,31.06
12347,-8.01,-2.58,5.04,0.35,0.04,0.13,-33.76,1.75,31.06
12358,-7.89,-2.31,5.70,0.35,-0.01,0.13,-33.76,1.75,31.06
12369,-7.89,-2.31,5.70,0.35,-0.01,0.13,-33.76,1.75,31.06
12380,-7.80,-2.60,5.47,0.04,0.01,0.05,-33.76,1.75,31.06
12391,-7.76,-2.80,5.48,-0.06,0.02,0.03,-33.76,1.75,31.06
12402,-7.76,-2.80,5.48,-0.06,0.02,0.03,-33.76,1.75,31.06
12413,-7.79,-2.60,5.32,-0.14,0.03,0.07,-33.76,1.75,31.06
12424,-7.79,-2.60,5.32,-0.14,0.03,0.07,-33.76,1.75,31.06
12435,-7.85,-2.54,5.22,-0.20,0.01,0.11,-33.76,1.75,31.06
12446,-7.85,-2.54,5.22,-0.20,0.01,0.11,-33.76,1.75,31.06
12457,-7.84,-2.26,5.27,-0.14,-0.00,0.10,-33.57,2.27,29.91
12468,-7.84,-2.26,5.27,-0.14,-0.00,0.10,-33.57,2.27,29.91
12479,-7.95,-2.25,5.60,-0.14,0.01,0.06,-33.57,2.27,29.91
12490,-7.84,-2.49,5.67,-0.32,0.05,0.01,-33.57,2.27,29.91
12501,-7.84,-2.49,5.67,-0.32,0.05,0.01,-33.57,2.27,29.91
12512,-7.87,-2.80,5.14,-0.51,0.08,-0.02,-33.57,2.27,29.91
12523,-7.87,-2.80,5.14,-0.51,0.08,-0.02,-33.57,2.27,29.91
12534,-7.97,-2.40,5.11,-0.57,0.08,0.09,-33.57,2.27,29.91
12545,-7.97,-2.40,5.11,-0.57,0.08,0.09,-33.57,2.27,29.91
12556,-7.88,-2.76,5.54,-0.62,0.06,0.20,-33.57,2.27,29.91
12567,-7.88,-2.76,5.54,-0.62,0.06,0.20,-33.57,2.27,29.91
12578,-7.71,-3.16,4.97,-0.74,0.05,0.30,-33.19,0.88,30.24
12589,-7.71,-3.16,4.97,-0.74,0.05,0.30,-33.19,0.88,30.24
12600,-8.02,-2.86,5.12,-0.73,0.01,0.42,-33.19,0.88,30.24
12611,-7.54,-3.09,5.01,-0.60,0.00,0.36,-33.19,0.88,30.24
12622,-7.54,-3.09,5.01,-0.60,0.00,0.36,-33.19,0.88,30.24
12633,-7.73,-2.81,5.08,-0.41,-0.01,0.29,-33.19,0.88,30.24
12644,-7.73,-2.81,5.08,-0.41,-0.01,0.29,-33.19,0.88,30.24
12655,-7.71,-3.36,4.60,-0.24,-0.03,0.24,-33.19,0.88,30.24
12666,-7.71,-3.36,4.60,-0.24,-0.03,0.24,-33.19,0.88,30.24
12677,-7.60,-2.96,5.04,-0.24,-0.12,0.24,-33.19,0.88,30.24
12688,-7.60,-2.96,5.04,-0.24,-0.12,0.24,-33.19,0.88,30.24
12699,-7.36,-3.40,4.66,-0.40,-0.14,0.16,-33.19,0.88,30.24
12710,-7.37,-3.59,4.82,-0.35,-0.22,0.19,-32.43,-1.21,30.24
12721,-7.37,-3.59,4.82,-0.35,-0.22,0.19,-32.43,-1.21,28.93
12732,-7.54,-3.00,4.91,-0.17,-0.27,0.13,-32.43,-1.21,28.93
12743,-7.54,-3.00,4.91,-0.17,-0.27,0.13,-32.43,-1.21,28.93
12754,-8.18,-1.63,6.10,-0.19,-0.26,0.05,-32.43,-1.21,28.93
12765,-8.18,-1.63,6.10,-0.19,-0.26,0.05,-32.43,-1.21,28.93
12776,-7.62,-2.87,5.21,-0.12,-0.03,-0.16,-32.43,-1.21,28.93
12787,-7.62,-2.87,5.21,-0.12,-0.03,-0.16,-32.43,-1.21,28.93
12798,-8.04,-2.78,5.18,0.02,0.09,-0.22,-32.43,-1.21,28.93
12809,-8.04,-2.78,5.18,0.02,0.09,-0.22,-32.43,-1.21,28.93
12820,-8.01,-2.78,4.44,0.09,0.13,-0.24,-32.43,-1.21,28.93
12831,-8.28,-2.68,5.33,0.27,0.10,-0.26,-33.94,-1.21,31.23
12842,-8.28,-2.68,5.33,0.27,0.10,-0.26,-33.94,-1.21,31.23
12853,-8.16,-2.97,4.91,0.15,0.14,-0.29,-33.94,-1.21,31.23
12864,-8.16,-2.97,4.91,0.15,0.14,-0.29,-33.94,-1.21,31.23
12875,-7.74,-3.20,4.84,-0.05,0.20,-0.33,-33.94,-1.21,31.23
12886,-7.74,-3.20,4.84,-0.05,0.20,-0.33,-33.94,-1.21,31.23
12902,-7.75,-3.45,5.34,-0.10,0.21,-0.27,-33.94,-1.21,31.23
12908,-7.75,-3.45,5.34,-0.10,0.21,-0.27,-33.94,-1.21,31.23
12919,-7.60,-3.76,4.59,-0.12,0.19,-0.16,-33.94,-1.21,31.23
12930,-7.60,-3.76,4.59,-0.12,0.19,-0.16,-33.94,-1.21,31.23
12941,-7.74,-3.64,4.69,0.06,0.11,0.01,-33.94,-1.21,31.23
12952,-7.72,-3.24,5.12,0.14,0.06,0.16,-34.32,-0.17,30.24
12963,-7.72,-3.24,5.12,0.14,0.06,0.16,-34.32,-0.17,30.24
12974,-7.81,-3.32,5.12,0.13,0.05,0.24,-34.32,-0.17,30.24
12985,-7.81,-3.32,5.12,0.13,0.05,0.24,-34.32,-0.17,30.24
12996,-7.91,-2.85,5.01,0.14,0.08,0.27,-34.32,-0.17,30.24
13007,-7.91,-2.85,5.01,0.14,0.08,0.27,-34.32,-0.17,30.24
13018,-8.02,-2.42,5.07,0.19,0.09,0.25,-34.32,-0.17,30.24
13029,-8.02,-2.42,5.07,0.19,0.09,0.25,-34.32,-0.17,30.24
13040,-7.97,-2.77,4.86,0.20,0.11,0.18,-34.32,-0.17,30.24
13051,-8.06,-2.45,4.70,0.11,0.13,0.15,-34.32,-0.17,30.24
13062,-8.06,-2.45,4.70,0.11,0.13,0.15,-34.32,-0.17,30.24
13073,-8.16,-2.61,5.83,0.14,0.11,0.12,-34.32,-0.17,30.24
13084,-8.16,-2.61,5.83,0.14,0.11,0.12,-34.32,-0.17,30.24
13095,-7.90,-3.57,4.73,0.01,0.17,0.07,-34.70,0.53,29.26
13106,-7.90,-3.57,4.73,0.01,0.17,0.07,-34.70,0.53,29.26
13117,-7.91,-3.26,4.32,0.06,0.15,0.10,-34.70,0.53,29.26
13128,-7.91,-3.26,4.32,0.06,0.15,0.10,-34.70,0.53,29.26
13144,-8.05,-2.79,4.48,0.12,0.10,0.13,-34.70,0.53,29.26
13150,-8.05,-2.79,4.48,0.12,0.10,0.13,-34.70,0.53,29.26
13161,-8.13,-3.13,5.31,0.17,0.06,0.15,-34.70,0.53,29.26
13172,-8.10,-2.91,4.78,0.22,0.12,0.22,-34.70,0.53,29.26
13183,-8.10,-2.91,4.78,0.22,0.12,0.22,-34.70,0.53,29.26
13194,-8.08,-2.34,4.18,0.42,0.13,0.27,-34.70,0.53,29.26
13205,-8.08,-2.34,4.18,0.42,0.13,0.27,-34.70,0.53,29.26
13217,-8.25,-1.55,4.88,0.56,0.05,0.23,-35.46,1.23,29.58
13227,-8.25,-1.55,4.88,0.56,0.05,0.23,-35.46,1.23,29.58
13238,-8.28,-1.20,4.80,0.28,-0.03,0.06,-35.46,1.23,29.58
13249,-8.28,-1.20,4.80,0.28,-0.03,0.06,-35.46,1.23,29.58
13260,-8.18,-1.79,4.44,-0.04,-0.08,-0.14,-35.46,1.23,29.58
13271,-8.13,-2.34,4.52,-0.05,-0.13,-0.27,-35.46,1.23,29.58
13282,-8.13,-2.34,4.52,-0.05,-0.13,-0.27,-35.46,1.23,29.58
13293,-8.05,-3.30,5.18,0.19,-0.14,-0.28,-35.46,1.23,29.58
13304,-8.05,-3.30,5.18,0.19,-0.14,-0.28,-35.46,1.23,29.58
13315,-8.35,-2.24,5.12,0.19,-0.10,-0.17,-35.46,1.23,29.58
13326,-8.35,-2.24,5.12,0.19,-0.10,-0.17,-35.46,1.23,29.58
13337,-8.22,-2.77,5.43,-0.22,-0.02,-0.19,-35.27,1.40,28.76
13348,-8.22,-2.77,5.43,-0.22,-0.02,-0.19,-35.27,1.40,28.76
13359,-7.91,-2.87,4.41,-0.54,0.08,-0.12,-35.27,1.40,28.76
13370,-7.91,-2.87,4.41,-0.54,0.08,-0.12,-35.27,1.40,28.76
13381,-7.84,-2.60,4.61,-0.38,0.05,0.01,-35.27,1.40,28.76
13392,-8.29,-2.77,4.44,-0.21,-0.00,0.03,-35.27,1.40,28.76
13403,-8.29,-2.77,4.44,-0.21,-0.00,0.03,-35.27,1.40,28.76
13414,-8.10,-2.65,5.11,-0.18,-0.02,0.09,-35.27,1.40,28.76
13425,-8.10,-2.65,5.11,-0.18,-0.02,0.09,-35.27,1.40,28.76
13436,-8.17,-2.37,5.06,-0.26,0.03,0.13,-35.27,1.40,28.76
13447,-8.17,-2.37,5.06,-0.26,0.03,0.13,-35.27,1.40,28.76
13458,-7.99,-2.33,4.88,-0.38,0.04,0.13,-35.46,1.23,29.26
13469,-7.99,-2.33,4.88,-0.38,0.04,0.13,-35.46,1.23,29.26
13480,-8.18,-2.57,4.59,-0.46,0.00,0.16,-35.46,1.23,29.26
13491,-8.52,-2.63,5.42,-0.43,0.02,0.23,-35.46,1.23,29.26
13502,-8.52,-2.63,5.42,-0.43,0.02,0.23,-35.46,1.23,29.26
13513,-8.25,-2.82,4.87,-0.54,0.05,0.32,-35.46,1.23,29.26
13524,-8.25,-2.82,4.87,-0.54,0.05,0.32,-35.46,1.23,29.26
13535,-8.31,-2.20,5.05,-0.58,-0.02,0.49,-35.46,1.23,29.26
13546,-8.31,-2.20,5.05,-0.58,-0.02,0.49,-35.46,1.23,29.26
13557,-7.77,-2.06,4.31,-0.61,-0.04,0.42,-35.46,1.23,29.26
13568,-7.77,-2.06,4.31,-0.61,-0.04,0.42,-35.46,1.23,29.26
13579,-7.92,-2.72,4.59,-0.37,-0.13,0.25,-35.46,1.23,29.26
13590,-7.92,-2.72,4.59,-0.37,-0.13,0.25,-35.46,1.23,29.26
13601,-7.53,-2.91,4.72,-0.21,-0.17,0.08,-36.03,0.70,28.11
13612,-7.90,-3.19,5.57,-0.03,-0.18,-0.14,-36.03,0.70,28.11
13623,-7.90,-3.19,5.57,-0.03,-0.18,-0.14,-36.03,0.70,28.11
13634,-8.06,-4.01,4.69,0.03,-0.13,-0.21,-36.03,0.70,28.11
13645,-8.06,-4.01,4.69,0.03,-0.13,-0.21,-36.03,0.70,28.11
13656,-7.97,-3.74,4.27,0.18,-0.06,-0.16,-36.03,0.70,28.11
13667,-7.97,-3.74,4.27,0.18,-0.06,-0.16,-36.03,0.70,28.11
13678,-8.19,-3.30,4.42,0.45,-0.04,-0.07,-36.03,0.70,28.11
13689,-8.19,-3.30,4.42,0.45,-0.04,-0.07,-36.03,0.70,28.11
13700,-8.34,-2.77,4.45,0.51,0.01,-0.07,-36.03,0.70,28.11
13711,-8.43,-2.78,4.37,0.39,0.02,-0.12,-35.27,0.36,29.09
13722,-8.43,-2.78,4.37,0.39,0.02,-0.12,-35.27,0.36,29.09
13733,-8.35,-2.41,4.94,0.23,-0.00,-0.06,-35.27,0.36,29.09
13744,-8.35,-2.41,4.94,0.23,-0.00,-0.06,-35.27,0.36,29.09
13755,-8.46,-2.25,5.17,0.13,0.03,-0.07,-35.27,0.36,29.09
13766,-8.46,-2.25,5.17,0.13,0.03,-0.07,-35.27,0.36,29.09
13777,-8.34,-2.40,4.36,-0.09,0.11,-0.14,-35.27,0.36,29.09
13788,-8.34,-2.40,4.36,-0.09,0.11,-0.14,-35.27,0.36,29.09
13799,-8.33,-2.59,4.94,-0.06,0.10,-0.16,-35.27,0.36,29.09
13810,-8.33,-2.59,4.94,-0.06,0.10,-0.16,-35.27,0.36,29.09
13821,-7.88,-2.83,4.24,-0.12,0.11,-0.18,-35.27,0.36,29.09
13832,-8.36,-2.86,5.13,-0.04,0.06,-0.14,-34.70,-0.17,27.94
13843,-8.36,-2.86,5.13,-0.04,0.06,-0.14,-34.70,-0.17,27.94
13854,-7.83,-3.21,3.98,-0.15,0.09,-0.11,-34.70,-0.17,27.94
13865,-7.83,-3.21,3.98,-0.15,0.09,-0.11,-34.70,-0.17,27.94
13876,-8.45,-2.62,5.34,0.08,0.02,-0.01,-34.70,-0.17,27.94
13887,-8.45,-2.62,5.34,0.08,0.02,-0.01,-34.70,-0.17,27.94
13898,-7.99,-2.93,4.50,-0.21,0.10,-0.01,-34.70,-0.17,27.94
13910,-7.99,-2.93,4.50,-0.21,0.10,-0.01,-34.70,-0.17,27.94
13920,-8.14,-2.83,4.57,-0.08,0.08,0.01,-34.70,-0.17,27.94
13931,-8.22,-2.58,4.40,-0.00,0.04,0.02,-34.70,-0.17,27.94
13942,-8.22,-2.58,4.40,-0.00,0.04,0.02,-34.70,-0.17,27.94
13953,-8.17,-2.33,4.55,-0.01,0.02,0.03,-34.70,-0.17,27.94
13964,-8.17,-2.33,4.55,-0.01,0.02,0.03,-34.70,-0.17,27.94
13975,-8.47,-2.63,4.71,-0.08,0.01,0.05,-35.65,0.70,30.08
13986,-8.47,-2.63,4.71,-0.08,0.01,0.05,-35.65,0.70,30.08
13997,-8.40,-2.66,4.53,-0.23,0.06,0.06,-35.65,0.70,30.08
14008,-8.40,-2.66,4.53,-0.23,0.06,0.06,-35.65,0.70,30.08
14019,-8.37,-2.30,4.50,-0.36,0.08,0.12,-35.65,0.70,30.08
14030,-8.37,-2.30,4.50,-0.36,0.08,0.12,-35.65,0.70,30.08
14041,-7.87,-2.52,4.16,-0.43,0.05,0.14,-35.65,0.70,30.08
14052,-7.96,-2.77,4.78,-0.41,-0.04,0.14,-35.65,0.70,30.08
14063,-7.96,-2.77,4.78,-0.41,-0.04,0.14,-35.65,0.70,30.08
14074,-7.84,-2.95,4.50,-0.31,-0.06,0.12,-35.65,0.70,30.08
14085,-7.84,-2.95,4.50,-0.31,-0.06,0.12,-35.65,0.70,30.08
14096,-7.74,-3.35,4.68,-0.19,-0.10,0.12,-33.94,-1.56,29.26
14107,-7.74,-3.35,4.68,-0.19,-0.10,0.12,-33.94,-1.56,29.26
14118,-8.06,-3.43,4.83,-0.16,-0.15,0.19,-33.94,-1.56,29.26
14129,-8.06,-3.43,4.83,-0.16,-0.15,0.19,-33.94,-1.56,29.26
14140,-7.85,-3.13,4.83,-0.17,-0.14,0.19,-33.94,-1.56,29.26
14151,-7.85,-3.13,4.83,-0.17,-0.14,0.19,-33.94,-1.56,29.26
14162,-8.26,-3.08,4.82,-0.11,-0.11,0.12,-33.94,-1.56,29.26
14173,-7.98,-3.06,4.18,-0.00,-0.06,0.06,-33.94,-1.56,29.26
14184,-7.98,-3.06,4.18,-0.00,-0.06,0.06,-33.94,-1.56,29.26
14195,-8.13,-2.85,4.63,0.10,-0.06,-0.00,-33.94,-1.56,29.26
14206,-8.13,-2.85,4.63,0.10,-0.06,-0.00,-33.94,-1.56,29.26
14217,-7.90,-3.23,4.13,0.09,-0.06,-0.06,-34.89,-1.39,29.09
14228,-7.90,-3.23,4.13,0.09,-0.06,-0.06,-34.89,-1.39,29.09
14239,-7.97,-3.05,4.60,0.26,-0.08,-0.07,-34.89,-1.39,29.09
14250,-7.97,-3.05,4.60,0.26,-0.08,-0.07,-34.89,-1.39,29.09
14261,-8.34,-3.07,4.99,0.26,-0.08,-0.07,-34.89,-1.39,29.09
14272,-8.24,-3.25,4.63,0.18,-0.01,-0.04,-34.89,-1.39,29.09
14283,-8.24,-3.25,4.63,0.18,-0.01,-0.04,-34.89,-1.39,29.09
14294,-8.22,-2.70,4.75,0.23,0.04,-0.02,-34.89,-1.39,29.09
14305,-8.22,-2.70,4.75,0.23,0.04,-0.02,-34.89,-1.39,29.09
14316,-8.30,-2.80,4.18,0.11,0.09,-0.11,-34.89,-1.39,29.09
14327,-8.30,-2.80,4.18,0.11,0.09,-0.11,-34.89,-1.39,29.09
14338,-8.16,-2.71,4.72,0.09,0.06,-0.14,-34.89,-1.39,29.09
14349,-8.16,-2.71,4.72,0.09,0.06,-0.14,-34.89,-1.39,29.09
14360,-8.37,-2.76,4.29,0.03,0.05,-0.13,-34.70,-0.17,27.94
14371,-8.37,-2.76,4.29,0.03,0.05,-0.13,-34.70,-0.17,27.94
14387,-8.44,-2.60,4.99,0.01,0.06,-0.09,-34.70,-0.17,27.94
14393,-8.13,-2.89,4.16,-0.18,0.14,-0.12,-34.70,-0.17,27.94
14404,-8.13,-2.89,4.16,-0.18,0.14,-0.12,-34.70,-0.17,27.94
14415,-7.98,-2.97,4.19,-0.07,0.09,-0.09,-34.70,-0.17,27.94
14426,-7.98,-2.97,4.19,-0.07,0.09,-0.09,-34.70,-0.17,27.94
14437,-8.23,-3.21,4.74,0.03,0.04,-0.11,-34.70,-0.17,27.94
14448,-8.23,-3.21,4.74,0.03,0.04,-0.11,-34.70,-0.17,27.94
14459,-8.15,-3.09,5.09,0.01,0.04,-0.09,-34.70,-0.17,27.94
14470,-8.15,-3.09,5.09,0.01,0.04,-0.09,-34.70,-0.17,27.94
14481,-8.29,-2.76,4.96,-0.01,0.06,-0.03,-35.65,-1.04,29.42
14492,-8.40,-2.93,4.57,-0.05,0.07,-0.01,-35.65,-1.04,29.42
14503,-8.40,-2.93,4.57,-0.05,0.07,-0.01,-35.65,-1.04,29.42
14514,-8.16,-2.86,4.46,-0.12,0.05,0.02,-35.65,-1.04,29.42
14525,-8.16,-2.86,4.46,-0.12,0.05,0.02,-35.65,-1.04,29.42
14536,-8.54,-2.44,4.64,-0.13,0.02,0.07,-35.65,-1.04,29.42
14547,-8.54,-2.44,4.64,-0.13,0.02,0.07,-35.65,-1.04,29.42
14558,-8.22,-2.47,4.43,-0.18,0.07,-0.01,-35.65,-1.04,29.42
14569,-8.22,-2.47,4.43,-0.18,0.07,-0.01,-35.65,-1.04,29.42
14580,-8.39,-2.81,4.86,-0.28,0.08,-0.06,-35.65,-1.04,29.42
14591,-8.39,-2.81,4.86,-0.28,0.08,-0.06,-35.65,-1.04,29.42
14602,-8.52,-2.73,4.40,-0.35,0.08,0.02,-35.65,-1.74,30.08
14613,-8.22,-2.75,4.28,-0.29,0.01,0.13,-35.65,-1.74,30.08
14624,-8.22,-2.75,4.28,-0.29,0.01,0.13,-35.65,-1.74,30.08
14635,-8.03,-2.96,4.45,-0.29,-0.04,0.15,-35.65,-1.74,30.08
14646,-8.03,-2.96,4.45,-0.29,-0.04,0.15,-35.65,-1.74,30.08
14657,-8.27,-2.92,4.42,-0.31,-0.05,0.14,-35.65,-1.74,30.08
14669,-8.27,-2.92,4.42,-0.31,-0.05,0.14,-35.65,-1.74,30.08
14679,-7.74,-3.19,4.48,-0.25,-0.09,0.19,-35.65,-1.74,30.08
14690,-7.74,-3.19,4.48,-0.25,-0.09,0.19,-35.65,-1.74,30.08
14701,-7.86,-2.89,4.58,-0.18,-0.13,0.24,-35.65,-1.74,30.08
14712,-7.78,-3.42,4.52,-0.07,-0.17,0.17,-35.46,-2.96,28.60
14723,-7.78,-3.42,4.52,-0.07,-0.17,0.17,-35.46,-2.96,28.60
14734,-7.76,-3.50,4.63,-0.02,-0.17,0.06,-35.46,-2.96,28.60
14745,-7.76,-3.50,4.63,-0.02,-0.17,0.06,-35.46,-2.96,28.60
14756,-8.08,-3.57,5.50,0.01,-0.13,-0.07,-35.46,-2.96,28.60
14767,-8.08,-3.57,5.50,0.01,-0.13,-0.07,-35.46,-2.96,28.60
14778,-7.94,-4.13,4.20,0.01,-0.07,-0.10,-35.46,-2.96,28.60
14789,-7.94,-4.13,4.20,0.01,-0.07,-0.10,-35.46,-2.96,28.60
14800,-7.93,-3.40,4.50,0.17,-0.06,0.01,-35.46,-2.96,28.60
14811,-7.93,-3.40,4.50,0.17,-0.06,0.01,-35.46,-2.96,28.60
14822,-8.06,-3.46,4.49,0.24,-0.03,0.00,-35.46,-2.96,28.60
14833,-8.05,-3.17,4.70,0.30,-0.05,-0.01,-35.46,-2.96,28.60
14844,-8.05,-3.17,4.70,0.30,-0.05,-0.01,-35.46,-2.96,28.60
14855,-8.29,-3.19,4.54,0.28,-0.01,-0.09,-33.94,-2.26,30.24
14866,-8.29,-3.19,4.54,0.28,-0.01,-0.09,-33.94,-2.26,30.24
14877,-8.35,-3.42,4.30,0.16,0.04,-0.13,-33.94,-2.26,30.24
14888,-8.35,-3.42,4.30,0.16,0.04,-0.13,-33.94,-2.26,30.24
14899,-8.42,-2.79,4.50,0.15,0.05,-0.09,-33.94,-2.26,30.24
14910,-8.42,-2.79,4.50,0.15,0.05,-0.09,-33.94,-2.26,30.24
14921,-8.52,-2.62,4.17,0.07,0.06,-0.08,-33.94,-2.26,30.24
14932,-8.12,-2.62,3.85,-0.00,0.08,-0.09,-33.94,-2.26,30.24
14943,-8.12,-2.62,3.85,-0.00,0.08,-0.09,-33.94,-2.26,30.24
14954,-8.60,-2.58,4.38,-0.00,0.06,-0.11,-33.94,-2.26,30.24
14965,-8.60,-2.58,4.38,-0.00,0.06,-0.11,-33.94,-2.26,30.24
14976,-8.63,-2.96,4.42,0.01,0.05,-0.11,-35.84,-0.52,28.60
14987,-8.63,-2.96,4.42,0.01,0.05,-0.11,-35.84,-0.52,28.60
14998,-8.20,-2.85,4.27,-0.04,0.08,-0.11,-35.84,-0.52,28.60
15009,-8.20,-2.85,4.27,-0.04,0.08,-0.11,-35.84,-0.52,28.60
15020,-8.53,-2.82,4.06,0.00,0.07,-0.11,-35.84,-0.52,28.60
15031,-8.53,-2.82,4.06,0.00,0.07,-0.11,-35.84,-0.52,28.60
15042,-8.14,-2.73,4.03,-0.09,0.07,-0.07,-35.84,-0.52,28.60
15053,-8.26,-2.92,4.94,-0.16,0.03,-0.04,-35.84,-0.52,28.60
15064,-8.26,-2.92,4.94,-0.16,0.03,-0.04,-35.84,-0.52,28.60
15075,-8.12,-3.02,4.41,-0.19,0.03,0.01,-35.84,-0.52,28.60
15086,-8.12,-3.02,4.41,-0.19,0.03,0.01,-35.84,-0.52,28.60
15097,-8.36,-2.89,4.71,-0.11,-0.01,0.08,-34.51,-1.74,28.11
15108,-8.36,-2.89,4.71,-0.11,-0.01,0.08,-34.51,-1.74,28.11
15119,-8.39,-2.49,4.47,-0.18,0.01,0.06,-34.51,-1.74,28.11
15130,-8.39,-2.49,4.47,-0.18,0.01,0.06,-34.51,-1.74,28.11
15141,-8.27,-2.84,4.38,-0.26,0.03,0.02,-34.51,-1.74,28.11
15152,-8.27,-2.84,4.38,-0.26,0.03,0.02,-34.51,-1.74,28.11
15163,-8.18,-2.68,4.43,-0.23,0.00,0.09,-34.51,-1.74,28.11
15174,-8.33,-2.76,4.37,-0.26,-0.01,0.12,-34.51,-1.74,28.11
15185,-8.33,-2.76,4.37,-0.26,-0.01,0.12,-34.51,-1.74,28.11
15196,-8.29,-3.12,4.48,-0.22,-0.02,0.11,-34.51,-1.74,28.11
15207,-8.29,-3.12,4.48,-0.22,-0.02,0.11,-34.51,-1.74,28.11
15218,-7.98,-3.07,4.33,-0.20,-0.01,0.11,-34.51,-1.74,28.11
15229,-7.98,-3.07,4.33,-0.20,-0.01,0.11,-34.51,-1.74,28.11
15240,-8.01,-3.22,4.64,-0.16,-0.04,0.10,-36.97,-4.01,28.93
15251,-8.01,-3.22,4.64,-0.16,-0.04,0.10,-36.97,-4.01,28.93
15262,-7.80,-3.12,4.53,-0.21,-0.09,0.15,-36.97,-4.01,28.93
15273,-8.16,-3.21,4.80,-0.15,-0.12,0.13,-36.97,-4.01,28.93
15284,-8.16,-3.21,4.80,-0.15,-0.12,0.13,-36.97,-4.01,28.93
15295,-7.94,-3.52,4.65,-0.16,-0.09,0.12,-36.97,-4.01,28.93
15306,-7.94,-3.52,4.65,-0.16,-0.09,0.12,-36.97,-4.01,28.93
15317,-7.67,-3.69,4.75,-0.06,-0.07,0.12,-36.97,-4.01,28.93
15328,-7.67,-3.69,4.75,-0.06,-0.07,0.12,-36.97,-4.01,28.93
15339,-7.87,-3.51,4.70,-0.00,-0.08,0.07,-36.97,-4.01,28.93
15350,-7.87,-3.51,4.70,-0.00,-0.08,0.07,-36.97,-4.01,28.93
15361,-7.50,-4.10,4.01,-0.07,-0.07,-0.04,-33.94,-2.61,29.91
15372,-7.50,-4.10,4.01,-0.07,-0.07,-0.04,-33.94,-2.61,29.91
15383,-8.06,-3.95,4.49,0.07,-0.07,-0.02,-33.94,-2.61,29.91
15394,-7.77,-3.83,4.35,0.27,-0.04,-0.01,-33.94,-2.61,29.91
15405,-7.77,-3.83,4.35,0.27,-0.04,-0.01,-33.94,-2.61,29.91
15416,-7.97,-3.50,4.33,0.47,-0.05,-0.01,-33.94,-2.61,29.91
15427,-7.97,-3.50,4.33,0.47,-0.05,-0.01,-33.94,-2.61,29.91
15438,-8.43,-3.08,4.55,0.39,-0.03,-0.08,-33.94,-2.61,29.91
15450,-8.43,-3.08,4.55,0.39,-0.03,-0.08,-33.94,-2.61,29.91
15460,-8.41,-2.96,4.63,0.23,0.00,-0.13,-33.94,-2.61,29.91
15471,-8.41,-2.96,4.63,0.23,0.00,-0.13,-33.94,-2.61,29.91
15482,-8.43,-2.71,4.00,0.10,0.06,-0.15,-35.65,-2.78,28.76
15493,-8.42,-2.75,4.39,0.07,0.07,-0.16,-35.65,-2.78,28.76
15504,-8.42,-2.75,4.39,0.07,0.07,-0.16,-35.65,-2.78,28.76
15515,-8.32,-2.75,3.76,-0.03,0.08,-0.14,-35.65,-2.78,28.76
15526,-8.32,-2.75,3.76,-0.03,0.08,-0.14,-35.65,-2.78,28.76
15537,-8.64,-2.60,4.61,0.09,0.04,-0.10,-35.65,-2.78,28.76
15548,-8.64,-2.60,4.61,0.09,0.04,-0.10,-35.65,-2.78,28.76
15559,-8.54,-2.83,4.44,0.00,0.09,-0.13,-35.65,-2.78,28.76
15570,-8.54,-2.83,4.44,0.00,0.09,-0.13,-35.65,-2.78,28.76
15581,-8.42,-3.13,4.52,-0.00,0.10,-0.13,-35.65,-2.78,28.76
15592,-8.42,-3.13,4.52,-0.00,0.10,-0.13,-35.65,-2.78,28.76
15603,-8.31,-2.72,4.36,-0.05,0.08,-0.07,-35.65,-2.78,28.76
15614,-8.45,-2.95,4.20,-0.10,0.05,-0.05,-37.54,-1.74,29.09
15625,-8.45,-2.95,4.20,-0.10,0.05,-0.05,-37.54,-1.74,29.09
15636,-8.35,-3.10,4.24,-0.09,0.03,-0.03,-37.54,-1.74,29.09
15647,-8.35,-3.10,4.24,-0.09,0.03,-0.03,-37.54,-1.74,29.09
15658,-8.33,-2.54,4.16,-0.11,0.02,-0.03,-37.54,-1.74,29.09
15669,-8.33,-2.54,4.16,-0.11,0.02,-0.03,-37.54,-1.74,29.09
15680,-8.45,-2.91,4.47,-0.14,0.02,-0.04,-37.54,-1.74,29.09
15691,-8.45,-2.91,4.47,-0.14,0.02,-0.04,-37.54,-1.74,29.09
15702,-8.37,-2.79,4.09,-0.23,0.02,0.02,-37.54,-1.74,29.09
15713,-8.17,-2.72,4.74,-0.21,-0.02,0.06,-37.54,-1.74,29.09
15724,-8.17,-2.72,4.74,-0.21,-0.02,0.06,-37.54,-1.74,29.09
15735,-8.21,-2.69,3.83,-0.28,-0.02,0.04,-33.94,-2.26,28.93
15746,-8.21,-2.69,3.83,-0.28,-0.02,0.04,-33.94,-2.26,28.93
15757,-8.31,-2.78,4.92,-0.15,-0.07,0.02,-33.94,-2.26,28.93
15768,-8.31,-2.78,4.92,-0.15,-0.07,0.02,-33.94,-2.26,28.93
15779,-8.29,-3.20,4.59,-0.23,0.01,-0.02,-33.94,-2.26,28.93
15790,-8.29,-3.20,4.59,-0.23,0.01,-0.02,-33.94,-2.26,28.93
15801,-8.58,-3.41,4.47,-0.25,0.01,0.07,-33.94,-2.26,28.93
15812,-8.58,-3.41,4.47,-0.25,0.01,0.07,-33.94,-2.26,28.93
15823,-7.87,-3.50,4.22,-0.24,-0.01,0.18,-33.94,-2.26,28.93
15834,-7.86,-3.23,4.30,-0.22,-0.08,0.19,-33.94,-2.26,28.93
15845,-7.86,-3.23,4.30,-0.22,-0.08,0.19,-33.94,-2.26,28.93
15856,-7.97,-3.34,4.80,-0.16,-0.13,0.14,-35.08,-2.26,29.91
15867,-7.97,-3.34,4.80,-0.16,-0.13,0.14,-35.08,-2.26,29.91
15878,-7.95,-3.80,4.68,-0.17,-0.11,0.07,-35.08,-2.26,29.91
15889,-7.95,-3.80,4.68,-0.17,-0.11,0.07,-35.08,-2.26,29.91
15900,-7.70,-3.62,4.67,-0.16,-0.09,0.08,-35.08,-2.26,29.91
15911,-7.70,-3.62,4.67,-0.16,-0.09,0.08,-35.08,-2.26,29.91
15922,-7.88,-3.80,4.12,-0.13,-0.09,0.10,-35.08,-2.26,29.91
15933,-7.70,-3.66,4.41,-0.05,-0.09,0.09,-35.08,-2.26,29.91
15944,-7.70,-3.66,4.41,-0.05,-0.09,0.09,-35.08,-2.26,29.91
15955,-7.99,-3.71,4.57,0.05,-0.11,0.04,-35.08,-2.26,29.91
15966,-7.99,-3.71,4.57,0.05,-0.11,0.04,-35.08,-2.26,29.91
15977,-7.98,-3.94,4.33,0.16,-0.10,-0.05,-33.00,-4.88,30.08
15989,-7.98,-3.94,4.33,0.16,-0.10,-0.05,-33.00,-4.88,30.08
15999,-8.19,-3.89,4.84,0.30,-0.04,-0.10,-33.00,-4.88,30.08
16010,-8.19,-3.89,4.84,0.30,-0.04,-0.10,-33.00,-4.88,30.08
16021,-8.08,-3.58,4.42,0.27,-0.01,-0.09,-33.00,-4.88,30.08
16032,-8.08,-3.58,4.42,0.27,-0.01,-0.09,-33.00,-4.88,30.08
16043,-8.08,-3.44,4.25,0.23,0.01,-0.12,-33.00,-4.88,30.08
16054,-8.45,-3.39,4.13,0.18,0.02,-0.13,-33.00,-4.88,30.08
16065,-8.45,-3.39,4.13,0.18,0.02,-0.13,-33.00,-4.88,30.08
16076,-8.50,-3.05,4.06,0.10,0.05,-0.11,-33.00,-4.88,30.08
16087,-8.50,-3.05,4.06,0.10,0.05,-0.11,-33.00,-4.88,30.08
16098,-8.58,-2.97,4.44,0.06,0.09,-0.12,-33.00,-4.88,30.08
16109,-8.58,-2.97,4.44,0.06,0.09,-0.12,-33.00,-4.88,30.08
16120,-8.36,-3.04,3.66,0.02,0.11,-0.11,-34.32,-2.96,28.93
16131,-8.36,-3.04,3.66,0.02,0.11,-0.11,-34.32,-2.96,28.93
16142,-8.55,-2.78,3.99,0.02,0.06,-0.09,-34.32,-2.96,28.93
16153,-8.42,-3.00,3.93,-0.08,0.07,-0.11,-34.32,-2.96,28.93
16164,-8.42,-3.00,3.93,-0.08,0.07,-0.11,-34.32,-2.96,28.93
16180,-8.44,-2.87,3.95,-0.10,0.07,-0.08,-34.32,-2.96,28.93
16186,-8.44,-2.87,3.95,-0.10,0.07,-0.08,-34.32,-2.96,28.93
16197,-8.39,-3.03,4.32,-0.09,0.05,-0.05,-34.32,-2.96,28.93
16208,-8.39,-3.03,4.32,-0.09,0.05,-0.05,-34.32,-2.96,28.93
16219,-8.29,-3.35,4.37,-0.09,0.04,-0.05,-34.32,-2.96,28.93
16230,-8.29,-3.35,4.37,-0.09,0.04,-0.05,-34.32,-2.96,28.93
16241,-8.17,-2.76,4.43,-0.09,0.03,-0.05,-35.27,-5.23,30.41
16252,-8.17,-2.76,4.43,-0.09,0.03,-0.05,-35.27,-5.23,30.41
16263,-8.32,-2.82,3.97,-0.16,0.04,-0.05,-35.27,-5.23,30.41
16274,-8.40,-2.66,4.13,-0.20,0.02,-0.00,-35.27,-5.23,30.41
16285,-8.40,-2.66,4.13,-0.20,0.02,-0.00,-35.27,-5.23,30.41
16296,-8.38,-2.79,3.96,-0.27,-0.04,0.02,-35.27,-5.23,30.41
16307,-8.38,-2.79,3.96,-0.27,-0.04,0.02,-35.27,-5.23,30.41
16318,-8.55,-2.78,4.06,-0.32,-0.06,0.06,-35.27,-5.23,30.41
16329,-8.55,-2.78,4.06,-0.32,-0.06,0.06,-35.27,-5.23,30.41
16340,-8.40,-2.98,4.00,-0.28,-0.07,0.05,-35.27,-5.23,30.41
16351,-8.40,-2.98,4.00,-0.28,-0.07,0.05,-35.27,-5.23,30.41
16362,-8.33,-2.72,4.30,-0.29,-0.04,0.01,-33.19,-5.40,29.26
16373,-8.33,-2.72,4.30,-0.29,-0.04,0.01,-33.19,-5.40,29.26
16384,-8.22,-3.72,4.20,-0.32,-0.01,-0.03,-33.19,-5.40,29.26
16395,-8.20,-3.34,4.38,-0.33,-0.05,0.08,-33.19,-5.40,29.26
16406,-8.20,-3.34,4.38,-0.33,-0.05,0.08,-33.19,-5.40,29.26
16417,-7.80,-3.74,4.96,-0.34,-0.09,0.14,-33.19,-5.40,29.26
16428,-7.80,-3.74,4.96,-0.34,-0.09,0.14,-33.19,-5.40,29.26
16439,-7.22,-3.72,4.29,-0.29,-0.11,0.12,-33.19,-5.40,29.26
16450,-7.22,-3.72,4.29,-0.29,-0.11,0.12,-33.19,-5.40,29.26
16462,-7.39,-3.88,4.83,-0.19,-0.15,0.11,-33.19,-5.40,29.26
16472,-7.39,-3.88,4.83,-0.19,-0.15,0.11,-33.19,-5.40,29.26
16483,-7.52,-4.14,4.37,-0.18,-0.16,0.11,-33.19,-5.40,29.26
16494,-7.76,-4.39,4.17,-0.15,-0.19,0.13,-34.13,-4.88,29.42
16505,-7.76,-4.39,4.17,-0.15,-0.19,0.13,-34.13,-4.88,29.42
16516,-7.57,-4.41,4.26,-0.05,-0.15,0.13,-34.13,-4.88,29.42
16527,-7.57,-4.41,4.26,-0.05,-0.15,0.13,-34.13,-4.88,29.42
16538,-7.36,-4.23,4.14,0.06,-0.08,0.05,-34.13,-4.88,29.42
16549,-7.36,-4.23,4.14,0.06,-0.08,0.05,-34.13,-4.88,29.42
16560,-7.91,-3.96,4.67,0.28,-0.09,0.05,-34.13,-4.88,29.42
16571,-7.91,-3.96,4.67,0.28,-0.09,0.05,-34.13,-4.88,29.42
16582,-8.10,-3.91,4.51,0.31,-0.02,-0.04,-34.13,-4.88,29.42
16593,-8.10,-3.91,4.51,0.31,-0.02,-0.04,-34.13,-4.88,29.42
16604,-8.27,-3.75,4.42,0.26,0.02,-0.11,-34.13,-4.88,29.42
16615,-8.00,-3.67,4.41,0.18,0.04,-0.08,-34.13,-4.53,30.08
16626,-8.00,-3.67,4.41,0.18,0.04,-0.08,-34.13,-4.53,30.08
16637,-8.06,-3.42,4.22,0.15,0.06,-0.06,-34.13,-4.53,30.08
16648,-8.06,-3.42,4.22,0.15,0.06,-0.06,-34.13,-4.53,30.08
16659,-8.04,-3.49,3.91,0.12,0.07,-0.08,-34.13,-4.53,30.08
16670,-8.04,-3.49,3.91,0.12,0.07,-0.08,-34.13,-4.53,30.08
16681,-8.51,-3.32,4.10,0.19,0.06,-0.09,-34.13,-4.53,30.08
16692,-8.51,-3.32,4.10,0.19,0.06,-0.09,-34.13,-4.53,30.08
16703,-8.29,-3.12,4.53,0.19,0.07,-0.11,-34.13,-4.53,30.08
16714,-8.50,-2.91,4.25,0.07,0.10,-0.09,-34.13,-4.53,30.08
16725,-8.50,-2.91,4.25,0.07,0.10,-0.09,-34.13,-4.53,30.08
16736,-8.39,-2.58,4.30,0.01,0.08,-0.08,-34.32,-4.35,30.24
16747,-8.39,-2.58,4.30,0.01,0.08,-0.08,-34.32,-4.35,30.24
16758,-8.28,-2.90,3.74,-0.08,0.07,-0.14,-34.32,-4.35,30.24
16769,-8.28,-2.90,3.74,-0.08,0.07,-0.14,-34.32,-4.35,30.24
16780,-8.27,-3.28,4.12,-0.10,0.04,-0.12,-34.32,-4.35,30.24
16791,-8.27,-3.28,4.12,-0.10,0.04,-0.12,-34.32,-4.35,30.24
16802,-8.41,-3.30,4.05,-0.14,0.07,-0.07,-34.32,-4.35,30.24
16813,-8.41,-3.30,4.05,-0.14,0.07,-0.07,-34.32,-4.35,30.24
16824,-8.17,-3.42,4.03,-0.11,0.10,-0.05,-34.32,-4.35,30.24
16835,-8.34,-3.32,4.78,-0.13,0.07,-0.03,-34.32,-4.35,30.24
16846,-8.34,-3.32,4.78,-0.13,0.07,-0.03,-34.32,-4.35,30.24
16857,-8.37,-3.32,3.92,-0.22,0.08,-0.02,-34.32,-4.35,30.24
16868,-8.37,-3.32,3.92,-0.22,0.08,-0.02,-34.32,-4.35,30.24
16879,-8.38,-3.15,4.39,-0.16,0.03,0.05,-33.94,-4.70,29.91
16890,-8.38,-3.15,4.39,-0.16,0.03,0.05,-33.94,-4.70,29.91
16901,-8.09,-3.48,3.89,-0.15,0.03,0.08,-33.94,-4.70,29.91
16912,-8.09,-3.48,3.89,-0.15,0.03,0.08,-33.94,-4.70,29.91
16923,-8.38,-2.79,4.32,-0.09,-0.00,0.09,-33.94,-4.70,29.91
16935,-8.54,-3.17,4.09,-0.12,0.03,0.05,-33.94,-4.70,29.91
16945,-8.54,-3.17,4.09,-0.12,0.03,0.05,-33.94,-4.70,29.91
16956,-8.18,-2.83,4.00,-0.21,0.02,0.03,-33.94,-4.70,29.91
16967,-8.18,-2.83,4.00,-0.21,0.02,0.03,-33.94,-4.70,29.91
16978,-8.20,-3.88,4.03,-0.29,-0.02,0.03,-33.94,-4.70,29.91
16989,-8.20,-3.88,4.03,-0.29,-0.02,0.03,-33.94,-4.70,29.91
17000,-7.69,-3.34,4.30,-0.31,-0.09,0.10,-33.57,-5.40,29.91
17011,-7.69,-3.34,4.30,-0.31,-0.09,0.10,-33.57,-5.40,29.91
17022,-7.74,-3.94,4.52,-0.28,-0.11,0.05,-33.57,-5.40,29.91
17033,-7.74,-3.94,4.52,-0.28,-0.11,0.05,-33.57,-5.40,29.91
17044,-7.96,-4.35,4.31,-0.21,-0.14,0.08,-33.57,-5.40,29.91
17055,-7.40,-4.40,4.39,-0.12,-0.17,0.15,-33.57,-5.40,29.91
17066,-7.40,-4.40,4.39,-0.12,-0.17,0.15,-33.57,-5.40,29.91
17077,-7.61,-4.02,4.24,-0.06,-0.17,0.18,-33.57,-5.40,29.91
17088,-7.61,-4.02,4.24,-0.06,-0.17,0.18,-33.57,-5.40,29.91
17099,-7.59,-3.70,4.19,-0.01,-0.18,0.13,-33.57,-5.40,29.91
17110,-7.59,-3.70,4.19,-0.01,-0.18,0.13,-33.57,-5.40,29.91
17121,-7.78,-4.09,4.28,-0.07,-0.15,0.04,-34.89,-6.97,30.41
17132,-7.78,-4.09,4.28,-0.07,-0.15,0.04,-34.89,-6.97,30.41
17143,-7.77,-4.26,3.86,-0.08,-0.14,-0.00,-34.89,-6.97,30.41
17154,-7.91,-3.80,4.42,0.07,-0.15,0.05,-34.89,-6.97,30.41
17165,-7.91,-3.80,4.42,0.07,-0.15,0.05,-34.89,-6.97,30.41
17176,-8.08,-3.63,4.37,0.18,-0.08,0.01,-34.89,-6.97,30.41
17187,-8.08,-3.63,4.37,0.18,-0.08,0.01,-34.89,-6.97,30.41
17198,-7.88,-3.93,4.12,0.23,-0.04,-0.08,-34.89,-6.97,30.41
17209,-7.88,-3.93,4.12,0.23,-0.04,-0.08,-34.89,-6.97,30.41
17220,-8.23,-3.56,4.66,0.25,-0.05,-0.11,-34.89,-6.97,30.41
17231,-8.23,-3.56,4.66,0.25,-0.05,-0.11,-34.89,-6.97,30.41
17242,-8.23,-3.66,4.44,0.11,-0.00,-0.11,-33.76,-5.92,31.06
17253,-8.23,-3.66,4.44,0.11,-0.00,-0.11,-33.76,-5.92,31.06
17264,-8.47,-3.52,4.29,0.09,0.05,-0.09,-33.76,-5.92,31.06
17275,-8.03,-3.51,3.99,0.07,0.09,-0.12,-33.76,-5.92,31.06
17286,-8.03,-3.51,3.99,0.07,0.09,-0.12,-33.76,-5.92,31.06
17297,-8.02,-3.45,3.68,0.00,0.13,-0.17,-33.76,-5.92,31.06
17308,-8.02,-3.45,3.68,0.00,0.13,-0.17,-33.76,-5.92,31.06
17319,-8.22,-3.44,4.27,0.04,0.09,-0.16,-33.76,-5.92,31.06
17330,-8.22,-3.44,4.27,0.04,0.09,-0.16,-33.76,-5.92,31.06
17341,-8.16,-3.74,4.04,0.01,0.10,-0.14,-33.76,-5.92,31.06
17352,-8.16,-3.74,4.04,0.01,0.10,-0.14,-33.76,-5.92,31.06
17363,-8.25,-3.20,4.58,0.08,0.09,-0.08,-33.76,-5.92,31.06
17374,-8.25,-3.20,4.58,0.08,0.09,-0.08,-33.76,-5.92,31.06
17385,-8.13,-3.44,3.71,0.01,0.14,-0.13,-33.38,-5.23,28.76
17396,-8.15,-3.53,3.99,0.03,0.11,-0.11,-33.38,-5.23,28.76
17407,-8.15,-3.53,3.99,0.03,0.11,-0.11,-33.38,-5.23,28.76
17418,-8.12,-3.52,4.48,0.04,0.13,-0.11,-33.38,-5.23,28.76
17429,-8.12,-3.52,4.48,0.04,0.13,-0.11,-33.38,-5.23,28.76
17440,-8.19,-3.62,3.70,-0.00,0.17,-0.11,-33.38,-5.23,28.76
17451,-8.19,-3.62,3.70,-0.00,0.17,-0.11,-33.38,-5.23,28.76
17462,-8.51,-3.42,4.24,0.02,0.13,-0.09,-33.38,-5.23,28.76
17474,-8.51,-3.42,4.24,0.02,0.13,-0.09,-33.38,-5.23,28.76
17484,-8.20,-3.64,4.78,-0.06,0.14,-0.06,-33.38,-5.23,28.76
17495,-8.55,-3.66,4.03,-0.14,0.22,-0.01,-34.51,-5.92,29.75
17506,-8.55,-3.66,4.03,-0.14,0.22,-0.01,-34.51,-5.92,29.75
17517,-8.18,-3.14,4.15,-0.12,0.22,0.07,-34.51,-5.92,29.75
17528,-8.18,-3.14,4.15,-0.12,0.22,0.07,-34.51,-5.92,29.75
17539,-8.49,-3.37,3.39,-0.12,0.20,0.06,-34.51,-5.92,29.75
17550,-8.49,-3.37,3.39,-0.12,0.20,0.06,-34.51,-5.92,29.75
17561,-8.42,-3.13,3.98,-0.16,0.15,0.05,-34.51,-5.92,29.75
17572,-8.42,-3.13,3.98,-0.16,0.15,0.05,-34.51,-5.92,29.75
17583,-8.02,-3.36,3.90,-0.24,0.10,0.06,-34.51,-5.92,29.75
17594,-8.02,-3.36,3.90,-0.24,0.10,0.06,-34.51,-5.92,29.75
17605,-8.17,-3.48,4.17,-0.31,0.03,0.06,-34.51,-5.92,29.75
17616,-8.37,-3.99,3.39,-0.33,-0.01,0.12,-34.13,-6.27,30.73
17627,-8.37,-3.99,3.39,-0.33,-0.01,0.12,-34.13,-6.27,30.73
17638,-8.05,-3.69,3.81,-0.19,-0.11,0.23,-34.13,-6.27,30.73
17649,-8.05,-3.69,3.81,-0.19,-0.11,0.23,-34.13,-6.27,30.73
17660,-8.11,-3.83,3.83,-0.17,-0.14,0.15,-34.13,-6.27,30.73
17671,-8.11,-3.83,3.83,-0.17,-0.14,0.15,-34.13,-6.27,30.73
17682,-8.09,-4.27,4.18,-0.20,-0.16,0.05,-34.13,-6.27,30.73
17693,-8.09,-4.27,4.18,-0.20,-0.16,0.05,-34.13,-6.27,30.73
17704,-7.84,-4.32,3.88,-0.14,-0.17,0.03,-34.13,-6.27,30.73
17715,-7.98,-4.49,4.16,-0.09,-0.18,0.04,-34.13,-6.27,30.73
17726,-7.98,-4.49,4.16,-0.09,-0.18,0.04,-34.13,-6.27,30.73
17737,-7.75,-4.25,4.15,-0.12,-0.18,0.05,-34.13,-6.27,30.73
17748,-7.75,-4.25,4.15,-0.12,-0.18,0.05,-34.13,-6.27,30.73
17759,-7.92,-4.31,3.98,-0.04,-0.22,0.08,-33.76,-6.27,29.75
17770,-7.92,-4.31,3.98,-0.04,-0.22,0.08,-33.76,-6.27,29.75
17786,-7.83,-4.09,4.19,0.01,-0.23,0.08,-33.76,-6.27,29.75
17792,-7.83,-4.09,4.19,0.01,-0.23,0.08,-33.76,-6.27,29.75
17803,-7.60,-3.87,4.03,0.01,-0.17,0.00,-33.76,-6.27,29.75
17814,-7.60,-3.87,4.03,0.01,-0.17,0.00,-33.76,-6.27,29.75
17825,-7.66,-3.93,3.99,0.12,-0.18,-0.03,-33.76,-6.27,29.75
17836,-7.79,-3.79,4.60,0.19,-0.17,-0.04,-33.76,-6.27,29.75
17847,-7.79,-3.79,4.60,0.19,-0.17,-0.04,-33.76,-6.27,29.75
17858,-8.07,-3.91,3.80,0.19,-0.08,-0.11,-33.76,-6.27,29.75
17869,-8.07,-3.91,3.80,0.19,-0.08,-0.11,-33.76,-6.27,29.75
17881,-8.46,-3.96,4.47,0.26,-0.00,-0.17,-33.94,-7.14,31.56
17891,-8.46,-3.96,4.47,0.26,-0.00,-0.17,-33.94,-7.14,31.56
17902,-8.07,-4.09,4.06,0.15,0.12,-0.16,-33.94,-7.14,31.56
17913,-8.07,-4.09,4.06,0.15,0.12,-0.16,-33.94,-7.14,31.56
17924,-8.19,-3.72,3.97,0.14,0.14,-0.14,-33.94,-7.14,31.56
17935,-8.01,-3.78,4.18,0.06,0.14,-0.16,-33.94,-7.14,31.56
17946,-8.01,-3.78,4.18,0.06,0.14,-0.16,-33.94,-7.14,31.56
17957,-8.46,-3.37,3.83,-0.00,0.13,-0.15,-33.94,-7.14,31.56
17968,-8.46,-3.37,3.83,-0.00,0.13,-0.15,-33.94,-7.14,31.56
17979,-8.35,-3.37,4.05,-0.01,0.14,-0.13,-33.94,-7.14,31.56
17990,-8.35,-3.37,4.05,-0.01,0.14,-0.13,-33.94,-7.14,31.56
18001,-8.31,-3.39,4.00,-0.07,0.14,-0.12,-33.94,-6.80,28.60
18012,-8.31,-3.39,4.00,-0.07,0.14,-0.12,-33.94,-6.80,28.60
18023,-8.00,-3.66,3.68,-0.06,0.16,-0.15,-33.94,-6.80,28.60
18034,-8.00,-3.66,3.68,-0.06,0.16,-0.15,-33.94,-6.80,28.60
18045,-8.14,-3.65,3.68,-0.01,0.17,-0.15,-33.94,-6.80,28.60
18056,-8.21,-3.77,3.80,-0.04,0.18,-0.14,-33.94,-6.80,28.60
18067,-8.21,-3.77,3.80,-0.04,0.18,-0.14,-33.94,-6.80,28.60
18078,-8.29,-3.25,4.01,-0.07,0.21,-0.11,-33.94,-6.80,28.60
18089,-8.29,-3.25,4.01,-0.07,0.21,-0.11,-33.94,-6.80,28.60
18100,-8.19,-3.58,3.74,-0.08,0.27,-0.11,-33.94,-6.80,28.60
18116,-8.19,-3.58,3.74,-0.08,0.27,-0.11,-33.94,-6.80,28.60
18122,-8.38,-3.73,3.49,-0.10,0.26,-0.08,-33.94,-6.80,28.60
18133,-8.38,-3.73,3.49,-0.10,0.26,-0.08,-33.94,-6.80,28.60
18144,-8.46,-4.00,3.76,-0.16,0.25,-0.01,-34.32,-8.19,28.93
18155,-8.27,-3.64,3.61,-0.20,0.25,0.07,-34.32,-8.19,28.93
18166,-8.27,-3.64,3.61,-0.20,0.25,0.07,-34.32,-8.19,28.93
18177,-8.14,-3.44,3.29,-0.12,0.23,0.12,-34.32,-8.19,28.93
18188,-8.14,-3.44,3.29,-0.12,0.23,0.12,-34.32,-8.19,28.93
18199,-8.22,-3.15,3.07,-0.11,0.16,0.11,-34.32,-8.19,28.93
18210,-8.22,-3.15,3.07,-0.11,0.16,0.11,-34.32,-8.19,28.93
18221,-8.50,-2.95,3.65,-0.17,0.10,0.04,-34.32,-8.19,28.93
18232,-8.50,-2.95,3.65,-0.17,0.10,0.04,-34.32,-8.19,28.93
18243,-8.47,-4.13,3.68,-0.26,0.04,0.03,-34.32,-8.19,28.93
18254,-8.47,-4.13,3.68,-0.26,0.04,0.03,-34.32,-8.19,28.93
18265,-8.20,-4.27,4.04,-0.25,-0.05,0.14,-36.59,-8.19,27.28
18276,-7.93,-3.94,3.52,-0.20,-0.11,0.18,-36.59,-8.19,27.28
18287,-7.93,-3.94,3.52,-0.20,-0.11,0.18,-36.59,-8.19,27.28
18298,-7.57,-4.17,3.34,-0.18,-0.16,0.15,-36.59,-8.19,27.28
18309,-7.57,-4.17,3.34,-0.18,-0.16,0.15,-36.59,-8.19,27.28
18320,-7.92,-4.24,3.75,-0.15,-0.23,0.09,-36.59,-8.19,27.28
18331,-7.92,-4.24,3.75,-0.15,-0.23,0.09,-36.59,-8.19,27.28
18342,-7.86,-4.85,3.34,-0.14,-0.25,0.05,-36.59,-8.19,27.28
18353,-7.86,-4.85,3.34,-0.14,-0.25,0.05,-36.59,-8.19,27.28
18364,-8.07,-4.66,3.68,-0.03,-0.27,0.13,-36.59,-8.19,27.28
18375,-7.82,-4.06,3.71,0.01,-0.22,0.14,-36.59,-8.19,27.28
18386,-7.82,-4.06,3.71,0.01,-0.22,0.14,-34.51,-7.67,28.76
18398,-7.81,-4.70,3.37,0.09,-0.18,0.08,-34.51,-7.67,28.76
18408,-7.81,-4.70,3.37,0.09,-0.18,0.08,-34.51,-7.67,28.76
18419,-7.92,-3.94,3.61,0.10,-0.22,0.09,-34.51,-7.67,28.76
18430,-7.92,-3.94,3.61,0.10,-0.22,0.09,-34.51,-7.67,28.76
18441,-7.78,-4.17,3.70,0.07,-0.28,0.05,-34.51,-7.67,28.76
18452,-7.78,-4.17,3.70,0.07,-0.28,0.05,-34.51,-7.67,28.76
18463,-8.17,-3.90,3.89,0.05,-0.30,0.04,-34.51,-7.67,28.76
18474,-8.17,-3.90,3.89,0.05,-0.30,0.04,-34.51,-7.67,28.76
18485,-8.31,-3.81,4.23,0.07,-0.18,-0.07,-34.51,-7.67,28.76
18496,-8.05,-4.56,3.73,0.05,-0.01,-0.19,-33.57,-6.45,30.24
18507,-8.05,-4.56,3.73,0.05,-0.01,-0.19,-33.57,-6.45,30.24
18518,-8.20,-3.82,4.06,0.10,0.06,-0.15,-33.57,-6.45,30.24
18529,-8.20,-3.82,4.06,0.10,0.06,-0.15,-33.57,-6.45,30.24
18540,-8.21,-4.16,4.08,0.12,0.12,-0.17,-33.57,-6.45,30.24
18551,-8.21,-4.16,4.08,0.12,0.12,-0.17,-33.57,-6.45,30.24
18562,-8.47,-3.79,3.54,0.04,0.16,-0.19,-33.57,-6.45,30.24
18573,-8.47,-3.79,3.54,0.04,0.16,-0.19,-33.57,-6.45,30.24
18584,-8.66,-3.35,3.72,0.02,0.20,-0.17,-33.57,-6.45,30.24
18595,-8.66,-3.35,3.72,0.02,0.20,-0.17,-33.57,-6.45,30.24
18606,-8.75,-3.35,3.69,0.04,0.20,-0.10,-33.57,-6.45,30.24
18617,-8.74,-3.07,3.84,-0.00,0.24,-0.08,-33.57,-6.45,30.24
18628,-8.74,-3.07,3.84,-0.00,0.24,-0.08,-33.57,-6.45,30.24
18639,-8.30,-3.96,4.18,-0.02,0.30,-0.16,-34.89,-7.32,29.42
18650,-8.30,-3.96,4.18,-0.02,0.30,-0.16,-34.89,-7.32,29.42
18661,-8.30,-4.12,3.66,-0.08,0.29,-0.13,-34.89,-7.32,29.42
18672,-8.30,-4.12,3.66,-0.08,0.29,-0.13,-34.89,-7.32,29.42
18683,-8.18,-4.33,3.81,-0.07,0.28,-0.09,-34.89,-7.32,29.42
18694,-8.18,-4.33,3.81,-0.07,0.28,-0.09,-34.89,-7.32,29.42
18705,-8.40,-4.00,3.23,-0.06,0.26,-0.02,-34.89,-7.32,29.42
18716,-8.38,-3.81,3.49,-0.02,0.22,0.07,-34.89,-7.32,29.42
18727,-8.38,-3.81,3.49,-0.02,0.22,0.07,-34.89,-7.32,29.42
18738,-8.44,-3.52,3.38,-0.05,0.22,0.04,-34.89,-7.32,29.42
18749,-8.44,-3.52,3.38,-0.05,0.22,0.04,-34.89,-7.32,29.42
18760,-8.56,-3.45,3.62,-0.09,0.20,-0.01,-35.84,-8.19,26.63
18771,-8.56,-3.45,3.62,-0.09,0.20,-0.01,-35.84,-8.19,26.63
18782,-8.50,-3.80,2.75,-0.13,0.22,-0.01,-35.84,-8.19,26.63
18793,-8.50,-3.80,2.75,-0.13,0.22,-0.01,-35.84,-8.19,26.63
18804,-8.19,-3.51,2.95,-0.08,0.17,0.05,-35.84,-8.19,26.63
18815,-8.19,-3.51,2.95,-0.08,0.17,0.05,-35.84,-8.19,26.63
18826,-8.16,-3.37,3.20,-0.13,0.17,-0.01,-35.84,-8.19,26.63
18837,-8.41,-3.68,2.83,-0.19,0.13,-0.06,-35.84,-8.19,26.63
18848,-8.41,-3.68,2.83,-0.19,0.13,-0.06,-35.84,-8.19,26.63
18859,-8.51,-4.08,3.43,-0.23,0.08,-0.00,-35.84,-8.19,26.63
18871,-8.51,-4.08,3.43,-0.23,0.08,-0.00,-35.84,-8.19,26.63
18881,-8.40,-4.60,3.08,-0.28,0.02,0.07,-35.84,-7.84,27.61
18892,-8.40,-4.60,3.08,-0.28,0.02,0.07,-35.84,-7.84,27.61
18903,-8.25,-4.43,3.41,-0.19,-0.05,0.16,-35.84,-7.84,27.61
18914,-8.25,-4.43,3.41,-0.19,-0.05,0.16,-35.84,-7.84,27.61
18925,-7.96,-4.50,3.34,-0.07,-0.09,0.21,-35.84,-7.84,27.61
18936,-8.04,-4.02,2.90,-0.11,-0.09,0.22,-35.84,-7.84,27.61
18947,-8.04,-4.02,2.90,-0.11,-0.09,0.22,-35.84,-7.84,27.61
18958,-7.80,-4.59,3.21,-0.07,-0.11,0.17,-35.84,-7.84,27.61
18969,-7.80,-4.59,3.21,-0.07,-0.11,0.17,-35.84,-7.84,27.61
18980,-7.92,-4.30,3.34,-0.09,-0.17,0.13,-35.84,-7.84,27.61
18991,-7.92,-4.30,3.34,-0.09,-0.17,0.13,-35.84,-7.84,27.61
19002,-7.78,-4.88,3.51,-0.06,-0.18,0.04,-35.84,-7.84,27.61
19013,-7.78,-4.88,3.51,-0.06,-0.18,0.04,-35.84,-7.84,27.61
19024,-7.58,-5.02,3.19,-0.01,-0.26,0.04,-34.51,-7.67,26.79
19035,-7.58,-5.02,3.19,-0.01,-0.26,0.04,-34.51,-7.67,26.79
19046,-7.68,-4.61,3.51,0.03,-0.38,0.08,-34.51,-7.67,26.79
19057,-8.35,-4.37,2.88,0.04,-0.42,0.06,-34.51,-7.67,26.79
19068,-8.35,-4.37,2.88,0.04,-0.42,0.06,-34.51,-7.67,26.79
19079,-7.51,-4.29,4.15,0.11,-0.41,0.05,-34.51,-7.67,26.79
19090,-7.51,-4.29,4.15,0.11,-0.41,0.05,-34.51,-7.67,26.79
19101,-8.36,-4.04,3.72,0.14,-0.31,-0.02,-34.51,-7.67,26.79
19112,-8.36,-4.04,3.72,0.14,-0.31,-0.02,-34.51,-7.67,26.79
19123,-8.62,-3.75,4.13,0.17,-0.16,-0.12,-34.51,-7.67,26.79
19134,-8.62,-3.75,4.13,0.17,-0.16,-0.12,-34.51,-7.67,26.79
19145,-8.37,-3.93,3.97,0.08,0.03,-0.20,-32.81,-8.19,29.26
19156,-8.33,-4.12,3.25,0.04,0.14,-0.20,-32.81,-8.19,29.26
19167,-8.33,-4.12,3.25,0.04,0.14,-0.20,-32.81,-8.19,29.26
19178,-8.41,-4.00,3.54,0.12,0.12,-0.13,-32.81,-8.19,29.26
19189,-8.41,-4.00,3.54,0.12,0.12,-0.13,-32.81,-8.19,29.26
19200,-8.30,-3.83,3.50,0.14,0.14,-0.14,-32.81,-8.19,29.26
19211,-8.30,-3.83,3.50,0.14,0.14,-0.14,-32.81,-8.19,29.26
19222,-8.21,-3.67,3.87,0.10,0.17,-0.16,-32.81,-8.19,29.26
19233,-8.21,-3.67,3.87,0.10,0.17,-0.16,-32.81,-8.19,29.26
19244,-8.35,-3.71,3.44,0.07,0.22,-0.16,-32.81,-8.19,29.26
19255,-8.35,-3.71,3.44,0.07,0.22,-0.16,-32.81,-8.19,29.26
19266,-8.66,-3.69,3.46,0.07,0.21,-0.13,-34.89,-8.71,28.11
19277,-8.84,-3.73,3.95,0.02,0.22,-0.09,-34.89,-8.71,28.11
19288,-8.84,-3.73,3.95,0.02,0.22,-0.09,-34.89,-8.71,28.11
19299,-8.26,-4.20,3.58,-0.04,0.30,-0.09,-34.89,-8.71,28.11
19310,-8.26,-4.20,3.58,-0.04,0.30,-0.09,-34.89,-8.71,28.11
19321,-8.56,-3.86,2.94,-0.06,0.31,-0.07,-34.89,-8.71,28.11
19332,-8.56,-3.86,2.94,-0.06,0.31,-0.07,-34.89,-8.71,28.11
19344,-8.42,-4.12,3.57,-0.03,0.29,-0.04,-34.89,-8.71,28.11
19354,-8.42,-4.12,3.57,-0.03,0.29,-0.04,-34.89,-8.71,28.11
19365,-8.46,-3.89,2.84,-0.08,0.32,-0.00,-34.89,-8.71,28.11
19376,-8.51,-3.85,3.31,-0.10,0.29,0.02,-34.89,-8.71,28.11
19387,-8.51,-3.85,3.31,-0.10,0.29,0.02,-34.89,-8.71,28.11
19398,-8.66,-3.74,2.88,-0.19,0.25,0.01,-37.16,-9.76,27.45
19409,-8.66,-3.74,2.88,-0.19,0.25,0.01,-37.16,-9.76,27.45
19420,-8.39,-3.74,3.35,-0.25,0.22,0.02,-37.16,-9.76,27.45
19431,-8.39,-3.74,3.35,-0.25,0.22,0.02,-37.16,-9.76,27.45
19442,-8.41,-3.95,2.69,-0.27,0.17,0.02,-37.16,-9.76,27.45
19453,-8.41,-3.95,2.69,-0.27,0.17,0.02,-37.16,-9.76,27.45
19464,-8.47,-4.10,2.36,-0.22,0.06,0.07,-37.16,-9.76,27.45
19475,-8.47,-4.10,2.36,-0.22,0.06,0.07,-37.16,-9.76,27.45
19486,-8.38,-4.06,3.57,-0.23,-0.04,0.15,-37.16,-9.76,27.45
19497,-8.40,-4.27,3.04,-0.18,-0.05,0.19,-37.16,-9.76,27.45
19508,-8.40,-4.27,3.04,-0.18,-0.05,0.19,-37.16,-9.76,27.45
19519,-8.25,-4.05,3.00,-0.16,-0.02,0.18,-34.89,-9.76,27.12
19530,-8.25,-4.05,3.00,-0.16,-0.02,0.18,-34.89,-9.76,27.12
19541,-8.32,-4.42,2.70,-0.14,-0.01,0.20,-34.89,-9.76,27.12
19552,-8.32,-4.42,2.70,-0.14,-0.01,0.20,-34.89,-9.76,27.12
19563,-8.35,-4.39,2.99,-0.08,-0.14,0.31,-34.89,-9.76,27.12
19574,-8.35,-4.39,2.99,-0.08,-0.14,0.31,-34.89,-9.76,27.12
19585,-7.63,-4.32,3.01,-0.09,-0.25,0.36,-34.89,-9.76,27.12
19596,-7.63,-4.32,3.01,-0.09,-0.25,0.36,-34.89,-9.76,27.12
19607,-7.24,-4.62,3.03,-0.04,-0.35,0.25,-34.89,-9.76,27.12
19618,-7.70,-5.08,3.52,0.06,-0.43,0.12,-34.89,-9.76,27.12
19629,-7.70,-5.08,3.52,0.06,-0.43,0.12,-34.89,-9.76,27.12
19640,-7.54,-4.90,2.71,0.03,-0.40,-0.05,-36.97,-10.63,27.94
19651,-7.54,-4.90,2.71,0.03,-0.40,-0.05,-36.97,-10.63,27.94
19662,-8.32,-4.73,3.63,0.17,-0.40,-0.08,-36.97,-10.63,27.94
19673,-8.32,-4.73,3.63,0.17,-0.40,-0.08,-36.97,-10.63,27.94
19684,-8.41,-4.63,3.50,0.23,-0.29,-0.06,-36.97,-10.63,27.94
19695,-8.41,-4.63,3.50,0.23,-0.29,-0.06,-36.97,-10.63,27.94
19706,-8.14,-3.59,3.58,0.21,-0.22,-0.03,-36.97,-10.63,27.94
19717,-8.19,-3.28,3.80,0.15,-0.11,-0.15,-36.97,-10.63,27.94
19728,-8.19,-3.28,3.80,0.15,-0.11,-0.15,-36.97,-10.63,27.94
19739,-8.42,-3.66,3.56,0.12,-0.01,-0.29,-36.97,-10.63,27.94
19750,-8.42,-3.66,3.56,0.12,-0.01,-0.29,-36.97,-10.63,27.94
19761,-8.67,-3.80,3.27,0.06,0.06,-0.31,-34.89,-9.76,28.43
19772,-8.67,-3.80,3.27,0.06,0.06,-0.31,-34.89,-9.76,28.43
19783,-8.88,-3.65,3.37,0.01,0.12,-0.25,-34.89,-9.76,28.43
19794,-8.88,-3.65,3.37,0.01,0.12,-0.25,-34.89,-9.76,28.43
19805,-8.90,-3.54,3.37,-0.07,0.23,-0.15,-34.89,-9.76,28.43
19816,-8.90,-3.54,3.37,-0.07,0.23,-0.15,-34.89,-9.76,28.43
19827,-8.53,-3.84,3.04,-0.04,0.33,-0.09,-34.89,-9.76,28.43
19838,-8.42,-3.38,3.03,-0.04,0.35,-0.06,-34.89,-9.76,28.43
19849,-8.42,-3.38,3.03,-0.04,0.35,-0.06,-34.89,-9.76,28.43
19860,-8.51,-3.90,2.91,-0.05,0.34,-0.09,-34.89,-9.76,28.43
19871,-8.51,-3.90,2.91,-0.05,0.34,-0.09,-34.89,-9.76,28.43
19882,-8.53,-3.79,2.76,-0.12,0.29,-0.04,-34.89,-9.76,28.43
19893,-8.53,-3.79,2.76,-0.12,0.29,-0.04,-34.89,-9.76,28.43
19904,-8.38,-3.63,2.73,-0.15,0.24,0.00,-36.78,-10.46,25.48
19915,-8.38,-3.63,2.73,-0.15,0.24,0.00,-36.78,-10.46,25.48
19926,-8.50,-3.76,3.15,-0.12,0.23,0.03,-36.78,-10.46,25.48
19937,-8.27,-4.23,3.00,-0.10,0.20,0.03,-36.78,-10.46,25.48
19948,-8.27,-4.23,3.00,-0.10,0.20,0.03,-36.78,-10.46,25.48
19959,-8.38,-3.89,2.84,-0.09,0.14,-0.00,-36.78,-10.46,25.48
19970,-8.38,-3.89,2.84,-0.09,0.14,-0.00,-36.78,-10.46,25.48
19981,-8.55,-4.14,3.06,-0.12,0.13,-0.08,-36.78,-10.46,25.48
19992,-8.55,-4.14,3.06,-0.12,0.13,-0.08,-36.78,-10.46,25.48
20003,-8.71,-4.33,2.53,-0.15,0.13,-0.04,-36.78,-10.46,25.48
20014,-8.71,-4.33,2.53,-0.15,0.13,-0.04,-36.78,-10.46,25.48
20025,-8.75,-3.63,3.09,-0.11,0.12,0.11,-38.11,-10.98,26.30
20036,-8.75,-3.63,3.09,-0.11,0.12,0.11,-38.11,-10.98,26.30
20047,-8.51,-3.91,2.42,-0.09,0.17,0.13,-38.11,-10.98,26.30
20058,-8.40,-3.83,2.71,-0.13,0.12,0.08,-38.11,-10.98,26.30
20069,-8.40,-3.83,2.71,-0.13,0.12,0.08,-38.11,-10.98,26.30
20080,-8.37,-3.88,3.01,-0.15,0.06,0.06,-38.11,-10.98,26.30
20091,-8.37,-3.88,3.01,-0.15,0.06,0.06,-38.11,-10.98,26.30
20102,-8.40,-4.30,2.72,-0.29,0.04,0.04,-38.11,-10.98,26.30
20113,-8.40,-4.30,2.72,-0.29,0.04,0.04,-38.11,-10.98,26.30
20124,-8.24,-4.51,2.68,-0.31,-0.05,0.14,-38.11,-10.98,26.30
20135,-8.24,-4.51,2.68,-0.31,-0.05,0.14,-38.11,-10.98,26.30
20146,-8.19,-4.18,2.63,-0.17,-0.11,0.26,-38.48,-10.28,25.31
20157,-7.92,-4.21,2.37,-0.09,-0.16,0.27,-38.48,-10.28,25.31
20168,-7.92,-4.21,2.37,-0.09,-0.16,0.27,-38.48,-10.28,25.31
20179,-8.16,-3.71,3.04,-0.05,-0.22,0.23,-38.48,-10.28,25.31
20190,-8.16,-3.71,3.04,-0.05,-0.22,0.23,-38.48,-10.28,25.31
20201,-7.98,-4.78,3.30,0.01,-0.19,0.07,-38.48,-10.28,25.31
20212,-7.98,-4.78,3.30,0.01,-0.19,0.07,-38.48,-10.28,25.31
20223,-7.90,-4.47,2.89,-0.05,-0.18,0.00,-38.48,-10.28,25.31
20234,-7.90,-4.47,2.89,-0.05,-0.18,0.00,-38.48,-10.28,25.31
20245,-8.00,-4.86,2.52,0.00,-0.23,-0.01,-38.48,-10.28,25.31
20256,-8.00,-4.86,2.52,0.00,-0.23,-0.01,-38.48,-10.28,25.31
20267,-8.15,-4.39,2.93,0.05,-0.27,0.01,-38.48,-10.28,25.31
20283,-8.44,-4.60,2.76,0.10,-0.29,-0.01,-36.78,-10.46,25.48
20289,-8.44,-4.60,2.76,0.10,-0.29,-0.01,-36.78,-10.46,25.48
20300,-8.20,-3.95,2.97,0.05,-0.29,-0.04,-36.78,-10.46,25.48
20311,-8.20,-3.95,2.97,0.05,-0.29,-0.04,-36.78,-10.46,25.48
20322,-8.33,-3.61,2.89,0.08,-0.24,-0.11,-36.78,-10.46,25.48
20333,-8.33,-3.61,2.89,0.08,-0.24,-0.11,-36.78,-10.46,25.48
20344,-8.53,-3.95,3.46,0.08,-0.21,-0.10,-36.78,-10.46,25.48
20355,-8.53,-3.95,3.46,0.08,-0.21,-0.10,-36.78,-10.46,25.48
20366,-8.22,-4.30,3.51,0.04,-0.10,-0.10,-36.78,-10.46,25.48
20377,-8.33,-4.02,3.31,0.06,-0.01,-0.15,-36.78,-10.46,25.48
20388,-8.33,-4.02,3.31,0.06,-0.01,-0.15,-36.78,-10.46,25.48
20399,-8.66,-4.44,2.97,0.06,0.05,-0.22,-36.03,-10.46,27.45
20410,-8.66,-4.44,2.97,0.06,0.05,-0.22,-36.03,-10.46,27.45
20421,-8.71,-4.10,2.77,0.11,0.09,-0.20,-36.03,-10.46,27.45
20432,-8.71,-4.10,2.77,0.11,0.09,-0.20,-36.03,-10.46,27.45
20443,-8.59,-4.05,3.74,0.08,0.09,-0.16,-36.03,-10.46,27.45
20454,-8.59,-4.05,3.74,0.08,0.09,-0.16,-36.03,-10.46,27.45
20465,-8.56,-4.31,2.80,0.06,0.14,-0.12,-36.03,-10.46,27.45
20476,-8.56,-4.31,2.80,0.06,0.14,-0.12,-36.03,-10.46,27.45
20487,-8.59,-3.70,3.60,0.04,0.15,-0.09,-36.03,-10.46,27.45
20498,-8.46,-4.33,3.06,0.04,0.20,-0.12,-36.03,-10.46,27.45
20509,-8.46,-4.33,3.06,0.04,0.20,-0.12,-36.03,-10.46,27.45
20520,-8.64,-3.62,3.25,-0.03,0.19,-0.12,-35.46,-11.33,25.31
20531,-8.64,-3.62,3.25,-0.03,0.19,-0.12,-35.46,-11.33,25.31
20542,-8.37,-4.08,2.57,-0.11,0.26,-0.16,-35.46,-11.33,25.31
20553,-8.37,-4.08,2.57,-0.11,0.26,-0.16,-35.46,-11.33,25.31
20564,-8.50,-4.00,2.41,-0.11,0.25,-0.10,-35.46,-11.33,25.31
20575,-8.50,-4.00,2.41,-0.11,0.25,-0.10,-35.46,-11.33,25.31
20586,-8.32,-4.18,3.07,0.02,0.22,-0.05,-35.46,-11.33,25.31
20597,-8.62,-3.98,2.81,-0.04,0.24,-0.04,-35.46,-11.33,25.31
20608,-8.62,-3.98,2.81,-0.04,0.24,-0.04,-35.46,-11.33,25.31
20619,-8.19,-3.98,2.65,-0.09,0.20,-0.01,-35.46,-11.33,25.31
20630,-8.19,-3.98,2.65,-0.09,0.20,-0.01,-35.46,-11.33,25.31
20641,-8.43,-3.82,2.46,-0.15,0.14,-0.02,-35.46,-11.33,25.31
20653,-8.43,-3.82,2.46,-0.15,0.14,-0.02,-35.46,-11.33,25.31
20663,-8.37,-4.28,2.77,-0.16,0.12,-0.03,-37.73,-10.63,25.97
20674,-8.37,-4.28,2.77,-0.16,0.12,-0.03,-37.73,-10.63,25.97
20685,-8.43,-4.15,2.94,-0.13,0.10,-0.02,-37.73,-10.63,25.97
20696,-8.43,-4.15,2.94,-0.13,0.10,-0.02,-37.73,-10.63,25.97
20707,-8.31,-4.29,2.99,-0.16,0.12,-0.04,-37.73,-10.63,25.97
20718,-8.36,-4.61,2.33,-0.20,0.11,-0.05,-37.73,-10.63,25.97
20729,-8.36,-4.61,2.33,-0.20,0.11,-0.05,-37.73,-10.63,25.97
20740,-8.62,-4.32,2.41,-0.11,0.08,0.03,-37.73,-10.63,25.97
20751,-8.62,-4.32,2.41,-0.11,0.08,0.03,-37.73,-10.63,25.97
20762,-8.55,-4.33,2.61,-0.07,0.06,0.09,-37.73,-10.63,25.97
20773,-8.55,-4.33,2.61,-0.07,0.06,0.09,-37.73,-10.63,25.97
20784,-8.35,-4.13,2.65,-0.07,0.06,0.11,-36.97,-10.98,24.33
20795,-8.35,-4.13,2.65,-0.07,0.06,0.11,-36.97,-10.98,24.33
20806,-8.79,-4.25,2.70,-0.12,0.03,0.14,-36.97,-10.98,24.33
20817,-8.79,-4.25,2.70,-0.12,0.03,0.14,-36.97,-10.98,24.33
20828,-8.48,-4.13,2.45,-0.19,0.04,0.15,-36.97,-10.98,24.33
20839,-8.53,-4.40,2.12,-0.23,-0.03,0.19,-36.97,-10.98,24.33
20850,-8.53,-4.40,2.12,-0.23,-0.03,0.19,-36.97,-10.98,24.33
20861,-8.27,-4.26,2.66,-0.26,-0.15,0.25,-36.97,-10.98,24.33
20872,-8.27,-4.26,2.66,-0.26,-0.15,0.25,-36.97,-10.98,24.33
20883,-8.20,-4.40,3.17,-0.18,-0.22,0.21,-36.97,-10.98,24.33
20894,-8.20,-4.40,3.17,-0.18,-0.22,0.21,-36.97,-10.98,24.33
20905,-7.82,-4.86,2.53,-0.13,-0.27,0.09,-38.29,-11.85,24.49
20916,-7.82,-4.86,2.53,-0.13,-0.27,0.09,-38.29,-11.85,24.49
20927,-7.93,-4.94,3.04,-0.12,-0.29,0.09,-38.29,-11.85,24.49
20938,-8.16,-5.17,2.52,-0.11,-0.27,0.03,-38.29,-11.85,24.49
20949,-8.16,-5.17,2.52,-0.11,-0.27,0.03,-38.29,-11.85,24.49
20960,-8.20,-4.84,2.63,0.01,-0.26,0.06,-38.29,-11.85,24.49
20971,-8.20,-4.84,2.63,0.01,-0.26,0.06,-38.29,-11.85,24.49
20982,-8.09,-4.76,2.55,0.09,-0.25,0.10,-38.29,-11.85,24.49
20993,-8.09,-4.76,2.55,0.09,-0.25,0.10,-38.29,-11.85,24.49
21004,-8.05,-4.03,2.74,0.10,-0.23,0.06,-38.29,-11.85,24.49
21015,-8.05,-4.03,2.74,0.10,-0.23,0.06,-38.29,-11.85,24.49
21026,-8.50,-4.30,2.90,0.14,-0.24,-0.03,-38.29,-11.85,24.49
21037,-8.50,-4.30,2.90,0.14,-0.24,-0.03,-38.29,-11.85,24.49
21048,-8.06,-4.02,2.93,0.19,-0.23,-0.06,-36.78,-11.85,26.46
21059,-8.79,-3.91,3.81,0.22,-0.17,-0.15,-36.78,-11.85,26.46
21070,-8.79,-3.91,3.81,0.22,-0.17,-0.15,-36.78,-11.85,26.46
21081,-8.83,-4.20,2.85,0.07,0.04,-0.28,-36.78,-11.85,26.46
21092,-8.83,-4.20,2.85,0.07,0.04,-0.28,-36.78,-11.85,26.46
21103,-8.66,-4.34,2.81,0.02,0.13,-0.26,-36.78,-11.85,26.46
21114,-8.66,-4.34,2.81,0.02,0.13,-0.26,-36.78,-11.85,26.46
21125,-8.71,-4.02,2.73,0.01,0.14,-0.13,-36.78,-11.85,26.46
21136,-8.71,-4.02,2.73,0.01,0.14,-0.13,-36.78,-11.85,26.46
21147,-8.33,-4.11,3.44,0.05,0.16,-0.06,-36.78,-11.85,26.46
21158,-8.20,-4.51,2.75,0.03,0.20,-0.09,-37.54,-10.11,26.79
21169,-8.20,-4.51,2.75,0.03,0.20,-0.09,-37.54,-10.11,26.79
21180,-8.33,-4.05,2.91,-0.00,0.17,-0.10,-37.54,-10.11,26.79
21191,-8.33,-4.05,2.91,-0.00,0.17,-0.10,-37.54,-10.11,26.79
21202,-8.37,-4.28,2.59,-0.05,0.16,-0.16,-37.54,-10.11,26.79
21213,-8.37,-4.28,2.59,-0.05,0.16,-0.16,-37.54,-10.11,26.79
21224,-8.51,-4.31,2.87,-0.05,0.14,-0.14,-37.54,-10.11,26.79
21235,-8.51,-4.31,2.87,-0.05,0.14,-0.14,-37.54,-10.11,26.79
21246,-8.54,-3.97,2.95,-0.05,0.18,-0.12,-37.54,-10.11,26.79
21257,-8.54,-3.97,2.95,-0.05,0.18,-0.12,-37.54,-10.11,26.79
21268,-8.56,-4.61,2.24,-0.05,0.19,-0.12,-37.54,-10.11,26.79
21279,-8.59,-4.00,2.47,-0.06,0.17,-0.05,-36.97,-12.38,25.31
21290,-8.59,-4.00,2.47,-0.06,0.17,-0.05,-36.97,-12.38,25.31
21301,-8.50,-4.38,2.82,-0.08,0.22,-0.07,-36.97,-12.38,25.31
21312,-8.50,-4.38,2.82,-0.08,0.22,-0.07,-36.97,-12.38,25.31
21323,-8.51,-4.44,2.52,-0.13,0.22,-0.07,-36.97,-12.38,25.31
21334,-8.51,-4.44,2.52,-0.13,0.22,-0.07,-36.97,-12.38,25.31
21345,-8.47,-4.38,3.15,-0.16,0.13,-0.05,-36.97,-12.38,25.31
21356,-8.47,-4.38,3.15,-0.16,0.13,-0.05,-36.97,-12.38,25.31
21367,-8.21,-4.56,2.33,-0.23,0.12,-0.07,-36.97,-12.38,25.31
21378,-8.32,-4.41,2.59,-0.19,0.10,-0.04,-36.97,-12.38,25.31
21389,-8.32,-4.41,2.59,-0.19,0.10,-0.04,-36.97,-12.38,25.31
21400,-8.32,-4.63,2.20,-0.22,0.14,-0.03,-37.54,-13.60,24.49
21411,-8.32,-4.63,2.20,-0.22,0.14,-0.03,-37.54,-13.60,24.49
21422,-8.42,-4.87,2.25,-0.13,0.06,0.06,-37.54,-13.60,24.49
21433,-8.42,-4.87,2.25,-0.13,0.06,0.06,-37.54,-13.60,24.49
21444,-8.69,-3.89,2.49,-0.10,-0.00,0.15,-37.54,-13.60,24.49
21455,-8.69,-3.89,2.49,-0.10,-0.00,0.15,-37.54,-13.60,24.49
21466,-8.32,-4.39,2.01,-0.19,-0.04,0.07,-37.54,-13.60,24.49
21477,-8.32,-4.39,2.01,-0.19,-0.04,0.07,-37.54,-13.60,24.49
21488,-8.37,-4.02,2.64,-0.15,-0.08,0.07,-37.54,-13.60,24.49
21499,-8.72,-4.73,2.46,-0.27,-0.05,0.02,-37.54,-13.60,24.49
21510,-8.72,-4.73,2.46,-0.27,-0.05,0.02,-37.54,-13.60,24.49
21521,-8.39,-4.75,2.04,-0.32,-0.06,0.13,-37.54,-13.60,24.49
21532,-8.39,-4.75,2.04,-0.32,-0.06,0.13,-37.54,-13.60,24.49
21543,-8.35,-5.01,2.48,-0.17,-0.15,0.25,-37.16,-12.55,24.16
21554,-8.35,-5.01,2.48,-0.17,-0.15,0.25,-37.16,-12.55,24.16
21565,-8.30,-4.64,2.53,-0.05,-0.26,0.31,-37.16,-12.55,24.16
21576,-8.30,-4.64,2.53,-0.05,-0.26,0.31,-37.16,-12.55,24.16
21587,-7.98,-4.09,2.61,-0.05,-0.31,0.21,-37.16,-12.55,24.16
21598,-8.34,-4.69,2.66,-0.12,-0.34,0.03,-37.16,-12.55,24.16
21609,-8.34,-4.69,2.66,-0.12,-0.34,0.03,-37.16,-12.55,24.16
21620,-8.35,-4.90,2.66,-0.05,-0.32,0.04,-37.16,-12.55,24.16
21631,-8.35,-4.90,2.66,-0.05,-0.32,0.04,-37.16,-12.55,24.16
21642,-7.97,-4.80,2.25,-0.03,-0.25,-0.00,-37.16,-12.55,24.16
21653,-7.97,-4.80,2.25,-0.03,-0.25,-0.00,-37.16,-12.55,24.16
21664,-8.05,-5.24,2.48,0.12,-0.27,-0.03,-36.59,-12.38,25.31
21675,-8.05,-5.24,2.48,0.12,-0.27,-0.03,-36.59,-12.38,25.31
21686,-8.38,-4.42,2.78,0.19,-0.28,0.00,-36.59,-12.38,25.31
21697,-8.38,-4.42,2.78,0.19,-0.28,0.00,-36.59,-12.38,25.31
21708,-8.41,-4.62,2.81,0.15,-0.16,-0.10,-36.59,-12.38,25.31
21719,-8.47,-4.56,2.90,0.25,-0.07,-0.12,-36.59,-12.38,25.31
21730,-8.47,-4.56,2.90,0.25,-0.07,-0.12,-36.59,-12.38,25.31
21741,-8.38,-4.45,2.58,0.29,0.03,-0.12,-36.59,-12.38,25.31
21752,-8.38,-4.45,2.58,0.29,0.03,-0.12,-36.59,-12.38,25.31
21763,-8.55,-4.22,3.16,0.28,0.07,-0.11,-36.59,-12.38,25.31
21774,-8.55,-4.22,3.16,0.28,0.07,-0.11,-36.59,-12.38,25.31
21786,-8.61,-4.14,2.63,0.08,0.14,-0.13,-35.65,-13.95,24.82
21796,-8.61,-4.14,2.63,0.08,0.14,-0.13,-35.65,-13.95,24.82
21807,-8.69,-3.94,2.77,-0.05,0.15,-0.11,-35.65,-13.95,24.82
21818,-8.69,-3.94,2.77,-0.05,0.15,-0.11,-35.65,-13.95,24.82
21829,-8.47,-4.13,2.78,-0.19,0.22,-0.15,-35.65,-13.95,24.82
21840,-8.32,-4.56,2.52,-0.10,0.23,-0.17,-35.65,-13.95,24.82
21851,-8.32,-4.56,2.52,-0.10,0.23,-0.17,-35.65,-13.95,24.82
21862,-8.42,-4.30,2.93,-0.06,0.21,-0.16,-35.65,-13.95,24.82
21873,-8.42,-4.30,2.93,-0.06,0.21,-0.16,-35.65,-13.95,24.82
21884,-8.33,-4.65,2.62,-0.18,0.30,-0.15,-35.65,-13.95,24.82
21895,-8.33,-4.65,2.62,-0.18,0.30,-0.15,-35.65,-13.95,24.82
21906,-8.57,-5.07,2.78,-0.18,0.23,-0.06,-35.65,-13.95,24.82
21917,-8.57,-5.07,2.78,-0.18,0.23,-0.06,-35.65,-13.95,24.82
21928,-8.63,-4.34,2.38,-0.15,0.22,0.09,-36.21,-12.38,24.00
21939,-8.39,-4.46,2.43,-0.24,0.25,0.11,-36.21,-12.38,24.00
21950,-8.39,-4.46,2.43,-0.24,0.25,0.11,-36.21,-12.38,24.00
21961,-9.08,-4.30,1.81,-0.28,0.26,0.18,-36.21,-12.38,24.00
21972,-9.08,-4.30,1.81,-0.28,0.26,0.18,-36.21,-12.38,24.00
21983,-8.58,-4.33,2.49,-0.14,0.24,0.27,-36.21,-12.38,24.00
21994,-8.58,-4.33,2.49,-0.14,0.24,0.27,-36.21,-12.38,24.00
22005,-8.74,-4.38,1.92,-0.27,0.19,0.34,-36.21,-12.38,24.00
22016,-8.74,-4.38,1.92,-0.27,0.19,0.34,-36.21,-12.38,24.00
22027,-8.62,-4.21,1.63,-0.21,0.11,0.39,-36.21,-12.38,24.00
22038,-8.62,-4.21,1.63,-0.21,0.11,0.39,-36.21,-12.38,24.00
22049,-9.35,-4.37,0.95,-0.03,0.06,0.46,-39.62,-11.68,23.67
22060,-10.62,-5.09,1.06,0.40,-0.04,0.59,-39.62,-11.68,23.67
22071,-10.62,-5.09,1.06,0.40,-0.04,0.59,-39.62,-11.68,23.67
22082,-13.42,-2.23,1.50,0.30,-0.60,0.16,-39.62,-11.68,23.67
22093,-13.42,-2.23,1.50,0.30,-0.60,0.16,-39.62,-11.68,23.67
22104,-11.08,-4.40,3.12,-0.23,-1.54,-1.50,-39.62,-11.68,23.67
22115,-11.08,-4.40,3.12,-0.23,-1.54,-1.50,-39.62,-11.68,23.67
22126,-8.48,-7.39,3.31,-0.38,-1.79,-2.48,-39.62,-11.68,23.67
22137,-8.48,-7.39,3.31,-0.38,-1.79,-2.48,-39.62,-11.68,23.67
22148,-6.79,-8.86,3.35,-0.32,-1.56,-2.23,-39.62,-11.68,23.67
22159,-6.21,-7.69,2.41,-0.01,-1.11,-1.32,-33.19,-16.21,28.60
22170,-6.21,-7.69,2.41,-0.01,-1.11,-1.32,-33.19,-16.21,28.60
22181,-6.04,-5.64,1.60,0.30,-0.79,-0.63,-33.19,-16.21,28.60
22192,-6.04,-5.64,1.60,0.30,-0.79,-0.63,-33.19,-16.21,28.60
22203,-5.30,-4.97,1.98,0.40,-0.64,-0.38,-33.19,-16.21,28.60
22214,-5.30,-4.97,1.98,0.40,-0.64,-0.38,-33.19,-16.21,28.60
22225,-4.16,-4.71,2.28,0.40,-0.40,-0.24,-33.19,-16.21,28.60
22236,-4.16,-4.71,2.28,0.40,-0.40,-0.24,-33.19,-16.21,28.60
22247,-3.68,-4.25,2.84,0.32,-0.18,-0.02,-33.19,-16.21,28.60
22258,-3.68,-4.25,2.84,0.32,-0.18,-0.02,-33.19,-16.21,28.60
22269,-4.64,-4.25,3.89,0.13,0.01,0.25,-33.19,-16.21,28.60
22280,-5.94,-4.24,3.29,-0.18,0.15,0.55,-33.19,-16.21,28.60
22291,-5.94,-4.24,3.29,-0.18,0.15,0.55,-33.19,-16.21,28.60
22302,-7.22,-3.92,2.31,-0.18,0.15,0.75,-30.92,-17.61,29.26
22313,-7.22,-3.92,2.31,-0.18,0.15,0.75,-30.92,-17.61,29.26
22324,-7.36,-3.74,2.62,0.44,0.20,0.76,-30.92,-17.61,29.26
22335,-7.36,-3.74,2.62,0.44,0.20,0.76,-30.92,-17.61,29.26
22347,-7.98,-3.67,2.60,0.94,0.20,0.61,-30.92,-17.61,29.26
22357,-7.98,-3.67,2.60,0.94,0.20,0.61,-30.92,-17.61,29.26
22368,-8.48,-3.43,2.37,1.17,0.06,0.39,-30.92,-17.61,29.26
22379,-8.60,-3.22,2.64,1.36,-0.21,0.14,-30.92,-17.61,29.26
22390,-8.60,-3.22,2.64,1.36,-0.21,0.14,-30.92,-17.61,29.26
22401,-8.81,-3.22,2.85,1.29,-0.64,-0.07,-30.92,-17.61,29.26
22412,-8.81,-3.22,2.85,1.29,-0.64,-0.07,-30.92,-17.61,29.26
22423,-8.35,-2.86,3.10,1.16,-1.19,-0.18,-29.59,-8.71,34.02
22434,-8.35,-2.86,3.10,1.16,-1.19,-0.18,-29.59,-8.71,34.02
22445,-7.67,-2.08,3.84,0.85,-1.74,-0.23,-29.59,-8.71,34.02
22456,-7.67,-2.08,3.84,0.85,-1.74,-0.23,-29.59,-8.71,34.02
22467,-7.29,-1.67,5.34,0.50,-2.21,-0.28,-29.59,-8.71,34.02
22478,-7.29,-1.67,5.34,0.50,-2.21,-0.28,-29.59,-8.71,34.02
22489,-5.34,-3.67,9.22,0.23,-2.32,-0.29,-29.59,-8.71,34.02
22500,-6.53,-10.38,17.24,0.62,-1.34,0.32,-29.59,-8.71,34.02
22511,-6.53,-10.38,17.24,0.62,-1.34,0.32,-29.59,-8.71,34.02
22522,-9.29,-10.43,10.50,0.68,0.43,1.18,-29.59,-8.71,34.02
22533,-9.29,-10.43,10.50,0.68,0.43,1.18,-29.59,-8.71,34.02
22544,-6.24,-6.86,3.38,0.02,-0.03,1.38,-25.62,-8.54,35.50
22555,-6.24,-6.86,3.38,0.02,-0.03,1.38,-25.62,-8.54,35.50
22566,-5.29,-2.87,5.54,1.15,-0.91,1.61,-25.62,-8.54,35.50
22578,-5.29,-2.87,5.54,1.15,-0.91,1.61,-25.62,-8.54,35.50
22588,-5.66,-2.86,7.97,1.20,-0.92,1.39,-25.62,-8.54,35.50
22599,-5.11,-4.80,5.83,0.65,-0.22,1.21,-25.62,-8.54,35.50
22610,-5.11,-4.80,5.83,0.65,-0.22,1.21,-25.62,-8.54,35.50
22621,-5.50,-4.91,4.37,1.01,0.27,1.54,-25.62,-8.54,35.50
22632,-5.50,-4.91,4.37,1.01,0.27,1.54,-25.62,-8.54,35.50
22643,-6.53,-2.80,4.88,1.53,0.36,1.90,-25.62,-8.54,35.50
22654,-6.53,-2.80,4.88,1.53,0.36,1.90,-25.62,-8.54,35.50
22665,-6.94,-1.08,5.42,1.80,0.37,1.93,-23.54,2.10,35.66
22676,-6.94,-1.08,5.42,1.80,0.37,1.93,-23.54,2.10,35.66
22687,-7.21,0.40,5.49,1.82,0.35,1.70,-23.54,2.10,35.66
22698,-7.21,0.40,5.49,1.82,0.35,1.70,-23.54,2.10,35.66
22709,-7.90,1.25,5.72,1.55,0.18,1.27,-23.54,2.10,35.66
22720,-8.17,0.80,6.24,1.06,-0.12,0.78,-23.54,2.10,35.66
22731,-8.17,0.80,6.24,1.06,-0.12,0.78,-23.54,2.10,35.66
22742,-7.68,0.33,6.34,0.49,-0.40,0.43,-23.54,2.10,35.66
22753,-7.68,0.33,6.34,0.49,-0.40,0.43,-23.54,2.10,35.66
22764,-7.39,-0.24,6.75,0.17,-0.53,0.21,-23.54,2.10,35.66
22775,-7.39,-0.24,6.75,0.17,-0.53,0.21,-23.54,2.10,35.66
22786,-7.12,-0.81,6.83,0.04,-0.47,0.07,-23.54,2.10,35.66
