time,ax,ay,az,gx,gy,gz,mx,my,mz
401,-0.42,6.31,-8.07,0.00,-0.00,-0.00,-21.65,26.52,-27.11
411,-0.42,6.31,-8.07,0.00,-0.00,-0.00,-21.65,26.52,-27.11
422,-0.46,6.36,-8.06,-0.00,-0.00,-0.00,-21.65,26.52,-27.11
433,-0.49,6.37,-8.06,-0.00,-0.00,-0.00,-20.70,26.69,-26.29
444,-0.49,6.37,-8.06,-0.00,-0.00,-0.00,-20.70,26.69,-26.29
455,-0.48,6.34,-8.10,0.00,-0.00,-0.00,-20.70,26.69,-26.29
466,-0.48,6.34,-8.10,0.00,-0.00,-0.00,-20.70,26.69,-26.29
477,-0.44,6.30,-8.10,0.00,-0.00,-0.00,-20.70,26.69,-26.29
488,-0.44,6.30,-8.10,0.00,-0.00,-0.00,-20.70,26.69,-26.29
499,-0.41,6.31,-8.08,0.00,-0.00,-0.00,-20.70,26.69,-26.29
510,-0.41,6.31,-8.08,0.00,-0.00,-0.00,-20.70,26.69,-26.29
521,-0.47,6.37,-8.04,-0.00,-0.00,-0.00,-20.70,26.69,-26.29
532,-0.47,6.37,-8.04,-0.00,-0.00,-0.00,-20.70,26.69,-26.29
543,-0.51,6.41,-7.99,-0.00,-0.00,-0.00,-20.70,26.69,-26.29
554,-0.47,6.39,-8.01,-0.00,-0.00,-0.00,-21.84,25.99,-26.95
565,-0.47,6.39,-8.01,-0.00,-0.00,-0.00,-21.84,25.99,-26.95
576,-0.44,6.32,-8.10,0.01,0.00,-0.00,-21.84,25.99,-26.95
587,-0.44,6.32,-8.10,0.01,0.00,-0.00,-21.84,25.99,-26.95
598,-0.41,6.26,-8.09,0.00,-0.00,-0.00,-21.84,25.99,-26.95
609,-0.41,6.26,-8.09,0.00,-0.00,-0.00,-21.84,25.99,-26.95
620,-0.44,6.34,-8.03,-0.00,-0.00,-0.00,-21.84,25.99,-26.95
631,-0.44,6.34,-8.03,-0.00,-0.00,-0.00,-21.84,25.99,-26.95
642,-0.49,6.38,-8.04,-0.00,-0.00,-0.01,-21.84,25.99,-26.95
653,-0.51,6.34,-8.03,0.00,-0.00,-0.00,-21.84,25.99,-26.95
664,-0.51,6.34,-8.03,0.00,-0.00,-0.00,-21.84,25.99,-26.95
675,-0.50,6.31,-8.09,0.00,-0.00,-0.00,-21.46,25.65,-26.62
686,-0.50,6.31,-8.09,0.00,-0.00,-0.00,-21.46,25.65,-26.62
697,-0.38,6.36,-8.07,0.00,0.00,-0.00,-21.46,25.65,-26.62
708,-0.38,6.36,-8.07,0.00,0.00,-0.00,-21.46,25.65,-26.62
719,-0.40,6.35,-8.06,-0.00,-0.00,-0.00,-21.46,25.65,-26.62
731,-0.40,6.35,-8.06,-0.00,-0.00,-0.00,-21.46,25.65,-26.62
741,-0.49,6.29,-8.09,0.00,-0.00,-0.00,-21.46,25.65,-26.62
752,-0.49,6.29,-8.09,0.00,-0.00,-0.00,-21.46,25.65,-26.62
763,-0.50,6.38,-8.03,-0.00,-0.00,-0.01,-21.46,25.65,-26.62
774,-0.46,6.37,-8.03,-0.00,0.00,-0.00,-21.46,25.65,-26.62
785,-0.46,6.37,-8.03,-0.00,0.00,-0.00,-21.46,25.65,-26.62
796,-0.43,6.29,-8.09,0.01,0.00,-0.00,-21.46,25.65,-26.62
807,-0.43,6.29,-8.09,0.01,0.00,-0.00,-21.46,25.65,-26.62
818,-0.40,6.31,-8.11,0.00,-0.00,-0.00,-21.46,25.99,-26.29
829,-0.40,6.31,-8.11,0.00,-0.00,-0.00,-21.46,25.99,-26.29
840,-0.44,6.37,-8.05,-0.00,-0.00,-0.01,-21.46,25.99,-26.29
851,-0.44,6.37,-8.05,-0.00,-0.00,-0.01,-21.46,25.99,-26.29
862,-0.51,6.37,-8.04,0.00,-0.00,-0.00,-21.46,25.99,-26.29
873,-0.51,6.37,-8.04,0.00,-0.00,-0.00,-21.46,25.99,-26.29
884,-0.51,6.32,-8.07,0.00,0.00,-0.00,-21.46,25.99,-26.29
895,-0.43,6.33,-8.05,0.00,0.00,-0.00,-21.46,25.99,-26.29
906,-0.43,6.33,-8.05,0.00,0.00,-0.00,-21.46,25.99,-26.29
917,-0.39,6.33,-8.06,0.00,-0.00,-0.00,-21.46,25.99,-26.29
928,-0.39,6.33,-8.06,0.00,-0.00,-0.00,-21.46,25.99,-26.29
939,-0.44,6.33,-8.08,-0.00,-0.00,-0.00,-21.27,25.47,-26.78
950,-0.44,6.33,-8.08,-0.00,-0.00,-0.00,-21.27,25.47,-26.78
961,-0.50,6.37,-8.04,-0.00,-0.00,-0.01,-21.27,25.47,-26.78
972,-0.50,6.37,-8.04,-0.00,-0.00,-0.01,-21.27,25.47,-26.78
983,-0.50,6.35,-8.05,0.00,-0.00,-0.00,-21.27,25.47,-26.78
994,-0.45,6.31,-8.10,0.00,0.00,-0.00,-21.27,25.47,-26.78
1005,-0.45,6.31,-8.10,0.00,0.00,-0.00,-21.27,25.47,-26.78
1016,-0.41,6.34,-8.06,0.00,0.00,-0.00,-21.27,25.47,-26.78
1027,-0.41,6.34,-8.06,0.00,0.00,-0.00,-21.27,25.47,-26.78
1038,-0.43,6.35,-8.06,-0.00,-0.00,-0.00,-21.27,25.47,-26.78
1049,-0.43,6.35,-8.06,-0.00,-0.00,-0.00,-21.27,25.47,-26.78
1060,-0.49,6.34,-8.08,0.00,-0.00,-0.00,-21.08,27.39,-26.62
1071,-0.49,6.34,-8.08,0.00,-0.00,-0.00,-21.08,27.39,-26.62
1082,-0.49,6.34,-8.05,0.00,-0.00,-0.00,-21.08,27.39,-26.62
1093,-0.49,6.34,-8.05,0.00,-0.00,-0.00,-21.08,27.39,-26.62
1104,-0.44,6.34,-8.04,0.00,0.00,-0.00,-21.08,27.39,-26.62
1115,-0.41,6.30,-8.07,0.00,0.00,-0.00,-21.08,27.39,-26.62
1126,-0.41,6.30,-8.07,0.00,0.00,-0.00,-21.08,27.39,-26.62
1137,-0.45,6.32,-8.10,-0.00,-0.00,-0.00,-21.08,27.39,-26.62
1148,-0.45,6.32,-8.10,-0.00,-0.00,-0.00,-21.08,27.39,-26.62
1159,-0.47,6.38,-8.04,-0.00,-0.00,-0.01,-21.08,27.39,-26.62
1170,-0.47,6.38,-8.04,-0.00,-0.00,-0.01,-21.08,27.39,-26.62
1182,-0.50,6.34,-8.05,0.00,-0.00,-0.00,-21.08,27.39,-26.62
1192,-0.50,6.34,-8.05,0.00,-0.00,-0.00,-21.08,27.39,-26.62
1203,-0.47,6.30,-8.12,0.00,-0.00,-0.00,-22.97,26.69,-27.28
1214,-0.40,6.34,-8.07,0.00,0.00,-0.00,-22.97,26.69,-27.28
1225,-0.40,6.34,-8.07,0.00,0.00,-0.00,-22.97,26.69,-27.28
1236,-0.41,6.35,-8.05,0.00,-0.00,-0.00,-22.97,26.69,-27.28
1247,-0.41,6.35,-8.05,0.00,-0.00,-0.00,-22.97,26.69,-27.28
1258,-0.48,6.34,-8.08,-0.00,-0.00,-0.00,-22.97,26.69,-27.28
1269,-0.48,6.34,-8.08,-0.00,-0.00,-0.00,-22.97,26.69,-27.28
1280,-0.49,6.35,-8.07,0.00,-0.00,-0.01,-22.97,26.69,-27.28
1291,-0.49,6.35,-8.07,0.00,-0.00,-0.01,-22.97,26.69,-27.28
1302,-0.45,6.34,-8.06,0.00,0.00,-0.00,-22.97,26.69,-27.28
1313,-0.45,6.34,-8.06,0.00,0.00,-0.00,-22.97,26.69,-27.28
1324,-0.42,6.31,-8.13,0.00,0.00,-0.00,-21.08,25.99,-26.95
1335,-0.43,6.33,-8.08,0.00,-0.00,-0.00,-21.08,25.99,-26.95
1346,-0.43,6.33,-8.08,0.00,-0.00,-0.00,-21.08,25.99,-26.95
1357,-0.45,6.37,-8.05,-0.00,-0.00,-0.01,-21.08,25.99,-26.95
1368,-0.45,6.37,-8.05,-0.00,-0.00,-0.01,-21.08,25.99,-26.95
1379,-0.49,6.35,-8.05,-0.00,-0.00,-0.00,-21.08,25.99,-26.95
1390,-0.49,6.35,-8.05,-0.00,-0.00,-0.00,-21.08,25.99,-26.95
1401,-0.47,6.32,-8.06,0.00,-0.00,-0.00,-21.08,25.99,-26.95
1413,-0.47,6.32,-8.06,0.00,-0.00,-0.00,-21.08,25.99,-26.95
1423,-0.42,6.31,-8.08,0.00,-0.00,-0.00,-21.08,25.99,-26.95
1434,-0.42,6.34,-8.09,0.00,-0.00,-0.00,-20.33,25.99,-26.29
1445,-0.42,6.34,-8.09,0.00,-0.00,-0.00,-20.33,25.99,-26.29
1456,-0.46,6.35,-8.05,-0.00,-0.00,-0.00,-20.33,25.99,-26.29
1467,-0.46,6.35,-8.05,-0.00,-0.00,-0.00,-20.33,25.99,-26.29
1478,-0.50,6.35,-8.04,-0.00,-0.00,-0.00,-20.33,25.99,-26.29
1489,-0.50,6.35,-8.04,-0.00,-0.00,-0.00,-20.33,25.99,-26.29
1500,-0.48,6.32,-8.06,0.00,-0.00,-0.00,-20.33,25.99,-26.29
1511,-0.48,6.32,-8.06,0.00,-0.00,-0.00,-20.33,25.99,-26.29
1522,-0.44,6.30,-8.07,0.00,-0.00,-0.00,-20.33,25.99,-26.29
1533,-0.44,6.30,-8.07,0.00,-0.00,-0.00,-20.33,25.99,-26.29
1544,-0.40,6.34,-8.06,-0.00,0.00,-0.00,-20.33,25.99,-26.29
1555,-0.45,6.35,-8.06,-0.00,-0.00,-0.00,-20.33,25.99,-26.29
1566,-0.45,6.35,-8.06,-0.00,-0.00,-0.00,-20.33,25.99,-26.29
1577,-0.49,6.35,-8.09,-0.00,-0.00,-0.00,-21.84,25.65,-25.31
1588,-0.49,6.35,-8.09,-0.00,-0.00,-0.00,-21.84,25.65,-25.31
1599,-0.49,6.33,-8.06,0.00,-0.00,-0.00,-21.84,25.65,-25.31
1610,-0.49,6.33,-8.06,0.00,-0.00,-0.00,-21.84,25.65,-25.31
1621,-0.43,6.33,-8.05,0.00,-0.00,-0.00,-21.84,25.65,-25.31
1632,-0.43,6.33,-8.05,0.00,-0.00,-0.00,-21.84,25.65,-25.31
1643,-0.44,6.33,-8.09,0.00,-0.00,-0.00,-21.84,25.65,-25.31
1654,-0.45,6.36,-8.05,-0.00,-0.00,-0.01,-21.84,25.65,-25.31
1665,-0.45,6.36,-8.05,-0.00,-0.00,-0.01,-21.84,25.65,-25.31
1676,-0.47,6.36,-8.04,-0.00,-0.00,-0.01,-21.84,25.65,-25.31
1687,-0.47,6.36,-8.04,-0.00,-0.00,-0.01,-21.84,25.65,-25.31
1698,-0.47,6.34,-8.09,0.00,-0.00,-0.00,-20.52,27.22,-27.11
1709,-0.47,6.34,-8.09,0.00,-0.00,-0.00,-20.52,27.22,-27.11
1720,-0.45,6.32,-8.08,0.00,0.00,-0.00,-20.52,27.22,-27.11
1731,-0.45,6.32,-8.08,0.00,0.00,-0.00,-20.52,27.22,-27.11
1742,-0.43,6.34,-8.06,0.00,-0.00,-0.00,-20.52,27.22,-27.11
1753,-0.43,6.34,-8.06,0.00,-0.00,-0.00,-20.52,27.22,-27.11
1764,-0.44,6.35,-8.06,0.00,-0.00,-0.00,-20.52,27.22,-27.11
1775,-0.47,6.34,-8.06,0.00,-0.00,-0.00,-20.52,27.22,-27.11
1786,-0.47,6.34,-8.06,0.00,-0.00,-0.00,-20.52,27.22,-27.11
1797,-0.48,6.34,-8.05,0.00,0.00,-0.00,-20.52,27.22,-27.11
1808,-0.48,6.34,-8.05,0.00,0.00,-0.00,-20.52,27.22,-27.11
1819,-0.44,6.32,-8.08,0.00,-0.00,-0.00,-22.03,27.22,-26.78
1830,-0.44,6.32,-8.08,0.00,-0.00,-0.00,-22.03,27.22,-26.78
1841,-0.42,6.31,-8.07,0.00,0.00,-0.00,-22.03,27.22,-26.78
1852,-0.42,6.31,-8.07,0.00,0.00,-0.00,-22.03,27.22,-26.78
1863,-0.43,6.34,-8.06,-0.00,-0.00,-0.00,-22.03,27.22,-26.78
1874,-0.47,6.35,-8.04,-0.00,-0.00,-0.00,-22.03,27.22,-26.78
1885,-0.47,6.35,-8.04,-0.00,-0.00,-0.00,-22.03,27.22,-26.78
1896,-0.48,6.34,-8.04,0.00,-0.00,-0.00,-22.03,27.22,-26.78
1907,-0.48,6.34,-8.04,0.00,-0.00,-0.00,-22.03,27.22,-26.78
1918,-0.45,6.33,-8.06,0.00,0.00,-0.00,-22.03,27.22,-26.78
1929,-0.45,6.33,-8.06,0.00,0.00,-0.00,-22.03,27.22,-26.78
1940,-0.43,6.30,-8.07,0.00,0.00,-0.00,-22.60,25.65,-26.29
1952,-0.43,6.30,-8.07,0.00,0.00,-0.00,-22.60,25.65,-26.29
1962,-0.45,6.33,-8.06,0.00,-0.00,-0.00,-22.60,25.65,-26.29
1973,-0.45,6.33,-8.06,0.00,-0.00,-0.00,-22.60,25.65,-26.29
1984,-0.47,6.36,-8.03,-0.00,-0.00,-0.00,-22.60,25.65,-26.29
1995,-0.49,6.34,-8.04,0.00,-0.00,-0.01,-22.60,25.65,-26.29
2006,-0.49,6.34,-8.04,0.00,-0.00,-0.01,-22.60,25.65,-26.29
2017,-0.47,6.32,-8.07,0.00,-0.00,-0.00,-22.60,25.65,-26.29
2028,-0.47,6.32,-8.07,0.00,-0.00,-0.00,-22.60,25.65,-26.29
2039,-0.43,6.33,-8.04,0.00,0.00,-0.00,-22.60,25.65,-26.29
2050,-0.43,6.33,-8.04,0.00,0.00,-0.00,-22.60,25.65,-26.29
2061,-0.43,6.35,-8.06,-0.00,-0.00,-0.00,-22.60,25.65,-26.29
2072,-0.43,6.35,-8.06,-0.00,-0.00,-0.00,-22.60,25.65,-26.29
2083,-0.46,6.33,-8.07,-0.00,-0.00,-0.00,-21.46,26.69,-25.96
2094,-0.46,6.33,-8.07,-0.00,-0.00,-0.00,-21.46,26.69,-25.96
2105,-0.50,6.35,-8.08,0.00,-0.00,-0.00,-21.46,26.69,-25.96
2116,-0.46,6.33,-8.07,0.00,0.00,-0.00,-21.46,26.69,-25.96
2127,-0.46,6.33,-8.07,0.00,0.00,-0.00,-21.46,26.69,-25.96
2138,-0.44,6.33,-8.06,0.00,0.00,-0.00,-21.46,26.69,-25.96
2149,-0.44,6.33,-8.06,0.00,0.00,-0.00,-21.46,26.69,-25.96
2160,-0.43,6.34,-8.07,0.00,-0.00,-0.00,-21.46,26.69,-25.96
2171,-0.43,6.34,-8.07,0.00,-0.00,-0.00,-21.46,26.69,-25.96
2182,-0.46,6.34,-8.07,-0.00,-0.00,-0.00,-21.46,26.69,-25.96
2193,-0.46,6.34,-8.07,-0.00,-0.00,-0.00,-21.46,26.69,-25.96
2204,-0.47,6.34,-8.05,0.00,-0.00,-0.01,-21.46,26.34,-26.62
2215,-0.47,6.33,-8.07,0.00,-0.00,-0.00,-21.46,26.34,-26.62
2226,-0.47,6.33,-8.07,0.00,-0.00,-0.00,-21.46,26.34,-26.62
2237,-0.43,6.33,-8.06,0.00,-0.00,-0.00,-21.46,26.34,-26.62
2248,-0.43,6.33,-8.06,0.00,-0.00,-0.00,-21.46,26.34,-26.62
2259,-0.44,6.35,-8.06,0.00,-0.00,-0.00,-21.46,26.34,-26.62
2270,-0.44,6.35,-8.06,0.00,-0.00,-0.00,-21.46,26.34,-26.62
2281,-0.45,6.34,-8.04,0.00,-0.00,-0.00,-21.46,26.34,-26.62
2292,-0.45,6.34,-8.04,0.00,-0.00,-0.00,-21.46,26.34,-26.62
2303,-0.47,6.33,-8.07,0.00,-0.00,-0.00,-21.46,26.34,-26.62
2314,-0.47,6.33,-8.07,0.00,-0.00,-0.00,-21.46,26.34,-26.62
2325,-0.46,6.32,-8.07,0.00,-0.00,-0.00,-21.84,26.69,-26.62
2336,-0.44,6.33,-8.08,0.00,-0.00,-0.00,-21.84,26.69,-26.62
2347,-0.44,6.33,-8.08,0.00,-0.00,-0.00,-21.84,26.69,-26.62
2358,-0.42,6.34,-8.07,0.00,-0.00,-0.00,-21.84,26.69,-26.62
2369,-0.42,6.34,-8.07,0.00,-0.00,-0.00,-21.84,26.69,-26.62
2380,-0.46,6.34,-8.03,-0.00,-0.00,-0.00,-21.84,26.69,-26.62
2391,-0.46,6.34,-8.03,-0.00,-0.00,-0.00,-21.84,26.69,-26.62
2403,-0.48,6.34,-8.03,-0.00,-0.00,-0.00,-21.84,26.69,-26.62
2413,-0.48,6.34,-8.03,-0.00,-0.00,-0.00,-21.84,26.69,-26.62
2424,-0.48,6.34,-8.05,0.00,-0.00,-0.00,-21.84,26.69,-26.62
2435,-0.43,6.32,-8.09,0.00,0.00,-0.00,-21.84,26.69,-26.62
2446,-0.43,6.32,-8.09,0.00,0.00,-0.00,-21.84,26.69,-26.62
2457,-0.45,6.33,-8.06,0.00,-0.00,-0.00,-20.33,25.65,-27.28
2468,-0.45,6.33,-8.06,0.00,-0.00,-0.00,-20.33,25.65,-27.28
2479,-0.45,6.34,-8.07,0.00,-0.00,-0.00,-20.33,25.65,-27.28
2490,-0.45,6.34,-8.07,0.00,-0.00,-0.00,-20.33,25.65,-27.28
2501,-0.46,6.34,-8.04,0.00,-0.00,-0.00,-20.33,25.65,-27.28
2512,-0.46,6.34,-8.04,0.00,-0.00,-0.00,-20.33,25.65,-27.28
2523,-0.45,6.33,-8.07,0.00,-0.00,-0.00,-20.33,25.65,-27.28
2534,-0.45,6.33,-8.07,0.00,-0.00,-0.00,-20.33,25.65,-27.28
2545,-0.45,6.31,-8.10,0.00,-0.00,-0.00,-20.33,25.65,-27.28
2556,-0.43,6.34,-8.08,0.00,-0.00,-0.00,-20.33,25.65,-27.28
2567,-0.43,6.34,-8.08,0.00,-0.00,-0.00,-20.33,25.65,-27.28
2578,-0.44,6.35,-8.08,0.00,-0.00,-0.00,-20.89,27.22,-26.46
2589,-0.44,6.35,-8.08,0.00,-0.00,-0.00,-20.89,27.22,-26.46
2600,-0.45,6.35,-8.07,0.00,-0.00,-0.01,-20.89,27.22,-26.46
2611,-0.45,6.35,-8.07,0.00,-0.00,-0.01,-20.89,27.22,-26.46
2622,-0.47,6.33,-8.08,0.00,-0.00,-0.01,-20.89,27.22,-26.46
2633,-0.47,6.33,-8.08,0.00,-0.00,-0.01,-20.89,27.22,-26.46
2644,-0.45,6.33,-8.04,0.00,0.00,-0.00,-20.89,27.22,-26.46
2656,-0.44,6.33,-8.04,0.00,0.00,-0.00,-20.89,27.22,-26.46
2666,-0.44,6.33,-8.04,0.00,0.00,-0.00,-20.89,27.22,-26.46
2677,-0.45,6.34,-8.04,-0.00,-0.00,-0.00,-20.89,27.22,-26.46
2688,-0.45,6.34,-8.04,-0.00,-0.00,-0.00,-20.89,27.22,-26.46
2699,-0.49,6.34,-8.07,-0.00,-0.00,-0.00,-21.84,26.69,-26.95
2710,-0.49,6.34,-8.07,-0.00,-0.00,-0.00,-21.84,26.69,-26.95
2721,-0.46,6.33,-8.07,0.00,-0.00,-0.00,-21.84,26.69,-26.95
2732,-0.46,6.33,-8.07,0.00,-0.00,-0.00,-21.84,26.69,-26.95
2743,-0.44,6.33,-8.05,0.00,-0.00,-0.00,-21.84,26.69,-26.95
2754,-0.44,6.33,-8.05,0.00,-0.00,-0.00,-21.84,26.69,-26.95
2765,-0.43,6.32,-8.08,0.00,-0.00,-0.00,-21.84,26.69,-26.95
2776,-0.45,6.34,-8.05,0.00,-0.00,-0.00,-21.84,26.69,-26.95
2787,-0.45,6.34,-8.05,0.00,-0.00,-0.00,-21.84,26.69,-26.95
2798,-0.49,6.36,-8.07,-0.00,-0.00,-0.00,-21.84,26.69,-26.95
2809,-0.49,6.36,-8.07,-0.00,-0.00,-0.00,-21.84,26.69,-26.95
2820,-0.48,6.35,-8.08,0.00,-0.00,-0.00,-21.84,26.69,-26.95
2831,-0.48,6.35,-8.08,0.00,-0.00,-0.00,-21.84,26.69,-26.95
2842,-0.47,6.33,-8.09,0.00,-0.00,-0.00,-20.89,25.47,-27.11
2853,-0.47,6.33,-8.09,0.00,-0.00,-0.00,-20.89,25.47,-27.11
2869,-0.44,6.33,-8.06,0.00,-0.00,-0.00,-20.89,25.47,-27.11
2875,-0.44,6.35,-8.03,0.00,-0.00,-0.00,-20.89,25.47,-27.11
2886,-0.44,6.35,-8.03,0.00,-0.00,-0.00,-20.89,25.47,-27.11
2897,-0.47,6.35,-8.07,-0.00,-0.00,-0.00,-20.89,25.47,-27.11
2908,-0.47,6.35,-8.07,-0.00,-0.00,-0.00,-20.89,25.47,-27.11
2919,-0.46,6.34,-8.04,0.00,-0.00,-0.00,-20.89,25.47,-27.11
2930,-0.46,6.34,-8.04,0.00,-0.00,-0.00,-20.89,25.47,-27.11
2941,-0.46,6.32,-8.04,0.00,-0.00,-0.00,-20.89,25.47,-27.11
2952,-0.46,6.32,-8.04,0.00,-0.00,-0.00,-20.89,25.47,-27.11
2963,-0.44,6.33,-8.08,0.00,-0.00,-0.00,-21.65,26.52,-27.11
2974,-0.44,6.33,-8.08,0.00,-0.00,-0.00,-21.65,26.52,-27.11
2985,-0.44,6.33,-8.06,0.00,-0.00,-0.00,-21.65,26.52,-27.11
2996,-0.48,6.35,-8.05,-0.00,0.00,-0.00,-21.65,26.52,-27.11
3007,-0.48,6.35,-8.05,-0.00,0.00,-0.00,-21.65,26.52,-27.11
3018,-0.47,6.34,-8.07,0.00,-0.00,-0.00,-21.65,26.52,-27.11
3029,-0.47,6.34,-8.07,0.00,-0.00,-0.00,-21.65,26.52,-27.11
3040,-0.45,6.34,-8.06,0.00,-0.00,-0.00,-21.65,26.52,-27.11
3051,-0.45,6.34,-8.06,0.00,-0.00,-0.00,-21.65,26.52,-27.11
3062,-0.45,6.34,-8.07,0.00,-0.00,-0.00,-21.65,26.52,-27.11
3073,-0.45,6.34,-8.07,0.00,-0.00,-0.00,-21.65,26.52,-27.11
3084,-0.45,6.34,-8.05,0.00,-0.00,-0.00,-21.46,27.39,-25.96
3095,-0.45,6.34,-8.05,0.00,-0.00,-0.00,-21.46,27.39,-25.96
3106,-0.47,6.35,-8.07,0.00,-0.00,-0.00,-21.46,27.39,-25.96
3117,-0.46,6.33,-8.08,0.00,-0.00,-0.00,-21.46,27.39,-25.96
3129,-0.46,6.33,-8.08,0.00,-0.00,-0.00,-21.46,27.39,-25.96
3139,-0.45,6.31,-8.07,0.00,-0.00,-0.00,-21.46,27.39,-25.96
3150,-0.45,6.31,-8.07,0.00,-0.00,-0.00,-21.46,27.39,-25.96
3161,-0.44,6.34,-8.08,0.00,-0.00,-0.00,-21.46,27.39,-25.96
3172,-0.44,6.34,-8.08,0.00,-0.00,-0.00,-21.46,27.39,-25.96
3183,-0.45,6.35,-8.07,-0.00,-0.00,-0.00,-21.46,27.39,-25.96
3194,-0.45,6.35,-8.07,-0.00,-0.00,-0.00,-21.46,27.39,-25.96
3205,-0.46,6.34,-8.06,0.00,-0.00,-0.01,-22.79,26.17,-27.77
3216,-0.46,6.34,-8.09,-0.00,-0.00,-0.00,-22.79,26.17,-27.77
3227,-0.46,6.34,-8.09,-0.00,-0.00,-0.00,-22.79,26.17,-27.77
3238,-0.46,6.33,-8.10,0.00,-0.00,-0.00,-22.79,26.17,-27.77
3249,-0.46,6.33,-8.10,0.00,-0.00,-0.00,-22.79,26.17,-27.77
3260,-0.46,6.34,-8.06,0.00,-0.00,-0.00,-22.79,26.17,-27.77
3271,-0.46,6.34,-8.06,0.00,-0.00,-0.00,-22.79,26.17,-27.77
3282,-0.45,6.33,-8.09,0.00,0.00,-0.00,-22.79,26.17,-27.77
3293,-0.45,6.33,-8.09,0.00,0.00,-0.00,-22.79,26.17,-27.77
3304,-0.46,6.34,-8.04,-0.00,-0.00,-0.00,-22.79,26.17,-27.77
3315,-0.46,6.34,-8.04,-0.00,-0.00,-0.00,-22.79,26.17,-27.77
3326,-0.46,6.34,-8.04,0.00,-0.00,-0.00,-22.79,26.17,-27.77
3337,-0.46,6.33,-8.09,0.00,-0.00,-0.00,-22.22,26.69,-27.28
3348,-0.46,6.33,-8.09,0.00,-0.00,-0.00,-22.22,26.69,-27.28
3359,-0.45,6.31,-8.07,0.00,-0.00,-0.00,-22.22,26.69,-27.28
3370,-0.45,6.31,-8.07,0.00,-0.00,-0.00,-22.22,26.69,-27.28
3382,-0.43,6.35,-8.06,0.00,0.00,-0.00,-22.22,26.69,-27.28
3392,-0.43,6.35,-8.06,0.00,0.00,-0.00,-22.22,26.69,-27.28
3403,-0.45,6.34,-8.06,-0.00,0.00,-0.00,-22.22,26.69,-27.28
3414,-0.45,6.34,-8.06,-0.00,0.00,-0.00,-22.22,26.69,-27.28
3425,-0.46,6.33,-8.06,-0.00,-0.00,-0.00,-22.22,26.69,-27.28
3436,-0.47,6.32,-8.06,0.00,-0.00,-0.00,-22.22,26.69,-27.28
3447,-0.47,6.32,-8.06,0.00,-0.00,-0.00,-22.22,26.69,-27.28
3458,-0.45,6.32,-8.08,0.00,-0.00,-0.00,-21.08,26.34,-27.93
3469,-0.45,6.32,-8.08,0.00,-0.00,-0.00,-21.08,26.34,-27.93
3480,-0.43,6.33,-8.09,0.00,-0.00,-0.00,-21.08,26.34,-27.93
3491,-0.43,6.33,-8.09,0.00,-0.00,-0.00,-21.08,26.34,-27.93
3502,-0.45,6.34,-8.06,-0.00,-0.00,-0.00,-21.08,26.34,-27.93
3513,-0.45,6.34,-8.06,-0.00,-0.00,-0.00,-21.08,26.34,-27.93
3524,-0.46,6.33,-8.08,0.00,-0.00,-0.00,-21.08,26.34,-27.93
3535,-0.46,6.33,-8.08,0.00,-0.00,-0.00,-21.08,26.34,-27.93
3546,-0.45,6.34,-8.07,0.00,-0.00,-0.00,-21.08,26.34,-27.93
3557,-0.45,6.33,-8.05,0.00,-0.00,-0.00,-21.08,26.34,-27.93
3568,-0.45,6.33,-8.05,0.00,-0.00,-0.00,-21.08,26.34,-27.93
3579,-0.45,6.32,-8.10,0.00,-0.00,-0.00,-22.60,25.65,-26.29
3590,-0.45,6.32,-8.10,0.00,-0.00,-0.00,-22.60,25.65,-26.29
3601,-0.44,6.34,-8.08,0.00,-0.00,-0.00,-22.60,25.65,-26.29
3612,-0.44,6.34,-8.08,0.00,-0.00,-0.00,-22.60,25.65,-26.29
3623,-0.46,6.33,-8.06,0.00,-0.00,-0.00,-22.60,25.65,-26.29
3634,-0.46,6.33,-8.06,0.00,-0.00,-0.00,-22.60,25.65,-26.29
3645,-0.47,6.34,-8.07,0.00,-0.00,-0.00,-22.60,25.65,-26.29
3656,-0.45,6.32,-8.08,0.00,-0.00,-0.00,-22.60,25.65,-26.29
3667,-0.45,6.32,-8.08,0.00,-0.00,-0.00,-22.60,25.65,-26.29
3678,-0.43,6.34,-8.08,0.00,-0.00,-0.00,-22.60,25.65,-26.29
3689,-0.43,6.34,-8.08,0.00,-0.00,-0.00,-22.60,25.65,-26.29
3700,-0.44,6.36,-8.06,0.00,-0.00,-0.00,-22.60,25.65,-26.29
3711,-0.44,6.36,-8.06,0.00,-0.00,-0.00,-22.60,25.65,-26.29
3722,-0.47,6.34,-8.09,-0.00,-0.00,-0.00,-22.22,25.99,-26.29
3733,-0.47,6.34,-8.09,-0.00,-0.00,-0.00,-22.22,25.99,-26.29
3744,-0.46,6.34,-8.08,0.00,-0.00,-0.00,-22.22,25.99,-26.29
3755,-0.46,6.34,-8.08,0.00,-0.00,-0.00,-22.22,25.99,-26.29
3766,-0.45,6.33,-8.07,0.00,-0.00,-0.00,-22.22,25.99,-26.29
3777,-0.44,6.34,-8.04,0.00,-0.00,-0.00,-22.22,25.99,-26.29
3788,-0.44,6.34,-8.04,0.00,-0.00,-0.00,-22.22,25.99,-26.29
3799,-0.44,6.34,-8.04,0.00,-0.00,-0.00,-22.22,25.99,-26.29
3810,-0.44,6.34,-8.04,0.00,-0.00,-0.00,-22.22,25.99,-26.29
3821,-0.46,6.34,-8.07,0.00,-0.00,-0.00,-22.22,25.99,-26.29
3832,-0.46,6.34,-8.07,0.00,-0.00,-0.00,-22.22,25.99,-26.29
3843,-0.46,6.32,-8.10,0.00,-0.00,-0.00,-21.46,25.65,-27.93
3854,-0.46,6.32,-8.10,0.00,-0.00,-0.00,-21.46,25.65,-27.93
3865,-0.47,6.33,-8.06,0.00,-0.00,-0.00,-21.46,25.65,-27.93
3876,-0.45,6.33,-8.04,0.00,-0.00,-0.00,-21.46,25.65,-27.93
3887,-0.45,6.33,-8.04,0.00,-0.00,-0.00,-21.46,25.65,-27.93
3898,-0.45,6.34,-8.05,0.00,-0.00,-0.00,-21.46,25.65,-27.93
3909,-0.45,6.34,-8.05,0.00,-0.00,-0.00,-21.46,25.65,-27.93
3920,-0.45,6.33,-8.05,0.00,-0.00,-0.00,-21.46,25.65,-27.93
3931,-0.45,6.33,-8.05,0.00,-0.00,-0.00,-21.46,25.65,-27.93
3946,-0.45,6.33,-8.05,0.00,-0.00,-0.00,-21.46,25.65,-27.93
3953,-0.45,6.33,-8.05,0.00,-0.00,-0.00,-21.46,25.65,-27.93
3964,-0.47,6.34,-8.07,0.00,0.00,-0.00,-20.33,26.34,-27.61
3975,-0.47,6.34,-8.07,0.00,0.00,-0.00,-20.33,26.34,-27.61
3986,-0.45,6.33,-8.05,0.00,-0.00,-0.00,-20.33,26.34,-27.61
3997,-0.45,6.35,-8.08,0.00,-0.00,-0.00,-20.33,26.34,-27.61
4008,-0.45,6.35,-8.08,0.00,-0.00,-0.00,-20.33,26.34,-27.61
4019,-0.46,6.35,-8.04,0.00,-0.00,-0.00,-20.33,26.34,-27.61
4030,-0.46,6.35,-8.04,0.00,-0.00,-0.00,-20.33,26.34,-27.61
4041,-0.46,6.33,-8.06,0.00,-0.00,-0.00,-20.33,26.34,-27.61
4052,-0.46,6.33,-8.06,0.00,-0.00,-0.00,-20.33,26.34,-27.61
4063,-0.45,6.34,-8.07,0.00,0.00,-0.00,-20.33,26.34,-27.61
4074,-0.45,6.34,-8.07,0.00,0.00,-0.00,-20.33,26.34,-27.61
4085,-0.44,6.33,-8.06,0.00,0.00,-0.00,-20.33,26.34,-27.61
4096,-0.46,6.36,-8.06,-0.00,-0.00,-0.00,-20.33,26.34,-27.61
4107,-0.46,6.36,-8.06,-0.00,-0.00,-0.00,-21.46,25.65,-28.26
4118,-0.45,6.33,-8.08,-0.00,-0.00,-0.00,-21.46,25.65,-28.26
4129,-0.45,6.33,-8.08,-0.00,-0.00,-0.00,-21.46,25.65,-28.26
4140,-0.45,6.33,-8.06,0.00,0.00,-0.00,-21.46,25.65,-28.26
4151,-0.45,6.33,-8.06,0.00,0.00,-0.00,-21.46,25.65,-28.26
4162,-0.45,6.34,-8.08,-0.00,-0.00,-0.00,-21.46,25.65,-28.26
4173,-0.45,6.34,-8.08,-0.00,-0.00,-0.00,-21.46,25.65,-28.26
4185,-0.46,6.34,-8.07,0.00,-0.00,-0.00,-21.46,25.65,-28.26
4195,-0.46,6.34,-8.07,0.00,-0.00,-0.00,-21.46,25.65,-28.26
4206,-0.45,6.35,-8.05,-0.00,-0.00,-0.00,-21.46,25.65,-28.26
4217,-0.46,6.34,-8.08,-0.00,-0.00,-0.00,-22.60,26.34,-26.29
4228,-0.46,6.34,-8.08,-0.00,-0.00,-0.00,-22.60,26.34,-26.29
4239,-0.46,6.33,-8.08,0.00,0.00,-0.00,-22.60,26.34,-26.29
4250,-0.46,6.33,-8.08,0.00,0.00,-0.00,-22.60,26.34,-26.29
4261,-0.45,6.32,-8.09,0.00,-0.00,-0.00,-22.60,26.34,-26.29
4272,-0.45,6.32,-8.09,0.00,-0.00,-0.00,-22.60,26.34,-26.29
4283,-0.45,6.33,-8.08,0.00,-0.00,-0.00,-22.60,26.34,-26.29
4294,-0.45,6.33,-8.08,0.00,-0.00,-0.00,-22.60,26.34,-26.29
4305,-0.46,6.34,-8.06,-0.00,-0.00,-0.00,-22.60,26.34,-26.29
4316,-0.46,6.34,-8.06,-0.00,-0.00,-0.00,-22.60,26.34,-26.29
4327,-0.44,6.34,-8.05,0.00,-0.00,-0.00,-22.60,26.34,-26.29
4338,-0.44,6.33,-8.10,0.00,-0.00,-0.00,-21.65,26.17,-26.78
4349,-0.44,6.33,-8.10,0.00,-0.00,-0.00,-21.65,26.17,-26.78
4360,-0.45,6.33,-8.07,0.00,-0.00,-0.00,-21.65,26.17,-26.78
4371,-0.45,6.33,-8.07,0.00,-0.00,-0.00,-21.65,26.17,-26.78
4382,-0.45,6.33,-8.07,0.00,-0.00,-0.00,-21.65,26.17,-26.78
4393,-0.45,6.33,-8.07,0.00,-0.00,-0.00,-21.65,26.17,-26.78
4404,-0.45,6.35,-8.05,0.00,-0.00,-0.00,-21.65,26.17,-26.78
4415,-0.45,6.35,-8.05,0.00,-0.00,-0.00,-21.65,26.17,-26.78
4426,-0.46,6.34,-8.06,0.00,-0.00,-0.00,-21.65,26.17,-26.78
4437,-0.46,6.35,-8.05,0.00,-0.00,-0.00,-21.65,26.17,-26.78
4448,-0.46,6.35,-8.05,0.00,-0.00,-0.00,-21.65,26.17,-26.78
4459,-0.45,6.35,-8.05,0.00,-0.00,-0.00,-22.22,26.34,-25.96
4470,-0.45,6.35,-8.05,0.00,-0.00,-0.00,-22.22,26.34,-25.96
4481,-0.45,6.33,-8.07,0.00,-0.00,-0.00,-22.22,26.34,-25.96
4492,-0.45,6.33,-8.07,0.00,-0.00,-0.00,-22.22,26.34,-25.96
4503,-0.45,6.35,-8.06,0.00,-0.00,-0.00,-22.22,26.34,-25.96
4514,-0.45,6.35,-8.06,0.00,-0.00,-0.00,-22.22,26.34,-25.96
4525,-0.45,6.34,-8.06,0.00,-0.00,-0.00,-22.22,26.34,-25.96
4536,-0.45,6.34,-8.06,0.00,-0.00,-0.00,-22.22,26.34,-25.96
4547,-0.45,6.34,-8.05,-0.00,-0.00,-0.00,-22.22,26.34,-25.96
4558,-0.45,6.33,-8.05,0.00,-0.00,-0.00,-22.22,26.34,-25.96
4569,-0.45,6.33,-8.05,0.00,-0.00,-0.00,-22.22,26.34,-25.96
4580,-0.45,6.34,-8.08,0.00,-0.00,-0.00,-22.22,26.34,-25.96
4591,-0.45,6.34,-8.08,0.00,-0.00,-0.00,-22.22,26.34,-25.96
4602,-0.44,6.34,-8.09,-0.00,-0.00,-0.00,-22.03,26.17,-26.78
4613,-0.44,6.34,-8.09,-0.00,-0.00,-0.00,-22.03,26.17,-26.78
4624,-0.45,6.35,-8.05,-0.00,-0.00,-0.00,-22.03,26.17,-26.78
4635,-0.45,6.35,-8.05,-0.00,-0.00,-0.00,-22.03,26.17,-26.78
4646,-0.45,6.33,-8.06,0.00,-0.00,-0.00,-22.03,26.17,-26.78
4657,-0.47,6.33,-8.08,0.00,-0.00,-0.00,-22.03,26.17,-26.78
4668,-0.47,6.33,-8.08,0.00,-0.00,-0.00,-22.03,26.17,-26.78
4679,-0.45,6.34,-8.07,0.00,-0.00,-0.00,-22.03,26.17,-26.78
4690,-0.45,6.34,-8.07,0.00,-0.00,-0.00,-22.03,26.17,-26.78
4701,-0.46,6.33,-8.07,-0.00,0.00,-0.00,-22.03,26.17,-26.78
4712,-0.46,6.33,-8.07,-0.00,0.00,-0.00,-22.03,26.17,-26.78
4723,-0.45,6.33,-8.07,0.00,-0.00,-0.00,-22.60,27.04,-26.29
4734,-0.45,6.33,-8.07,0.00,-0.00,-0.00,-22.60,27.04,-26.29
4746,-0.44,6.34,-8.07,0.00,-0.00,-0.00,-22.60,27.04,-26.29
4756,-0.44,6.34,-8.07,0.00,-0.00,-0.00,-22.60,27.04,-26.29
4767,-0.45,6.34,-8.07,0.00,-0.00,-0.00,-22.60,27.04,-26.29
4778,-0.46,6.34,-8.06,0.00,-0.00,-0.00,-22.60,27.04,-26.29
4789,-0.46,6.34,-8.06,0.00,-0.00,-0.00,-22.60,27.04,-26.29
4800,-0.44,6.33,-8.04,0.00,-0.00,-0.00,-22.60,27.04,-26.29
4811,-0.44,6.33,-8.04,0.00,-0.00,-0.00,-22.60,27.04,-26.29
4822,-0.45,6.35,-8.05,0.00,-0.00,-0.00,-22.60,27.04,-26.29
4833,-0.45,6.35,-8.05,0.00,-0.00,-0.00,-22.60,27.04,-26.29
4844,-0.45,6.34,-8.06,0.00,-0.00,-0.00,-23.16,25.47,-27.11
4855,-0.45,6.34,-8.06,0.00,-0.00,-0.00,-23.16,25.47,-27.11
4866,-0.45,6.33,-8.09,0.00,-0.00,-0.00,-23.16,25.47,-27.11
4877,-0.45,6.33,-8.05,0.00,-0.00,-0.00,-23.16,25.47,-27.11
4888,-0.45,6.33,-8.05,0.00,-0.00,-0.00,-23.16,25.47,-27.11
4899,-0.45,6.35,-8.07,0.00,-0.00,-0.00,-23.16,25.47,-27.11
4910,-0.45,6.35,-8.07,0.00,-0.00,-0.00,-23.16,25.47,-27.11
4921,-0.46,6.35,-8.06,0.00,-0.00,-0.01,-23.16,25.47,-27.11
4932,-0.46,6.35,-8.06,0.00,-0.00,-0.01,-23.16,25.47,-27.11
4943,-0.45,6.33,-8.06,0.00,-0.00,-0.00,-23.16,25.47,-27.11
4954,-0.45,6.33,-8.06,0.00,-0.00,-0.00,-23.16,25.47,-27.11
4965,-0.45,6.32,-8.07,0.00,-0.00,-0.00,-23.16,25.47,-27.11
4976,-0.45,6.32,-8.07,0.00,-0.00,-0.00,-23.16,25.47,-27.11
4987,-0.45,6.33,-8.08,0.00,-0.00,-0.00,-22.03,27.22,-26.13
4998,-0.46,6.33,-8.08,0.00,-0.00,-0.00,-22.03,27.22,-26.13
5009,-0.46,6.33,-8.08,0.00,-0.00,-0.00,-22.03,27.22,-26.13
5024,-0.46,6.34,-8.06,0.00,-0.00,-0.00,-22.03,27.22,-26.13
5031,-0.46,6.34,-8.06,0.00,-0.00,-0.00,-22.03,27.22,-26.13
5042,-0.45,6.35,-8.07,0.00,-0.00,-0.00,-22.03,27.22,-26.13
5053,-0.45,6.35,-8.07,0.00,-0.00,-0.00,-22.03,27.22,-26.13
5064,-0.46,6.34,-8.08,0.00,-0.00,-0.00,-22.03,27.22,-26.13
5075,-0.46,6.34,-8.08,0.00,-0.00,-0.00,-22.03,27.22,-26.13
5086,-0.44,6.33,-8.06,0.00,-0.00,-0.00,-22.03,27.22,-26.13
5097,-0.45,6.35,-8.07,0.00,-0.00,-0.00,-21.27,27.22,-26.13
5108,-0.45,6.35,-8.07,0.00,-0.00,-0.00,-21.27,28.26,-26.46
5119,-0.45,6.33,-8.04,0.00,0.00,-0.00,-21.27,28.26,-26.46
5130,-0.45,6.33,-8.04,0.00,0.00,-0.00,-21.27,28.26,-26.46
5141,-0.44,6.32,-8.04,-0.00,-0.00,-0.00,-21.27,28.26,-26.46
5152,-0.44,6.32,-8.04,-0.00,-0.00,-0.00,-21.27,28.26,-26.46
5163,-0.48,6.29,-8.05,-0.00,-0.00,-0.00,-21.27,28.26,-26.46
5174,-0.48,6.29,-8.05,-0.00,-0.00,-0.00,-21.27,28.26,-26.46
5185,-0.52,6.46,-8.19,-0.00,-0.00,-0.01,-21.27,28.26,-26.46
5196,-0.52,6.46,-8.19,-0.00,-0.00,-0.01,-21.27,28.26,-26.46
5212,-0.40,6.33,-8.06,0.00,-0.00,-0.00,-21.27,28.26,-26.46
5218,-0.36,6.34,-8.11,0.00,-0.00,-0.00,-21.27,26.52,-27.11
5229,-0.36,6.34,-8.11,0.00,-0.00,-0.00,-21.27,26.52,-27.11
5240,-0.45,6.36,-8.11,-0.00,-0.00,-0.01,-21.27,26.52,-27.11
5251,-0.45,6.36,-8.11,-0.00,-0.00,-0.01,-21.27,26.52,-27.11
5262,-0.54,6.36,-8.09,0.00,-0.00,-0.01,-21.27,26.52,-27.11
5273,-0.54,6.36,-8.09,0.00,-0.00,-0.01,-21.27,26.52,-27.11
5284,-0.53,6.37,-8.06,0.00,-0.00,-0.01,-21.27,26.52,-27.11
5295,-0.53,6.37,-8.06,0.00,-0.00,-0.01,-21.27,26.52,-27.11
5306,-0.43,6.32,-8.09,0.00,-0.00,-0.00,-21.27,26.52,-27.11
5317,-0.43,6.32,-8.09,0.00,-0.00,-0.00,-21.27,26.52,-27.11
5328,-0.38,6.28,-8.10,0.00,0.00,-0.00,-21.27,26.52,-27.11
5339,-0.41,6.31,-8.04,-0.00,-0.00,-0.00,-21.27,26.52,-27.11
5350,-0.41,6.31,-8.04,-0.00,-0.00,-0.00,-21.27,26.52,-27.11
5361,-0.51,6.36,-8.04,-0.00,-0.00,-0.00,-21.08,25.99,-25.63
5372,-0.51,6.36,-8.04,-0.00,-0.00,-0.00,-21.08,25.99,-25.63
5383,-0.55,6.34,-8.05,0.00,-0.00,-0.00,-21.08,25.99,-25.63
5399,-0.55,6.34,-8.05,0.00,-0.00,-0.00,-21.08,25.99,-25.63
5405,-0.48,6.34,-8.07,0.01,-0.01,0.01,-21.08,25.99,-25.63
5416,-0.48,6.34,-8.07,0.01,-0.01,0.01,-21.08,25.99,-25.63
5427,-0.38,6.34,-8.07,0.00,-0.01,0.00,-21.08,25.99,-25.63
5438,-0.40,6.34,-8.08,0.00,-0.00,-0.00,-21.08,25.99,-25.63
5449,-0.40,6.34,-8.08,0.00,-0.00,-0.00,-21.08,25.99,-25.63
5460,-0.50,6.32,-8.07,-0.00,-0.00,-0.00,-21.08,25.99,-25.63
5471,-0.50,6.32,-8.07,-0.00,-0.00,-0.00,-21.08,25.99,-25.63
5482,-0.55,6.34,-8.09,-0.00,-0.00,-0.00,-22.41,25.82,-26.78
5493,-0.55,6.34,-8.09,-0.00,-0.00,-0.00,-22.41,25.82,-26.78
5504,-0.45,6.33,-8.06,0.00,0.00,-0.00,-22.41,25.82,-26.78
5515,-0.45,6.33,-8.06,0.00,0.00,-0.00,-22.41,25.82,-26.78
5526,-0.37,6.33,-8.05,0.00,0.00,-0.00,-22.41,25.82,-26.78
5537,-0.37,6.33,-8.05,0.00,0.00,-0.00,-22.41,25.82,-26.78
5548,-0.39,6.32,-8.05,0.00,-0.00,-0.00,-22.41,25.82,-26.78
5559,-0.49,6.33,-8.06,-0.00,-0.00,-0.00,-22.41,25.82,-26.78
5570,-0.49,6.33,-8.06,-0.00,-0.00,-0.00,-22.41,25.82,-26.78
5581,-0.53,6.36,-8.06,-0.00,-0.00,-0.00,-22.41,25.82,-26.78
5592,-0.53,6.36,-8.06,-0.00,-0.00,-0.00,-22.41,25.82,-26.78
5603,-0.48,6.34,-8.07,0.00,0.00,-0.00,-21.65,26.52,-26.78
5614,-0.48,6.34,-8.07,0.00,0.00,-0.00,-21.65,26.52,-26.78
5625,-0.40,6.33,-8.09,0.00,0.00,-0.00,-21.65,26.52,-26.78
5636,-0.40,6.33,-8.09,0.00,0.00,-0.00,-21.65,26.52,-26.78
5647,-0.41,6.33,-8.08,0.00,-0.01,0.01,-21.65,26.52,-26.78
5658,-0.48,6.35,-8.04,-0.00,-0.01,0.01,-21.65,26.52,-26.78
5669,-0.48,6.35,-8.04,-0.00,-0.01,0.01,-21.65,26.52,-26.78
5680,-0.55,6.34,-8.05,-0.00,-0.01,0.00,-21.65,26.52,-26.78
5691,-0.55,6.34,-8.05,-0.00,-0.01,0.00,-21.65,26.52,-26.78
5703,-0.49,6.32,-8.08,0.00,-0.00,-0.00,-21.65,26.52,-26.78
5713,-0.49,6.32,-8.08,0.00,-0.00,-0.00,-21.65,26.52,-26.78
5724,-0.40,6.34,-8.06,0.00,0.00,-0.00,-20.70,26.69,-26.95
5735,-0.40,6.34,-8.06,0.00,0.00,-0.00,-20.70,26.69,-26.95
5746,-0.39,6.34,-8.07,0.00,0.00,-0.00,-20.70,26.69,-26.95
5757,-0.39,6.34,-8.07,0.00,0.00,-0.00,-20.70,26.69,-26.95
5768,-0.46,6.34,-8.05,-0.00,-0.00,-0.01,-20.70,26.69,-26.95
5779,-0.53,6.34,-8.03,-0.00,-0.00,-0.00,-20.70,26.69,-26.95
5790,-0.53,6.34,-8.03,-0.00,-0.00,-0.00,-20.70,26.69,-26.95
5801,-0.48,6.36,-8.05,0.00,-0.00,-0.00,-20.70,26.69,-26.95
5812,-0.48,6.36,-8.05,0.00,-0.00,-0.00,-20.70,26.69,-26.95
5823,-0.42,6.33,-8.05,0.00,0.00,-0.00,-20.70,26.69,-26.95
5834,-0.42,6.33,-8.05,0.00,0.00,-0.00,-20.70,26.69,-26.95
5845,-0.39,6.33,-8.08,0.00,-0.00,-0.00,-20.70,26.69,-26.95
5856,-0.39,6.33,-8.08,0.00,-0.00,-0.00,-20.70,26.69,-26.95
5867,-0.43,6.33,-8.09,0.00,-0.00,-0.00,-22.22,25.99,-26.29
5878,-0.50,6.36,-8.05,-0.00,-0.00,-0.00,-22.22,25.99,-26.29
5889,-0.50,6.36,-8.05,-0.00,-0.00,-0.00,-22.22,25.99,-26.29
5900,-0.51,6.34,-8.09,0.00,-0.00,-0.00,-22.22,25.99,-26.29
5916,-0.51,6.34,-8.09,0.00,-0.00,-0.00,-22.22,25.99,-26.29
5922,-0.45,6.32,-8.09,0.00,-0.00,-0.00,-22.22,25.99,-26.29
5933,-0.45,6.32,-8.09,0.00,-0.00,-0.00,-22.22,25.99,-26.29
5944,-0.39,6.33,-8.05,0.00,-0.00,-0.00,-22.22,25.99,-26.29
5955,-0.39,6.33,-8.05,0.00,-0.00,-0.00,-22.22,25.99,-26.29
5966,-0.42,6.34,-8.06,-0.00,-0.00,-0.00,-22.22,25.99,-26.29
5977,-0.42,6.34,-8.06,-0.00,-0.00,-0.00,-22.22,25.99,-26.29
5988,-0.49,6.33,-8.08,0.00,-0.00,-0.01,-21.46,24.95,-25.63
5999,-0.49,6.34,-8.09,0.00,-0.00,-0.00,-21.46,24.95,-25.63
6010,-0.49,6.34,-8.09,0.00,-0.00,-0.00,-21.46,24.95,-25.63
6021,-0.42,6.34,-8.09,0.00,-0.00,-0.00,-21.46,24.95,-25.63
6032,-0.42,6.34,-8.09,0.00,-0.00,-0.00,-21.46,24.95,-25.63
6043,-0.41,6.34,-8.07,0.00,-0.00,-0.00,-21.46,24.95,-25.63
6054,-0.41,6.34,-8.07,0.00,-0.00,-0.00,-21.46,24.95,-25.63
6065,-0.43,6.34,-8.05,0.00,-0.00,-0.01,-21.46,24.95,-25.63
6076,-0.43,6.34,-8.05,0.00,-0.00,-0.01,-21.46,24.95,-25.63
6087,-0.47,6.33,-8.05,-0.00,0.00,-0.00,-21.46,24.95,-25.63
6098,-0.49,6.33,-8.06,-0.00,0.00,-0.00,-22.41,25.82,-26.13
6109,-0.49,6.33,-8.06,-0.00,0.00,-0.00,-22.41,25.82,-26.13
6120,-0.43,6.33,-8.08,0.00,0.00,-0.00,-22.41,25.82,-26.13
6131,-0.43,6.33,-8.08,0.00,0.00,-0.00,-22.41,25.82,-26.13
6142,-0.42,6.32,-8.06,-0.00,0.00,-0.00,-22.41,25.82,-26.13
6153,-0.42,6.32,-8.06,-0.00,0.00,-0.00,-22.41,25.82,-26.13
6164,-0.44,6.34,-8.05,-0.00,0.00,-0.00,-22.41,25.82,-26.13
6175,-0.44,6.34,-8.05,-0.00,0.00,-0.00,-22.41,25.82,-26.13
6186,-0.48,6.34,-8.05,-0.00,0.00,-0.00,-22.41,25.82,-26.13
6197,-0.48,6.34,-8.05,-0.00,0.00,-0.00,-22.41,25.82,-26.13
6208,-0.49,6.33,-8.06,-0.00,0.00,-0.00,-22.41,25.82,-26.13
6220,-0.45,6.31,-8.08,0.00,-0.00,-0.00,-22.41,25.82,-26.13
6230,-0.45,6.31,-8.08,0.00,-0.00,-0.00,-22.41,25.82,-26.13
6241,-0.42,6.33,-8.08,0.00,0.00,-0.00,-22.60,25.99,-27.28
6252,-0.42,6.33,-8.08,0.00,0.00,-0.00,-22.60,25.99,-27.28
6263,-0.42,6.34,-8.06,-0.00,-0.00,-0.00,-22.60,25.99,-27.28
6274,-0.42,6.34,-8.06,-0.00,-0.00,-0.00,-22.60,25.99,-27.28
6285,-0.47,6.34,-8.06,0.00,0.00,-0.00,-22.60,25.99,-27.28
6296,-0.47,6.34,-8.06,0.00,0.00,-0.00,-22.60,25.99,-27.28
6307,-0.48,6.32,-8.07,-0.00,0.00,-0.00,-22.60,25.99,-27.28
6318,-0.48,6.32,-8.07,-0.00,0.00,-0.00,-22.60,25.99,-27.28
6329,-0.44,6.33,-8.07,0.00,-0.00,-0.00,-22.60,25.99,-27.28
6340,-0.41,6.33,-8.05,0.00,-0.00,-0.00,-22.60,25.99,-27.28
6351,-0.41,6.33,-8.05,0.00,-0.00,-0.00,-22.60,25.99,-27.28
6362,-0.42,6.34,-8.08,0.00,-0.00,-0.00,-20.89,26.17,-25.80
6373,-0.42,6.34,-8.08,0.00,-0.00,-0.00,-20.89,26.17,-25.80
6384,-0.47,6.33,-8.08,-0.00,-0.00,-0.00,-20.89,26.17,-25.80
6395,-0.47,6.33,-8.08,-0.00,-0.00,-0.00,-20.89,26.17,-25.80
6406,-0.48,6.34,-8.07,-0.00,-0.00,-0.00,-20.89,26.17,-25.80
6417,-0.48,6.34,-8.07,-0.00,-0.00,-0.00,-20.89,26.17,-25.80
6428,-0.45,6.33,-8.08,0.00,-0.00,-0.00,-20.89,26.17,-25.80
6439,-0.41,6.31,-8.06,0.00,-0.00,-0.00,-20.89,26.17,-25.80
6450,-0.41,6.31,-8.06,0.00,-0.00,-0.00,-20.89,26.17,-25.80
6461,-0.41,6.33,-8.07,0.00,-0.00,-0.00,-20.89,26.17,-25.80
6472,-0.41,6.33,-8.07,0.00,-0.00,-0.00,-20.89,26.17,-25.80
6483,-0.46,6.35,-8.07,0.00,-0.00,-0.00,-21.27,26.52,-26.46
6494,-0.46,6.35,-8.07,0.00,-0.00,-0.00,-21.27,26.52,-26.46
6505,-0.48,6.34,-8.07,0.00,-0.00,-0.00,-21.27,26.52,-26.46
6516,-0.48,6.34,-8.07,0.00,-0.00,-0.00,-21.27,26.52,-26.46
6527,-0.46,6.34,-8.07,0.00,-0.00,-0.00,-21.27,26.52,-26.46
6538,-0.46,6.34,-8.07,0.00,-0.00,-0.00,-21.27,26.52,-26.46
6549,-0.41,6.33,-8.07,0.00,-0.00,-0.00,-21.27,26.52,-26.46
6560,-0.40,6.33,-8.05,0.00,-0.00,-0.00,-21.27,26.52,-26.46
6571,-0.40,6.33,-8.05,0.00,-0.00,-0.00,-21.27,26.52,-26.46
6582,-0.44,6.34,-8.07,0.00,-0.00,-0.00,-21.27,26.52,-26.46
6593,-0.44,6.34,-8.07,0.00,-0.00,-0.00,-21.27,26.52,-26.46
6604,-0.50,6.33,-8.06,-0.00,-0.00,-0.00,-21.27,26.52,-26.46
6615,-0.50,6.33,-8.06,-0.00,-0.00,-0.00,-21.27,26.52,-26.46
6626,-0.48,6.33,-8.10,-0.00,-0.00,-0.00,-21.65,26.87,-26.78
6637,-0.48,6.33,-8.10,-0.00,-0.00,-0.00,-21.65,26.87,-26.78
6648,-0.43,6.34,-8.09,0.00,-0.00,-0.00,-21.65,26.87,-26.78
6659,-0.41,6.34,-8.05,0.00,-0.00,-0.00,-21.65,26.87,-26.78
6670,-0.41,6.34,-8.05,0.00,-0.00,-0.00,-21.65,26.87,-26.78
6681,-0.46,6.34,-8.06,0.00,-0.00,-0.00,-21.65,26.87,-26.78
6692,-0.46,6.34,-8.06,0.00,-0.00,-0.00,-21.65,26.87,-26.78
6703,-0.47,6.34,-8.06,0.00,-0.00,-0.00,-21.65,26.87,-26.78
6714,-0.47,6.34,-8.06,0.00,-0.00,-0.00,-21.65,26.87,-26.78
6725,-0.47,6.32,-8.06,0.00,-0.00,-0.00,-21.65,26.87,-26.78
6736,-0.47,6.32,-8.06,0.00,-0.00,-0.00,-21.65,26.87,-26.78
6747,-0.44,6.32,-8.08,0.00,-0.00,-0.00,-20.70,25.65,-27.28
6758,-0.44,6.32,-8.08,0.00,-0.00,-0.00,-20.70,25.65,-27.28
6769,-0.42,6.33,-8.08,-0.00,-0.00,-0.00,-20.70,25.65,-27.28
6780,-0.45,6.34,-8.06,0.00,-0.00,-0.00,-20.70,25.65,-27.28
6791,-0.45,6.34,-8.06,0.00,-0.00,-0.00,-20.70,25.65,-27.28
6802,-0.49,6.33,-8.06,0.00,-0.00,-0.00,-20.70,25.65,-27.28
6813,-0.49,6.33,-8.06,0.00,-0.00,-0.00,-20.70,25.65,-27.28
6824,-0.48,6.34,-8.04,0.00,-0.00,-0.00,-20.70,25.65,-27.28
6835,-0.48,6.34,-8.04,0.00,-0.00,-0.00,-20.70,25.65,-27.28
6846,-0.44,6.33,-8.07,0.00,-0.00,-0.00,-20.70,25.65,-27.28
6857,-0.44,6.33,-8.07,0.00,-0.00,-0.00,-20.70,25.65,-27.28
6868,-0.41,6.35,-8.08,0.00,-0.00,-0.00,-21.08,25.65,-27.28
6879,-0.44,6.34,-8.06,0.00,-0.00,-0.00,-21.08,25.65,-27.28
6890,-0.44,6.34,-8.06,0.00,-0.00,-0.00,-21.08,25.65,-27.28
6901,-0.46,6.32,-8.08,-0.00,-0.00,-0.00,-21.08,25.65,-27.28
6912,-0.46,6.32,-8.08,-0.00,-0.00,-0.00,-21.08,25.65,-27.28
6923,-0.47,6.34,-8.08,0.00,0.00,-0.00,-21.08,25.65,-27.28
6934,-0.47,6.34,-8.08,0.00,0.00,-0.00,-21.08,25.65,-27.28
6945,-0.45,6.32,-8.05,0.00,-0.00,-0.00,-21.08,25.65,-27.28
6956,-0.45,6.32,-8.05,0.00,-0.00,-0.00,-21.08,25.65,-27.28
6967,-0.43,6.33,-8.05,0.00,-0.00,-0.00,-21.08,25.65,-27.28
6978,-0.43,6.33,-8.05,0.00,-0.00,-0.00,-21.08,25.65,-27.28
6989,-0.43,6.34,-8.07,0.00,-0.00,-0.00,-21.84,25.99,-28.26
7000,-0.47,6.34,-8.09,-0.00,-0.00,-0.00,-21.84,25.99,-28.26
7011,-0.47,6.34,-8.09,-0.00,-0.00,-0.00,-21.84,25.99,-28.26
7022,-0.48,6.33,-8.06,0.00,-0.00,-0.00,-21.84,25.99,-28.26
7033,-0.48,6.33,-8.06,0.00,-0.00,-0.00,-21.84,25.99,-28.26
7044,-0.46,6.34,-8.07,0.00,0.00,-0.00,-21.84,25.99,-28.26
7055,-0.46,6.34,-8.07,0.00,0.00,-0.00,-21.84,25.99,-28.26
7066,-0.42,6.33,-8.08,-0.00,0.00,-0.00,-21.84,25.99,-28.26
7077,-0.42,6.33,-8.08,-0.00,0.00,-0.00,-21.84,25.99,-28.26
7088,-0.43,6.34,-8.07,-0.00,-0.00,-0.01,-21.84,25.99,-28.26
7099,-0.47,6.35,-8.10,0.00,-0.00,-0.00,-21.84,25.99,-28.26
7110,-0.47,6.35,-8.10,0.00,-0.00,-0.00,-21.84,25.99,-28.26
7121,-0.48,6.33,-8.07,0.00,-0.00,-0.00,-20.70,25.99,-26.95
7132,-0.48,6.33,-8.07,0.00,-0.00,-0.00,-20.70,25.99,-26.95
7143,-0.46,6.32,-8.07,0.00,0.00,-0.00,-20.70,25.99,-26.95
7154,-0.46,6.32,-8.07,0.00,0.00,-0.00,-20.70,25.99,-26.95
7165,-0.42,6.33,-8.05,0.00,-0.00,-0.00,-20.70,25.99,-26.95
7176,-0.42,6.33,-8.05,0.00,-0.00,-0.00,-20.70,25.99,-26.95
7187,-0.44,6.35,-8.07,-0.00,-0.00,-0.00,-20.70,25.99,-26.95
7198,-0.44,6.35,-8.07,-0.00,-0.00,-0.00,-20.70,25.99,-26.95
7209,-0.46,6.33,-8.05,0.00,-0.00,-0.00,-20.70,25.99,-26.95
7220,-0.47,6.33,-8.06,0.00,-0.00,-0.00,-20.70,25.99,-26.95
7231,-0.47,6.33,-8.06,0.00,-0.00,-0.00,-20.70,25.99,-26.95
7242,-0.45,6.34,-8.09,0.00,-0.00,-0.00,-22.22,27.04,-25.31
7253,-0.45,6.34,-8.09,0.00,-0.00,-0.00,-22.22,27.04,-25.31
7264,-0.43,6.33,-8.08,0.00,-0.00,-0.00,-22.22,27.04,-25.31
7275,-0.43,6.33,-8.08,0.00,-0.00,-0.00,-22.22,27.04,-25.31
7286,-0.43,6.34,-8.07,0.00,0.00,-0.00,-22.22,27.04,-25.31
7297,-0.43,6.34,-8.07,0.00,0.00,-0.00,-22.22,27.04,-25.31
7308,-0.45,6.35,-8.07,0.00,-0.00,-0.00,-22.22,27.04,-25.31
7319,-0.47,6.33,-8.06,0.00,-0.00,-0.00,-22.22,27.04,-25.31
7330,-0.47,6.33,-8.06,0.00,-0.00,-0.00,-22.22,27.04,-25.31
7341,-0.45,6.31,-8.06,0.00,-0.00,-0.00,-22.22,27.04,-25.31
7352,-0.45,6.31,-8.06,0.00,-0.00,-0.00,-22.22,27.04,-25.31
7363,-0.43,6.32,-8.05,0.00,-0.00,-0.00,-21.46,26.69,-26.62
7374,-0.43,6.32,-8.05,0.00,-0.00,-0.00,-21.46,26.69,-26.62
7385,-0.44,6.34,-8.07,0.00,-0.00,-0.00,-21.46,26.69,-26.62
7396,-0.44,6.34,-8.07,0.00,-0.00,-0.00,-21.46,26.69,-26.62
7407,-0.46,6.34,-8.08,0.00,-0.00,-0.00,-21.46,26.69,-26.62
7418,-0.46,6.34,-8.08,0.00,-0.00,-0.00,-21.46,26.69,-26.62
7429,-0.48,6.34,-8.06,0.00,-0.00,-0.00,-21.46,26.69,-26.62
7440,-0.46,6.33,-8.06,0.00,-0.00,-0.00,-21.46,26.69,-26.62
7451,-0.46,6.33,-8.06,0.00,-0.00,-0.00,-21.46,26.69,-26.62
7462,-0.43,6.34,-8.06,0.00,-0.00,-0.00,-21.46,26.69,-26.62
7473,-0.43,6.34,-8.06,0.00,-0.00,-0.00,-21.46,26.69,-26.62
7485,-0.42,6.35,-8.06,0.00,-0.00,-0.00,-21.46,26.69,-26.62
7495,-0.42,6.35,-8.06,0.00,-0.00,-0.00,-21.46,26.69,-26.62
7506,-0.47,6.35,-8.06,0.00,-0.00,-0.00,-22.41,25.47,-26.46
7517,-0.47,6.35,-8.06,0.00,-0.00,-0.00,-22.41,25.47,-26.46
7528,-0.47,6.35,-8.03,-0.00,-0.00,-0.00,-22.41,25.47,-26.46
7539,-0.47,6.35,-8.03,-0.00,-0.00,-0.00,-22.41,25.47,-26.46
7550,0.11,6.51,-7.97,-0.00,-0.00,-0.00,-22.41,25.47,-26.46
7561,-0.70,6.38,-8.09,-0.00,-0.01,-0.01,-22.41,25.47,-26.46
7572,-0.70,6.38,-8.09,-0.00,-0.01,-0.01,-22.41,25.47,-26.46
7583,-0.38,6.17,-8.23,0.02,0.01,0.00,-22.41,25.47,-26.46
7594,-0.38,6.17,-8.23,0.02,0.01,0.00,-22.41,25.47,-26.46
7605,-0.44,6.31,-8.07,-0.01,-0.00,-0.01,-22.41,25.47,-26.46
7616,-0.44,6.31,-8.07,-0.01,-0.00,-0.01,-22.41,25.47,-26.46
7627,-0.49,6.41,-8.04,-0.00,-0.00,-0.00,-22.03,26.17,-27.11
7638,-0.49,6.41,-8.04,-0.00,-0.00,-0.00,-22.03,26.17,-27.11
7649,-0.57,6.40,-8.03,-0.00,-0.01,-0.01,-22.03,26.17,-27.11
7660,-0.44,6.38,-8.05,0.01,0.00,-0.00,-22.03,26.17,-27.11
7671,-0.44,6.38,-8.05,0.01,0.00,-0.00,-22.03,26.17,-27.11
7682,-0.35,6.30,-8.11,0.01,-0.00,-0.00,-22.03,26.17,-27.11
7698,-0.35,6.30,-8.11,0.01,-0.00,-0.00,-22.03,26.17,-27.11
7704,-0.40,6.27,-8.12,0.00,-0.00,-0.00,-22.03,26.17,-27.11
7715,-0.40,6.27,-8.12,0.00,-0.00,-0.00,-22.03,26.17,-27.11
7726,-0.46,6.36,-8.06,-0.00,-0.00,-0.01,-22.03,26.17,-27.11
7737,-0.46,6.36,-8.06,-0.00,-0.00,-0.01,-22.03,26.17,-27.11
7748,-0.50,6.45,-7.99,-0.00,-0.00,-0.01,-21.84,26.69,-26.95
7759,-0.50,6.45,-7.99,-0.00,-0.00,-0.01,-21.84,26.69,-26.95
7770,-0.48,6.35,-8.04,0.00,-0.00,-0.00,-21.84,26.69,-26.95
7781,-0.43,6.28,-8.13,0.01,0.00,-0.00,-21.84,26.69,-26.95
7792,-0.43,6.28,-8.13,0.01,0.00,-0.00,-21.84,26.69,-26.95
7803,-0.40,6.31,-8.12,0.00,-0.00,-0.01,-21.84,26.69,-26.95
7814,-0.40,6.31,-8.12,0.00,-0.00,-0.01,-21.84,26.69,-26.95
7825,-0.45,6.34,-8.07,-0.00,-0.00,-0.00,-21.84,26.69,-26.95
7836,-0.45,6.34,-8.07,-0.00,-0.00,-0.00,-21.84,26.69,-26.95
7847,-0.51,6.37,-8.06,-0.00,-0.00,-0.01,-21.84,26.69,-26.95
7858,-0.51,6.37,-8.06,-0.00,-0.00,-0.01,-21.84,26.69,-26.95
7869,-0.48,6.37,-8.04,0.00,-0.00,-0.01,-21.84,26.69,-26.95
7880,-0.43,6.32,-8.09,0.00,-0.00,-0.00,-22.03,26.17,-26.46
7891,-0.43,6.32,-8.09,0.00,-0.00,-0.00,-22.03,26.17,-26.46
7902,-0.41,6.29,-8.12,0.00,-0.00,-0.00,-22.03,26.17,-26.46
7913,-0.41,6.29,-8.12,0.00,-0.00,-0.00,-22.03,26.17,-26.46
7924,-0.44,6.33,-8.08,0.00,-0.00,-0.01,-22.03,26.17,-26.46
7935,-0.44,6.33,-8.08,0.00,-0.00,-0.01,-22.03,26.17,-26.46
7946,-0.48,6.37,-8.04,-0.00,-0.00,-0.01,-22.03,26.17,-26.46
7957,-0.48,6.37,-8.04,-0.00,-0.00,-0.01,-22.03,26.17,-26.46
7968,-0.48,6.35,-8.03,0.00,-0.00,-0.00,-22.03,26.17,-26.46
7979,-0.48,6.35,-8.03,0.00,-0.00,-0.00,-22.03,26.17,-26.46
7990,-0.43,6.32,-8.07,0.00,0.00,-0.00,-22.03,26.17,-26.46
8001,-0.42,6.30,-8.12,0.00,-0.00,-0.00,-21.08,27.74,-25.63
8012,-0.42,6.30,-8.12,0.00,-0.00,-0.00,-21.08,27.74,-25.63
8023,-0.45,6.31,-8.09,0.00,-0.00,-0.00,-21.08,27.74,-25.63
8034,-0.45,6.31,-8.09,0.00,-0.00,-0.00,-21.08,27.74,-25.63
8046,-0.47,6.38,-8.05,-0.00,-0.00,-0.01,-21.08,27.74,-25.63
8056,-0.47,6.38,-8.05,-0.00,-0.00,-0.01,-21.08,27.74,-25.63
8067,-0.48,6.37,-8.03,-0.00,-0.00,-0.01,-21.08,27.74,-25.63
8078,-0.48,6.37,-8.03,-0.00,-0.00,-0.01,-21.08,27.74,-25.63
8089,-0.45,6.29,-8.07,0.00,-0.00,-0.00,-21.08,27.74,-25.63
8100,-0.43,6.29,-8.09,0.00,0.00,-0.00,-21.08,27.74,-25.63
8111,-0.43,6.29,-8.09,0.00,0.00,-0.00,-21.08,27.74,-25.63
8122,-0.45,6.33,-8.07,-0.00,-0.00,-0.00,-21.84,25.99,-26.95
8133,-0.45,6.33,-8.07,-0.00,-0.00,-0.00,-21.84,25.99,-26.95
8144,-0.48,6.36,-8.04,-0.00,-0.00,-0.00,-21.84,25.99,-26.95
8155,-0.48,6.36,-8.04,-0.00,-0.00,-0.00,-21.84,25.99,-26.95
8166,-0.48,6.37,-8.04,0.00,-0.00,-0.00,-21.84,25.99,-26.95
8177,-0.48,6.37,-8.04,0.00,-0.00,-0.00,-21.84,25.99,-26.95
8188,-0.45,6.35,-8.07,0.00,-0.00,-0.00,-21.84,25.99,-26.95
8199,-0.45,6.35,-8.07,0.00,-0.00,-0.00,-21.84,25.99,-26.95
8210,-0.42,6.29,-8.10,0.00,-0.00,-0.00,-21.84,25.99,-26.95
8221,-0.43,6.28,-8.09,0.00,-0.00,-0.00,-21.84,25.99,-26.95
8232,-0.43,6.28,-8.09,0.00,-0.00,-0.00,-21.84,25.99,-26.95
8243,-0.48,6.37,-8.04,-0.00,-0.00,-0.01,-22.03,26.17,-26.78
8254,-0.48,6.37,-8.04,-0.00,-0.00,-0.01,-22.03,26.17,-26.78
8265,-0.47,6.39,-8.04,-0.00,-0.00,-0.00,-22.03,26.17,-26.78
8277,-0.47,6.39,-8.04,-0.00,-0.00,-0.00,-22.03,26.17,-26.78
8287,-0.47,6.30,-8.08,0.00,-0.00,-0.00,-22.03,26.17,-26.78
8298,-0.47,6.30,-8.08,0.00,-0.00,-0.00,-22.03,26.17,-26.78
8309,-0.43,6.29,-8.12,0.00,-0.00,-0.00,-22.03,26.17,-26.78
8320,-0.43,6.32,-8.09,-0.00,-0.00,-0.00,-22.03,26.17,-26.78
8331,-0.43,6.32,-8.09,-0.00,-0.00,-0.00,-22.03,26.17,-26.78
8342,-0.46,6.34,-8.05,-0.00,-0.00,-0.00,-22.03,26.17,-26.78
8353,-0.46,6.34,-8.05,-0.00,-0.00,-0.00,-22.03,26.17,-26.78
8364,-0.47,6.38,-8.05,-0.00,-0.00,-0.00,-22.03,26.17,-26.78
8375,-0.47,6.38,-8.05,-0.00,-0.00,-0.00,-22.03,26.17,-26.78
8386,-0.45,6.34,-8.06,0.00,-0.00,-0.00,-22.22,25.65,-26.95
8397,-0.45,6.34,-8.06,0.00,-0.00,-0.00,-22.22,25.65,-26.95
8408,-0.43,6.29,-8.09,0.00,-0.00,-0.00,-22.22,25.65,-26.95
8419,-0.43,6.29,-8.09,0.00,-0.00,-0.00,-22.22,25.65,-26.95
8430,-0.44,6.31,-8.07,0.00,-0.00,-0.00,-22.22,25.65,-26.95
8441,-0.45,6.36,-8.06,-0.00,-0.00,-0.01,-22.22,25.65,-26.95
8452,-0.45,6.36,-8.06,-0.00,-0.00,-0.01,-22.22,25.65,-26.95
8463,-0.47,6.37,-8.04,-0.00,-0.00,-0.00,-22.22,25.65,-26.95
8474,-0.47,6.37,-8.04,-0.00,-0.00,-0.00,-22.22,25.65,-26.95
8485,-0.47,6.32,-8.06,0.00,0.00,-0.00,-22.22,25.65,-26.95
8496,-0.47,6.32,-8.06,0.00,0.00,-0.00,-22.22,25.65,-26.95
8507,-0.45,6.29,-8.10,0.00,0.00,-0.00,-21.65,26.52,-26.78
8518,-0.45,6.29,-8.10,0.00,0.00,-0.00,-21.65,26.52,-26.78
8529,-0.45,6.30,-8.10,0.00,0.00,-0.00,-21.65,26.52,-26.78
8540,-0.45,6.30,-8.10,0.00,0.00,-0.00,-21.65,26.52,-26.78
8551,-0.45,6.35,-8.07,-0.00,-0.00,-0.00,-21.65,26.52,-26.78
8562,-0.48,6.37,-8.04,-0.00,-0.00,-0.00,-21.65,26.52,-26.78
8573,-0.48,6.37,-8.04,-0.00,-0.00,-0.00,-21.65,26.52,-26.78
8584,-0.46,6.34,-8.07,0.00,-0.00,-0.00,-21.65,26.52,-26.78
8595,-0.46,6.34,-8.07,0.00,-0.00,-0.00,-21.65,26.52,-26.78
8606,-0.45,6.31,-8.08,0.00,-0.00,-0.00,-21.65,26.52,-26.78
8617,-0.45,6.31,-8.08,0.00,-0.00,-0.00,-21.65,26.52,-26.78
8628,-0.44,6.29,-8.11,0.00,-0.00,-0.00,-21.08,26.34,-27.28
8639,-0.44,6.29,-8.11,0.00,-0.00,-0.00,-21.08,26.34,-27.28
8650,-0.45,6.34,-8.08,-0.00,-0.00,-0.00,-21.08,26.34,-27.28
8661,-0.47,6.35,-8.05,0.00,-0.00,-0.00,-21.08,26.34,-27.28
8672,-0.47,6.35,-8.05,0.00,-0.00,-0.00,-21.08,26.34,-27.28
8683,-0.46,6.34,-8.04,0.00,-0.00,-0.00,-21.08,26.34,-27.28
8694,-0.46,6.34,-8.04,0.00,-0.00,-0.00,-21.08,26.34,-27.28
8705,-0.46,6.31,-8.09,0.00,0.00,-0.00,-21.08,26.34,-27.28
8716,-0.46,6.31,-8.09,0.00,0.00,-0.00,-21.08,26.34,-27.28
8727,-0.44,6.32,-8.10,0.00,-0.00,-0.00,-21.08,26.34,-27.28
8738,-0.44,6.32,-8.10,0.00,-0.00,-0.00,-21.08,26.34,-27.28
8749,-0.46,6.34,-8.04,-0.00,-0.00,-0.00,-21.08,26.34,-27.28
8760,-0.46,6.34,-8.04,-0.00,-0.00,-0.00,-21.08,26.34,-27.28
8771,-0.47,6.36,-8.05,-0.00,-0.00,-0.00,-21.46,26.69,-26.29
8782,-0.49,6.35,-8.06,0.00,-0.00,-0.00,-21.46,26.69,-26.29
8793,-0.49,6.35,-8.06,0.00,-0.00,-0.00,-21.46,26.69,-26.29
8804,-0.45,6.30,-8.07,0.00,-0.00,-0.00,-21.46,26.69,-26.29
8815,-0.45,6.30,-8.07,0.00,-0.00,-0.00,-21.46,26.69,-26.29
8826,-0.44,6.30,-8.08,0.00,-0.00,-0.00,-21.46,26.69,-26.29
8837,-0.44,6.30,-8.08,0.00,-0.00,-0.00,-21.46,26.69,-26.29
8848,-0.45,6.33,-8.05,-0.00,-0.00,-0.00,-21.46,26.69,-26.29
8859,-0.45,6.33,-8.05,-0.00,-0.00,-0.00,-21.46,26.69,-26.29
8870,-0.46,6.35,-8.04,-0.00,-0.00,-0.00,-21.46,26.69,-26.29
8881,-0.47,6.34,-8.07,-0.00,-0.00,-0.00,-21.08,25.65,-26.95
8892,-0.47,6.34,-8.07,-0.00,-0.00,-0.00,-21.08,25.65,-26.95
8903,-0.46,6.31,-8.08,0.00,-0.00,-0.00,-21.08,25.65,-26.95
8914,-0.46,6.31,-8.08,0.00,-0.00,-0.00,-21.08,25.65,-26.95
8925,-0.44,6.31,-8.09,0.00,0.00,-0.00,-21.08,25.65,-26.95
8936,-0.44,6.31,-8.09,0.00,0.00,-0.00,-21.08,25.65,-26.95
8947,-0.45,6.34,-8.06,-0.00,-0.00,-0.00,-21.08,25.65,-26.95
8958,-0.45,6.34,-8.06,-0.00,-0.00,-0.00,-21.08,25.65,-26.95
8969,-0.48,6.35,-8.05,-0.00,-0.00,-0.00,-21.08,25.65,-26.95
8980,-0.48,6.35,-8.05,-0.00,-0.00,-0.00,-21.08,25.65,-26.95
8991,-0.47,6.34,-8.05,0.00,-0.00,-0.00,-21.08,25.65,-26.95
9002,-0.46,6.31,-8.10,0.00,0.00,-0.00,-21.65,27.22,-26.78
9013,-0.46,6.31,-8.10,0.00,0.00,-0.00,-21.65,27.22,-26.78
9024,-0.43,6.31,-8.10,0.00,-0.00,-0.00,-21.65,27.22,-26.78
9035,-0.43,6.31,-8.10,0.00,-0.00,-0.00,-21.65,27.22,-26.78
9046,-0.45,6.33,-8.08,-0.00,-0.00,-0.00,-21.65,27.22,-26.78
9057,-0.45,6.33,-8.08,-0.00,-0.00,-0.00,-21.65,27.22,-26.78
9068,-0.47,6.36,-8.05,0.00,-0.00,-0.00,-21.65,27.22,-26.78
9079,-0.47,6.36,-8.05,0.00,-0.00,-0.00,-21.65,27.22,-26.78
9090,-0.47,6.35,-8.05,0.00,0.00,-0.00,-21.65,27.22,-26.78
9101,-0.45,6.31,-8.08,0.00,0.00,-0.00,-21.65,27.22,-26.78
9112,-0.45,6.31,-8.08,0.00,0.00,-0.00,-21.65,27.22,-26.78
9124,-0.45,6.31,-8.09,0.00,0.00,-0.00,-21.65,27.22,-26.78
9134,-0.45,6.31,-8.09,0.00,0.00,-0.00,-21.65,27.22,-26.78
9145,-0.45,6.34,-8.10,-0.00,-0.00,-0.00,-21.65,27.91,-26.13
9156,-0.45,6.34,-8.10,-0.00,-0.00,-0.00,-21.65,27.91,-26.13
9167,-0.46,6.35,-8.02,-0.00,-0.00,-0.00,-21.65,27.91,-26.13
9178,-0.46,6.35,-8.02,-0.00,-0.00,-0.00,-21.65,27.91,-26.13
9195,-0.48,6.36,-8.05,0.00,-0.00,-0.00,-21.65,27.91,-26.13
9200,-0.48,6.36,-8.05,0.00,-0.00,-0.00,-21.65,27.91,-26.13
9211,-0.45,6.34,-8.08,0.00,-0.00,-0.00,-21.65,27.91,-26.13
9222,-0.43,6.32,-8.07,0.00,0.00,-0.00,-21.65,27.91,-26.13
9233,-0.43,6.32,-8.07,0.00,0.00,-0.00,-21.65,27.91,-26.13
9244,-0.44,6.33,-8.04,0.00,-0.00,-0.00,-21.65,27.91,-26.13
9255,-0.44,6.33,-8.04,0.00,-0.00,-0.00,-21.65,27.91,-26.13
9266,-0.45,6.35,-8.07,0.00,-0.00,-0.00,-21.08,27.39,-28.26
9277,-0.45,6.35,-8.07,0.00,-0.00,-0.00,-21.08,27.39,-28.26
9288,-0.47,6.34,-8.06,0.00,0.00,-0.00,-21.08,27.39,-28.26
9299,-0.47,6.34,-8.06,0.00,0.00,-0.00,-21.08,27.39,-28.26
9310,-0.46,6.33,-8.08,0.00,-0.00,-0.00,-21.08,27.39,-28.26
9321,-0.44,6.32,-8.07,0.00,-0.00,-0.00,-21.08,27.39,-28.26
9332,-0.44,6.32,-8.07,0.00,-0.00,-0.00,-21.08,27.39,-28.26
9343,-0.44,6.32,-8.06,0.00,-0.00,-0.00,-21.08,27.39,-28.26
9354,-0.44,6.32,-8.06,0.00,-0.00,-0.00,-21.08,27.39,-28.26
9365,-0.46,6.33,-8.07,0.00,0.00,-0.00,-21.08,27.39,-28.26
9376,-0.46,6.33,-8.07,0.00,0.00,-0.00,-21.08,27.39,-28.26
9387,-0.47,6.34,-8.08,0.00,-0.00,-0.01,-21.08,25.99,-26.62
9398,-0.47,6.34,-8.08,0.00,-0.00,-0.01,-21.08,25.99,-26.62
9409,-0.45,6.33,-8.06,0.00,0.00,-0.00,-21.08,25.99,-26.62
9420,-0.45,6.33,-8.06,0.00,0.00,-0.00,-21.08,25.99,-26.62
9431,-0.45,6.31,-8.09,0.00,0.00,-0.00,-21.08,25.99,-26.62
9442,-0.46,6.33,-8.05,0.00,0.00,-0.00,-21.08,25.99,-26.62
9453,-0.46,6.33,-8.05,0.00,0.00,-0.00,-21.08,25.99,-26.62
9464,-0.46,6.34,-8.05,-0.00,-0.00,-0.00,-21.08,25.99,-26.62
9475,-0.46,6.34,-8.05,-0.00,-0.00,-0.00,-21.08,25.99,-26.62
9486,-0.47,6.36,-8.05,-0.00,-0.00,-0.00,-21.08,25.99,-26.62
9497,-0.47,6.36,-8.05,-0.00,-0.00,-0.00,-21.08,25.99,-26.62
9508,-0.47,6.32,-8.08,0.00,-0.00,-0.00,-22.97,27.04,-26.95
9519,-0.47,6.32,-8.08,0.00,-0.00,-0.00,-22.97,27.04,-26.95
9530,-0.45,6.31,-8.09,0.00,-0.00,-0.00,-22.97,27.04,-26.95
9541,-0.45,6.32,-8.08,0.00,-0.00,-0.00,-22.97,27.04,-26.95
9552,-0.45,6.32,-8.08,0.00,-0.00,-0.00,-22.97,27.04,-26.95
9563,-0.45,6.35,-8.05,0.00,-0.00,-0.00,-22.97,27.04,-26.95
9574,-0.45,6.35,-8.05,0.00,-0.00,-0.00,-22.97,27.04,-26.95
9585,-0.47,6.35,-8.06,0.00,0.00,-0.00,-22.97,27.04,-26.95
9596,-0.47,6.35,-8.06,0.00,0.00,-0.00,-22.97,27.04,-26.95
9607,-0.46,6.33,-8.08,0.00,-0.00,-0.00,-22.97,27.04,-26.95
9618,-0.46,6.33,-8.08,0.00,-0.00,-0.00,-22.97,27.04,-26.95
9629,-0.46,6.30,-8.07,0.00,-0.00,-0.00,-22.97,27.04,-26.95
9641,-0.46,6.30,-8.07,0.00,-0.00,-0.00,-22.97,27.04,-26.95
9651,-0.44,6.32,-8.10,-0.00,-0.00,-0.00,-21.46,25.99,-27.93
9662,-0.46,6.34,-8.06,-0.00,-0.00,-0.00,-21.46,25.99,-27.93
9673,-0.46,6.34,-8.06,-0.00,-0.00,-0.00,-21.46,25.99,-27.93
9684,-0.46,6.34,-8.04,0.00,-0.00,-0.00,-21.46,25.99,-27.93
9695,-0.46,6.34,-8.04,0.00,-0.00,-0.00,-21.46,25.99,-27.93
9706,-0.46,6.34,-8.05,-0.00,-0.00,-0.00,-21.46,25.99,-27.93
9717,-0.46,6.34,-8.05,-0.00,-0.00,-0.00,-21.46,25.99,-27.93
9728,-0.44,6.32,-8.06,0.00,-0.00,-0.00,-21.46,25.99,-27.93
9739,-0.44,6.32,-8.06,0.00,-0.00,-0.00,-21.46,25.99,-27.93
9750,-0.44,6.31,-8.07,0.00,-0.00,-0.00,-21.46,25.99,-27.93
9761,-0.44,6.31,-8.07,0.00,-0.00,-0.00,-21.46,25.99,-27.93
9772,-0.45,6.33,-8.06,0.00,0.00,-0.00,-21.46,27.04,-26.95
9783,-0.45,6.34,-8.06,0.00,-0.00,-0.00,-21.46,27.04,-26.95
9794,-0.45,6.34,-8.06,0.00,-0.00,-0.00,-21.46,27.04,-26.95
9805,-0.46,6.33,-8.07,0.00,-0.00,-0.00,-21.46,27.04,-26.95
9816,-0.46,6.33,-8.07,0.00,-0.00,-0.00,-21.46,27.04,-26.95
9827,-0.46,6.32,-8.07,0.00,-0.00,-0.00,-21.46,27.04,-26.95
9838,-0.46,6.32,-8.07,0.00,-0.00,-0.00,-21.46,27.04,-26.95
9849,-0.44,6.32,-8.06,0.00,-0.00,-0.00,-21.46,27.04,-26.95
9860,-0.44,6.32,-8.06,0.00,-0.00,-0.00,-21.46,27.04,-26.95
9871,-0.45,6.33,-8.04,-0.00,-0.00,-0.00,-21.46,27.04,-26.95
9882,-0.46,6.35,-8.06,0.00,-0.00,-0.00,-22.03,25.47,-28.43
9893,-0.46,6.35,-8.06,0.00,-0.00,-0.00,-22.03,25.47,-28.43
9904,-0.48,6.33,-8.10,0.00,-0.00,-0.00,-22.03,25.47,-28.43
9915,-0.48,6.33,-8.10,0.00,-0.00,-0.00,-22.03,25.47,-28.43
9926,-0.46,6.32,-8.09,0.00,0.00,-0.00,-22.03,25.47,-28.43
9937,-0.46,6.32,-8.09,0.00,0.00,-0.00,-22.03,25.47,-28.43
9948,-0.45,6.33,-8.10,-0.00,-0.00,-0.00,-22.03,25.47,-28.43
9959,-0.45,6.33,-8.10,-0.00,-0.00,-0.00,-22.03,25.47,-28.43
9970,-0.47,6.34,-8.06,-0.00,-0.00,-0.00,-22.03,25.47,-28.43
9981,-0.47,6.34,-8.06,-0.00,-0.00,-0.00,-22.03,25.47,-28.43
9992,-0.45,6.35,-8.06,-0.00,-0.00,-0.00,-22.03,25.47,-28.43
10003,-0.47,6.35,-8.06,0.00,-0.00,-0.00,-22.03,25.47,-28.43
10014,-0.47,6.35,-8.06,0.00,-0.00,-0.00,-22.03,25.47,-28.43
10025,-0.45,6.34,-8.08,0.00,0.00,-0.00,-22.03,27.91,-27.11
10036,-0.45,6.34,-8.08,0.00,0.00,-0.00,-22.03,27.91,-27.11
10047,-0.45,6.33,-8.06,0.00,-0.00,-0.00,-22.03,27.91,-27.11
10058,-0.45,6.33,-8.06,0.00,-0.00,-0.00,-22.03,27.91,-27.11
10069,-0.45,6.33,-8.08,0.00,-0.00,-0.00,-22.03,27.91,-27.11
10085,-0.45,6.33,-8.08,0.00,-0.00,-0.00,-22.03,27.91,-27.11
10091,-0.46,6.34,-8.06,0.00,-0.00,-0.00,-22.03,27.91,-27.11
10102,-0.46,6.34,-8.07,0.00,-0.00,-0.00,-22.03,27.91,-27.11
10113,-0.46,6.34,-8.07,0.00,-0.00,-0.00,-22.03,27.91,-27.11
10124,-0.45,6.33,-8.06,0.00,-0.00,-0.00,-22.03,27.91,-27.11
10135,-0.45,6.33,-8.06,0.00,-0.00,-0.00,-22.03,27.91,-27.11
10146,-0.45,6.32,-8.08,0.00,-0.00,-0.00,-21.65,27.22,-26.46
10157,-0.45,6.32,-8.08,0.00,-0.00,-0.00,-21.65,27.22,-26.46
10168,-0.44,6.33,-8.10,0.00,-0.00,-0.00,-21.65,27.22,-26.46
10179,-0.44,6.33,-8.10,0.00,-0.00,-0.00,-21.65,27.22,-26.46
10190,-0.46,6.32,-8.05,0.00,0.00,-0.00,-21.65,27.22,-26.46
10201,-0.46,6.32,-8.05,0.00,0.00,-0.00,-21.65,27.22,-26.46
10212,-0.46,6.33,-8.08,0.00,-0.00,-0.00,-21.65,27.22,-26.46
10223,-0.46,6.33,-8.08,0.00,-0.00,-0.00,-21.65,27.22,-26.46
10234,-0.46,6.33,-8.08,0.00,-0.00,-0.00,-21.65,27.22,-26.46
10245,-0.44,6.34,-8.09,0.00,-0.00,-0.00,-21.65,27.22,-26.46
10256,-0.44,6.34,-8.09,0.00,-0.00,-0.00,-21.65,27.22,-26.46
10267,-0.44,6.33,-8.09,0.00,-0.00,-0.00,-21.08,25.30,-27.61
10278,-0.44,6.33,-8.09,0.00,-0.00,-0.00,-21.08,25.30,-27.61
10290,-0.46,6.33,-8.07,-0.00,-0.00,-0.00,-21.08,25.30,-27.61
10300,-0.46,6.33,-8.07,-0.00,-0.00,-0.00,-21.08,25.30,-27.61
10311,-0.46,6.33,-8.06,0.00,-0.00,-0.00,-21.08,25.30,-27.61
10322,-0.46,6.34,-8.07,0.00,-0.00,-0.00,-21.08,25.30,-27.61
10333,-0.46,6.34,-8.07,0.00,-0.00,-0.00,-21.08,25.30,-27.61
10344,-0.46,6.34,-8.08,0.00,-0.00,-0.00,-21.08,25.30,-27.61
10355,-0.46,6.34,-8.08,0.00,-0.00,-0.00,-21.08,25.30,-27.61
10366,-0.46,6.32,-8.04,-0.00,-0.00,-0.00,-21.08,25.30,-27.61
10377,-0.46,6.32,-8.04,-0.00,-0.00,-0.00,-21.08,25.30,-27.61
10388,-0.46,6.34,-8.06,0.00,-0.00,-0.00,-21.08,25.30,-27.61
10399,-0.46,6.34,-8.06,0.00,-0.00,-0.00,-21.08,25.30,-27.61
10410,-0.46,6.33,-8.10,0.00,-0.00,-0.00,-22.03,25.47,-26.13
10421,-0.46,6.33,-8.10,0.00,-0.00,-0.00,-22.03,25.47,-26.13
10432,-0.46,6.32,-8.07,0.00,-0.00,-0.00,-22.03,25.47,-26.13
10443,-0.45,6.32,-8.05,-0.00,-0.00,-0.00,-22.03,25.47,-26.13
10454,-0.45,6.32,-8.05,-0.00,-0.00,-0.00,-22.03,25.47,-26.13
10465,-0.45,6.34,-8.06,0.00,-0.00,-0.00,-22.03,25.47,-26.13
10476,-0.45,6.34,-8.06,0.00,-0.00,-0.00,-22.03,25.47,-26.13
10487,-0.47,6.34,-8.05,0.00,-0.00,-0.00,-22.03,25.47,-26.13
10498,-0.47,6.34,-8.05,0.00,-0.00,-0.00,-22.03,25.47,-26.13
10509,-0.45,6.33,-8.05,0.00,-0.00,-0.00,-22.03,25.47,-26.13
10521,-0.45,6.33,-8.05,0.00,-0.00,-0.00,-22.03,25.47,-26.13
10531,-0.46,6.33,-8.07,0.00,-0.00,-0.00,-22.03,26.17,-27.11
10542,-0.46,6.32,-8.06,0.00,-0.00,-0.00,-22.03,26.17,-27.11
10553,-0.46,6.32,-8.06,0.00,-0.00,-0.00,-22.03,26.17,-27.11
10564,-0.46,6.32,-8.05,0.00,-0.00,-0.00,-22.03,26.17,-27.11
10575,-0.46,6.32,-8.05,0.00,-0.00,-0.00,-22.03,26.17,-27.11
10586,-0.47,6.33,-8.08,0.00,-0.00,-0.00,-22.03,26.17,-27.11
10597,-0.47,6.33,-8.08,0.00,-0.00,-0.00,-22.03,26.17,-27.11
10608,-0.46,6.34,-8.08,0.00,-0.00,-0.00,-22.03,26.17,-27.11
10619,-0.46,6.34,-8.08,0.00,-0.00,-0.00,-22.03,26.17,-27.11
10630,-0.46,6.32,-8.07,0.00,-0.00,-0.00,-22.03,26.17,-27.11
10641,-0.46,6.32,-8.07,0.00,-0.00,-0.00,-22.03,26.17,-27.11
10652,-0.44,6.32,-8.08,0.00,-0.00,-0.00,-22.22,25.65,-27.61
10663,-0.45,6.33,-8.07,0.00,0.00,-0.00,-22.22,25.65,-27.61
10674,-0.45,6.33,-8.07,0.00,0.00,-0.00,-22.22,25.65,-27.61
10685,-0.46,6.32,-8.06,0.00,-0.00,-0.00,-22.22,25.65,-27.61
10696,-0.46,6.32,-8.06,0.00,-0.00,-0.00,-22.22,25.65,-27.61
10707,-0.45,6.32,-8.07,0.00,-0.00,-0.00,-22.22,25.65,-27.61
10718,-0.45,6.32,-8.07,0.00,-0.00,-0.00,-22.22,25.65,-27.61
10729,-0.45,6.32,-8.07,0.00,-0.00,-0.00,-22.22,25.65,-27.61
10740,-0.45,6.32,-8.07,0.00,-0.00,-0.00,-22.22,25.65,-27.61
10751,-0.45,6.33,-8.05,0.00,-0.00,-0.00,-22.22,25.65,-27.61
10762,-0.45,6.33,-8.05,0.00,-0.00,-0.00,-22.22,25.65,-27.61
10774,-0.44,6.34,-8.06,0.00,-0.00,-0.00,-20.89,25.82,-28.10
10784,-0.45,6.33,-8.07,0.00,-0.00,-0.00,-20.89,25.82,-28.10
10795,-0.45,6.33,-8.07,0.00,-0.00,-0.00,-20.89,25.82,-28.10
10806,-0.46,6.34,-8.05,0.00,0.00,-0.00,-20.89,25.82,-28.10
10817,-0.46,6.34,-8.05,0.00,0.00,-0.00,-20.89,25.82,-28.10
10828,-0.45,6.34,-8.06,0.00,-0.00,-0.00,-20.89,25.82,-28.10
10839,-0.45,6.34,-8.06,0.00,-0.00,-0.00,-20.89,25.82,-28.10
10850,-0.47,6.33,-8.06,0.00,-0.00,-0.00,-20.89,25.82,-28.10
10861,-0.47,6.33,-8.06,0.00,-0.00,-0.00,-20.89,25.82,-28.10
10872,-0.44,6.33,-8.06,0.00,0.00,-0.00,-20.89,25.82,-28.10
10883,-0.47,6.33,-8.06,0.00,-0.00,-0.00,-20.89,25.82,-28.10
10894,-0.47,6.33,-8.06,0.00,-0.00,-0.00,-20.89,25.82,-28.10
10905,-0.45,6.35,-8.07,-0.00,0.00,-0.00,-21.08,25.99,-27.93
10916,-0.45,6.35,-8.07,-0.00,0.00,-0.00,-21.08,25.99,-27.93
10927,-0.46,6.33,-8.06,0.00,0.00,-0.00,-21.08,25.99,-27.93
10938,-0.46,6.33,-8.06,0.00,0.00,-0.00,-21.08,25.99,-27.93
10949,-0.44,6.32,-8.08,0.00,0.00,-0.00,-21.08,25.99,-27.93
10960,-0.44,6.32,-8.08,0.00,0.00,-0.00,-21.08,25.99,-27.93
10971,-0.43,6.32,-8.08,0.00,0.00,-0.00,-21.08,25.99,-27.93
10982,-0.43,6.32,-8.08,0.00,0.00,-0.00,-21.08,25.99,-27.93
10993,-0.46,6.34,-8.07,0.00,-0.00,-0.00,-21.08,25.99,-27.93
11004,-0.46,6.33,-8.07,0.00,0.00,-0.00,-21.08,25.99,-27.93
11015,-0.46,6.33,-8.07,0.00,0.00,-0.00,-21.08,25.99,-27.93
11026,-0.44,6.32,-8.09,-0.00,0.00,0.00,-22.79,26.17,-26.46
11037,-0.44,6.32,-8.09,-0.00,0.00,0.00,-22.79,26.17,-26.46
11048,-0.44,6.32,-8.08,-0.00,0.00,-0.00,-22.79,26.17,-26.46
11059,-0.44,6.32,-8.08,-0.00,0.00,-0.00,-22.79,26.17,-26.46
11070,-0.44,6.32,-8.05,0.00,-0.00,-0.00,-22.79,26.17,-26.46
11081,-0.44,6.32,-8.05,0.00,-0.00,-0.00,-22.79,26.17,-26.46
11092,-0.41,6.36,-8.04,0.00,-0.00,-0.01,-22.79,26.17,-26.46
11103,-0.53,6.18,-7.99,0.00,-0.01,-0.01,-22.79,26.17,-26.46
11114,-0.53,6.18,-7.99,0.00,-0.01,-0.01,-22.79,26.17,-26.46
11125,-0.42,6.28,-8.05,0.01,0.02,0.01,-22.79,26.17,-26.46
11136,-0.42,6.28,-8.05,0.01,0.02,0.01,-22.79,26.17,-26.46
11147,-0.42,6.28,-8.03,-0.01,0.00,-0.00,-21.08,27.04,-27.28
11158,-0.42,6.28,-8.03,-0.01,0.00,-0.00,-21.08,27.04,-27.28
11169,-0.43,6.31,-8.00,-0.00,0.00,-0.00,-21.08,27.04,-27.28
11180,-0.43,6.31,-8.00,-0.00,0.00,-0.00,-21.08,27.04,-27.28
11191,-0.44,6.32,-8.07,0.00,0.00,-0.00,-21.08,27.04,-27.28
11202,-0.44,6.32,-8.07,0.00,0.00,-0.00,-21.08,27.04,-27.28
11213,-0.47,6.36,-8.08,-0.00,-0.00,-0.00,-21.08,27.04,-27.28
11224,-0.45,6.36,-8.09,0.00,0.00,-0.00,-21.08,27.04,-27.28
11235,-0.45,6.36,-8.09,0.00,0.00,-0.00,-21.08,27.04,-27.28
11246,-0.42,6.36,-8.08,-0.00,0.00,-0.00,-21.08,27.04,-27.28
11257,-0.42,6.36,-8.08,-0.00,0.00,-0.00,-21.08,27.04,-27.28
11268,-0.42,6.33,-8.11,-0.00,0.00,-0.00,-21.08,27.04,-27.28
11279,-0.42,6.33,-8.11,-0.00,0.00,-0.00,-21.08,27.04,-27.28
11290,-0.45,6.34,-8.10,-0.00,0.00,-0.00,-22.41,26.87,-26.78
11301,-0.45,6.34,-8.10,-0.00,0.00,-0.00,-22.41,26.87,-26.78
11312,-0.47,6.34,-8.05,-0.00,0.00,-0.00,-22.41,26.87,-26.78
11323,-0.46,6.32,-8.04,-0.00,0.00,-0.00,-22.41,26.87,-26.78
11334,-0.46,6.32,-8.04,-0.00,0.00,-0.00,-22.41,26.87,-26.78
11345,-0.43,6.32,-8.04,0.00,0.00,-0.00,-22.41,26.87,-26.78
11357,-0.43,6.32,-8.04,0.00,0.00,-0.00,-22.41,26.87,-26.78
11367,-0.44,6.32,-8.02,-0.00,-0.00,-0.00,-22.41,26.87,-26.78
11378,-0.44,6.32,-8.02,-0.00,-0.00,-0.00,-22.41,26.87,-26.78
11389,-0.44,6.32,-8.04,-0.00,0.00,-0.00,-22.41,26.87,-26.78
11400,-0.44,6.32,-8.04,-0.00,0.00,-0.00,-22.41,26.87,-26.78
11411,-0.46,6.36,-8.09,-0.00,-0.00,-0.00,-20.52,25.82,-27.11
11422,-0.46,6.36,-8.09,-0.00,-0.00,-0.00,-20.52,25.82,-27.11
11433,-0.45,6.36,-8.10,-0.00,-0.00,-0.00,-20.52,25.82,-27.11
11444,-0.45,6.36,-8.07,-0.00,0.00,-0.00,-20.52,25.82,-27.11
11455,-0.45,6.36,-8.07,-0.00,0.00,-0.00,-20.52,25.82,-27.11
11466,-0.42,6.34,-8.09,0.00,0.00,-0.00,-20.52,25.82,-27.11
11477,-0.42,6.34,-8.09,0.00,0.00,-0.00,-20.52,25.82,-27.11
11488,-0.43,6.33,-8.05,0.00,-0.00,-0.00,-20.52,25.82,-27.11
11499,-0.43,6.33,-8.05,0.00,-0.00,-0.00,-20.52,25.82,-27.11
11510,-0.46,6.34,-8.11,-0.00,-0.00,-0.00,-20.52,25.82,-27.11
11521,-0.46,6.34,-8.11,-0.00,-0.00,-0.00,-20.52,25.82,-27.11
11532,-0.45,6.34,-8.10,-0.00,0.00,-0.00,-22.79,26.52,-25.80
11543,-0.44,6.33,-8.07,-0.00,0.00,-0.00,-22.79,26.52,-25.80
11554,-0.44,6.33,-8.07,-0.00,0.00,-0.00,-22.79,26.52,-25.80
11565,-0.42,6.33,-8.06,-0.00,-0.00,-0.00,-22.79,26.52,-25.80
11576,-0.42,6.33,-8.06,-0.00,-0.00,-0.00,-22.79,26.52,-25.80
11587,-0.44,6.34,-8.06,-0.00,0.00,-0.00,-22.79,26.52,-25.80
11598,-0.44,6.34,-8.06,-0.00,0.00,-0.00,-22.79,26.52,-25.80
11609,-0.45,6.34,-8.06,0.00,-0.00,-0.00,-22.79,26.52,-25.80
11620,-0.45,6.34,-8.06,0.00,-0.00,-0.00,-22.79,26.52,-25.80
11631,-0.46,6.33,-8.06,0.00,-0.00,-0.00,-22.79,26.52,-25.80
11642,-0.46,6.33,-8.06,0.00,-0.00,-0.00,-22.79,26.52,-25.80
11653,-0.44,6.34,-8.06,-0.00,-0.00,-0.00,-22.79,26.52,-25.80
11664,-0.43,6.34,-8.09,-0.00,0.00,-0.00,-22.41,27.22,-26.13
11675,-0.43,6.34,-8.09,-0.00,0.00,-0.00,-22.41,27.22,-26.13
11686,-0.45,6.34,-8.05,-0.00,-0.00,-0.00,-22.41,27.22,-26.13
11697,-0.45,6.34,-8.05,-0.00,-0.00,-0.00,-22.41,27.22,-26.13
11708,-0.46,6.33,-8.05,0.00,0.00,-0.00,-22.41,27.22,-26.13
11719,-0.46,6.33,-8.05,0.00,0.00,-0.00,-22.41,27.22,-26.13
11730,-0.46,6.34,-8.05,-0.00,-0.00,-0.00,-22.41,27.22,-26.13
11741,-0.46,6.34,-8.05,-0.00,-0.00,-0.00,-22.41,27.22,-26.13
11752,-0.45,6.34,-8.05,-0.00,-0.00,-0.00,-22.41,27.22,-26.13
11763,-0.45,6.34,-8.05,-0.00,-0.00,-0.00,-22.41,27.22,-26.13
11774,-0.43,6.33,-8.03,0.00,-0.00,-0.00,-22.41,27.22,-26.13
11785,-0.44,6.33,-8.07,0.00,-0.00,-0.00,-22.22,25.65,-26.95
11796,-0.44,6.33,-8.07,0.00,-0.00,-0.00,-22.22,25.65,-26.95
11807,-0.46,6.33,-8.07,0.00,-0.00,-0.00,-22.22,25.65,-26.95
11818,-0.46,6.33,-8.07,0.00,-0.00,-0.00,-22.22,25.65,-26.95
11829,-0.46,6.35,-8.07,-0.00,-0.00,-0.00,-22.22,25.65,-26.95
11840,-0.46,6.35,-8.07,-0.00,-0.00,-0.00,-22.22,25.65,-26.95
11851,-0.44,6.33,-8.06,0.00,-0.00,-0.00,-22.22,25.65,-26.95
11862,-0.44,6.33,-8.06,0.00,-0.00,-0.00,-22.22,25.65,-26.95
11873,-0.43,6.34,-8.04,0.00,-0.00,-0.00,-22.22,25.65,-26.95
11884,-0.43,6.35,-8.08,0.00,-0.00,-0.00,-22.22,25.65,-26.95
11895,-0.43,6.35,-8.08,0.00,-0.00,-0.00,-22.22,25.65,-26.95
11906,-0.45,6.33,-8.06,0.00,-0.00,-0.00,-23.54,26.87,-25.14
11917,-0.45,6.33,-8.06,0.00,-0.00,-0.00,-23.54,26.87,-25.14
11928,-0.45,6.34,-8.05,0.00,0.00,-0.00,-23.54,26.87,-25.14
11939,-0.45,6.34,-8.05,0.00,0.00,-0.00,-23.54,26.87,-25.14
11950,-0.45,6.34,-8.05,-0.00,0.00,-0.00,-23.54,26.87,-25.14
11961,-0.45,6.34,-8.05,-0.00,0.00,-0.00,-23.54,26.87,-25.14
11972,-0.44,6.33,-8.04,0.00,0.00,-0.00,-23.54,26.87,-25.14
11983,-0.44,6.33,-8.04,0.00,0.00,-0.00,-23.54,26.87,-25.14
11994,-0.44,6.34,-8.05,0.00,-0.00,-0.00,-23.54,26.87,-25.14
12005,-0.44,6.34,-8.07,0.00,-0.00,-0.00,-23.54,26.87,-25.14
12016,-0.44,6.34,-8.07,0.00,-0.00,-0.00,-23.54,26.87,-25.14
12027,-0.45,6.34,-8.10,-0.00,-0.00,-0.00,-22.22,27.04,-27.28
12038,-0.45,6.34,-8.10,-0.00,-0.00,-0.00,-22.22,27.04,-27.28
12049,-0.44,6.34,-8.08,0.00,-0.00,-0.00,-22.22,27.04,-27.28
12060,-0.44,6.34,-8.08,0.00,-0.00,-0.00,-22.22,27.04,-27.28
12071,-0.43,6.33,-8.05,0.00,-0.00,-0.00,-22.22,27.04,-27.28
12082,-0.43,6.33,-8.05,0.00,-0.00,-0.00,-22.22,27.04,-27.28
12093,-0.42,6.32,-8.06,0.00,-0.00,-0.00,-22.22,27.04,-27.28
12104,-0.44,6.33,-8.05,0.00,-0.00,-0.00,-22.22,27.04,-27.28
12115,-0.44,6.33,-8.05,0.00,-0.00,-0.00,-22.22,27.04,-27.28
12126,-0.46,6.34,-8.05,0.00,-0.00,-0.00,-22.22,27.04,-27.28
12137,-0.46,6.34,-8.05,0.00,-0.00,-0.00,-22.22,27.04,-27.28
12148,-0.45,6.33,-8.06,0.00,-0.00,-0.00,-22.22,27.04,-27.28
12160,-0.45,6.33,-8.06,0.00,-0.00,-0.00,-22.22,27.04,-27.28
12170,-0.44,6.34,-8.09,-0.00,-0.00,-0.00,-21.65,26.52,-27.44
12181,-0.44,6.34,-8.09,-0.00,-0.00,-0.00,-21.65,26.52,-27.44
12192,-0.43,6.34,-8.07,0.00,-0.00,-0.00,-21.65,26.52,-27.44
12203,-0.43,6.34,-8.07,0.00,-0.00,-0.00,-21.65,26.52,-27.44
12214,-0.44,6.35,-8.06,0.00,-0.00,-0.00,-21.65,26.52,-27.44
12225,-0.44,6.34,-8.04,0.00,-0.00,-0.00,-21.65,26.52,-27.44
12236,-0.44,6.34,-8.04,0.00,-0.00,-0.00,-21.65,26.52,-27.44
12247,-0.44,6.33,-8.05,0.00,-0.00,-0.00,-21.65,26.52,-27.44
12258,-0.44,6.33,-8.05,0.00,-0.00,-0.00,-21.65,26.52,-27.44
12269,-0.44,6.33,-8.06,0.00,-0.00,-0.00,-21.65,26.52,-27.44
12280,-0.44,6.33,-8.06,0.00,-0.00,-0.00,-21.65,26.52,-27.44
12291,-0.44,6.34,-8.09,0.00,-0.00,-0.00,-21.84,26.69,-26.62
12302,-0.44,6.34,-8.09,0.00,-0.00,-0.00,-21.84,26.69,-26.62
12313,-0.44,6.34,-8.06,0.00,-0.00,-0.00,-21.84,26.69,-26.62
12324,-0.46,6.32,-8.09,-0.00,-0.00,-0.00,-21.84,26.69,-26.62
12335,-0.46,6.32,-8.09,-0.00,-0.00,-0.00,-21.84,26.69,-26.62
12346,-0.45,6.34,-8.07,0.00,-0.00,-0.00,-21.84,26.69,-26.62
12357,-0.45,6.34,-8.07,0.00,-0.00,-0.00,-21.84,26.69,-26.62
12368,-0.44,6.33,-8.04,0.00,-0.00,-0.00,-21.84,26.69,-26.62
12379,-0.44,6.33,-8.04,0.00,-0.00,-0.00,-21.84,26.69,-26.62
12390,-0.43,6.33,-8.06,0.00,-0.00,-0.00,-21.84,26.69,-26.62
12401,-0.43,6.33,-8.06,0.00,-0.00,-0.00,-21.84,26.69,-26.62
12412,-0.45,6.34,-8.08,0.00,-0.00,-0.00,-21.46,25.65,-27.93
12423,-0.45,6.34,-8.08,0.00,-0.00,-0.00,-21.46,25.65,-27.93
12434,-0.46,6.34,-8.09,0.00,0.00,-0.00,-21.46,25.65,-27.93
12445,-0.45,6.34,-8.07,0.00,-0.00,-0.00,-21.46,25.65,-27.93
12456,-0.45,6.34,-8.07,0.00,-0.00,-0.00,-21.46,25.65,-27.93
12467,-0.43,6.34,-8.09,0.00,-0.00,-0.00,-21.46,25.65,-27.93
12478,-0.43,6.34,-8.09,0.00,-0.00,-0.00,-21.46,25.65,-27.93
12489,-0.43,6.34,-8.05,0.00,-0.00,-0.00,-21.46,25.65,-27.93
12500,-0.43,6.34,-8.05,0.00,-0.00,-0.00,-21.46,25.65,-27.93
12511,-0.43,6.34,-8.05,0.00,-0.00,-0.00,-21.46,25.65,-27.93
12522,-0.43,6.34,-8.05,0.00,-0.00,-0.00,-21.46,25.65,-27.93
12533,-0.44,6.34,-8.07,0.00,-0.00,-0.00,-21.46,25.65,-27.93
12544,-0.45,6.34,-8.08,0.00,-0.00,-0.00,-22.60,25.30,-26.29
12555,-0.45,6.34,-8.08,0.00,-0.00,-0.00,-22.60,25.30,-26.29
12566,-0.45,6.34,-8.06,0.00,-0.00,-0.00,-22.60,25.30,-26.29
12577,-0.45,6.34,-8.06,0.00,-0.00,-0.00,-22.60,25.30,-26.29
12588,-0.44,6.33,-8.07,0.00,-0.00,-0.00,-22.60,25.30,-26.29
12599,-0.44,6.33,-8.07,0.00,-0.00,-0.00,-22.60,25.30,-26.29
12610,-0.45,6.34,-8.07,0.00,-0.00,-0.00,-22.60,25.30,-26.29
12621,-0.45,6.34,-8.07,0.00,-0.00,-0.00,-22.60,25.30,-26.29
12632,-0.45,6.34,-8.06,-0.00,-0.00,-0.00,-22.60,25.30,-26.29
12643,-0.45,6.34,-8.06,-0.00,-0.00,-0.00,-22.60,25.30,-26.29
12654,-0.45,6.34,-8.06,0.00,-0.00,-0.00,-22.60,25.30,-26.29
12665,-0.44,6.32,-8.10,0.00,-0.00,-0.00,-22.03,26.52,-26.46
12676,-0.44,6.32,-8.10,0.00,-0.00,-0.00,-22.03,26.52,-26.46
12687,-0.45,6.33,-8.10,0.00,-0.00,-0.01,-22.03,26.52,-26.46
12698,-0.45,6.33,-8.10,0.00,-0.00,-0.01,-22.03,26.52,-26.46
12709,-0.44,6.33,-8.07,-0.00,-0.00,-0.00,-22.03,26.52,-26.46
12720,-0.44,6.33,-8.07,-0.00,-0.00,-0.00,-22.03,26.52,-26.46
12731,-0.44,6.34,-8.06,0.00,-0.00,-0.00,-22.03,26.52,-26.46
12743,-0.44,6.34,-8.06,0.00,-0.00,-0.00,-22.03,26.52,-26.46
12753,-0.45,6.34,-8.06,0.00,-0.00,-0.00,-22.03,26.52,-26.46
12764,-0.44,6.33,-8.07,0.00,-0.00,-0.00,-22.03,26.52,-26.46
12775,-0.44,6.33,-8.07,0.00,-0.00,-0.00,-22.03,26.52,-26.46
12786,-0.45,6.34,-8.07,0.00,-0.00,-0.00,-21.46,25.99,-26.29
12797,-0.45,6.34,-8.07,0.00,-0.00,-0.00,-21.46,25.99,-26.29
12808,-0.44,6.33,-8.06,0.00,-0.00,-0.00,-21.46,25.99,-26.29
12819,-0.44,6.33,-8.06,0.00,-0.00,-0.00,-21.46,25.99,-26.29
12830,-0.44,6.33,-8.08,0.00,-0.00,-0.00,-21.46,25.99,-26.29
12841,-0.44,6.33,-8.08,0.00,-0.00,-0.00,-21.46,25.99,-26.29
12852,-0.44,6.33,-8.06,0.00,-0.00,-0.00,-21.46,25.99,-26.29
12863,-0.44,6.33,-8.06,0.00,-0.00,-0.00,-21.46,25.99,-26.29
12874,-0.44,6.34,-8.06,0.00,-0.00,-0.00,-21.46,25.99,-26.29
12885,-0.44,6.33,-8.07,0.00,-0.00,-0.00,-21.46,25.99,-26.29
12901,-0.44,6.33,-8.07,0.00,-0.00,-0.00,-21.46,25.99,-26.29
12907,-0.44,6.33,-8.07,0.00,0.00,-0.00,-21.46,25.99,-26.29
12918,-0.44,6.33,-8.07,0.00,0.00,-0.00,-21.46,25.99,-26.29
12929,-0.45,6.34,-8.09,0.00,-0.00,-0.00,-22.22,27.39,-26.29
12940,-0.45,6.34,-8.09,0.00,-0.00,-0.00,-22.22,27.39,-26.29
12951,-0.45,6.34,-8.06,0.00,-0.00,-0.00,-22.22,27.39,-26.29
12962,-0.45,6.34,-8.06,0.00,-0.00,-0.00,-22.22,27.39,-26.29
12973,-0.44,6.35,-8.07,0.00,0.00,-0.00,-22.22,27.39,-26.29
12984,-0.44,6.35,-8.07,0.00,0.00,-0.00,-22.22,27.39,-26.29
12995,-0.44,6.34,-8.05,0.00,-0.00,-0.00,-22.22,27.39,-26.29
13006,-0.45,6.33,-8.07,0.00,-0.00,-0.00,-22.22,27.39,-26.29
13017,-0.45,6.33,-8.07,0.00,-0.00,-0.00,-22.22,27.39,-26.29
13028,-0.45,6.34,-8.06,0.00,-0.00,-0.00,-22.22,27.39,-26.29
13040,-0.45,6.34,-8.06,0.00,-0.00,-0.00,-22.22,27.39,-26.29
13050,-0.45,6.34,-8.07,0.00,-0.00,-0.00,-21.65,25.82,-26.78
13061,-0.45,6.34,-8.07,0.00,-0.00,-0.00,-21.65,25.82,-26.78
13072,-0.46,6.33,-8.07,0.00,-0.00,-0.00,-21.65,25.82,-26.78
13083,-0.46,6.33,-8.07,0.00,-0.00,-0.00,-21.65,25.82,-26.78
13094,-0.44,6.32,-8.06,0.00,-0.00,-0.00,-21.65,25.82,-26.78
13105,-0.44,6.33,-8.06,0.00,0.00,-0.00,-21.65,25.82,-26.78
13116,-0.44,6.33,-8.06,0.00,0.00,-0.00,-21.65,25.82,-26.78
13127,-0.45,6.34,-8.07,0.00,-0.00,-0.00,-21.65,25.82,-26.78
13138,-0.45,6.34,-8.07,0.00,-0.00,-0.00,-21.65,25.82,-26.78
13149,-0.45,6.33,-8.04,0.00,0.00,-0.00,-21.65,25.82,-26.78
13160,-0.45,6.33,-8.04,0.00,0.00,-0.00,-21.65,25.82,-26.78
13171,-0.45,6.34,-8.07,0.00,-0.00,-0.00,-21.08,25.65,-25.96
13182,-0.45,6.34,-8.07,0.00,-0.00,-0.00,-21.08,25.65,-25.96
13193,-0.44,6.34,-8.10,0.00,-0.00,-0.00,-21.08,25.65,-25.96
13204,-0.44,6.34,-8.10,0.00,-0.00,-0.00,-21.08,25.65,-25.96
13215,-0.43,6.34,-8.06,0.00,-0.00,-0.00,-21.08,25.65,-25.96
13226,-0.44,6.33,-8.04,0.00,-0.00,-0.00,-21.08,25.65,-25.96
13237,-0.44,6.33,-8.04,0.00,-0.00,-0.00,-21.08,25.65,-25.96
13248,-0.44,6.33,-8.05,0.00,-0.00,-0.00,-21.08,25.65,-25.96
13259,-0.44,6.33,-8.05,0.00,-0.00,-0.00,-21.08,25.65,-25.96
13270,-0.45,6.34,-8.05,0.00,-0.00,-0.00,-21.08,25.65,-25.96
13281,-0.45,6.34,-8.05,0.00,-0.00,-0.00,-21.08,25.65,-25.96
13292,-0.45,6.32,-8.05,0.00,-0.00,-0.00,-22.79,26.87,-27.11
13303,-0.45,6.32,-8.05,0.00,-0.00,-0.00,-22.79,26.87,-27.11
13314,-0.45,6.33,-8.06,0.00,-0.00,-0.00,-22.79,26.87,-27.11
13325,-0.42,6.36,-8.07,0.00,-0.00,-0.00,-22.79,26.87,-27.11
13336,-0.42,6.36,-8.07,0.00,-0.00,-0.00,-22.79,26.87,-27.11
13347,-0.45,6.35,-8.06,0.00,0.00,-0.00,-22.79,26.87,-27.11
13359,-0.45,6.35,-8.06,0.00,0.00,-0.00,-22.79,26.87,-27.11
13369,-0.44,6.33,-8.06,0.00,0.00,-0.00,-22.79,26.87,-27.11
13380,-0.44,6.33,-8.06,0.00,0.00,-0.00,-22.79,26.87,-27.11
13391,-0.44,6.35,-8.07,0.00,0.00,-0.00,-22.79,26.87,-27.11
13402,-0.44,6.35,-8.07,0.00,0.00,-0.00,-22.79,26.87,-27.11
13413,-0.42,6.34,-8.07,0.00,0.00,-0.00,-22.79,26.87,-27.11
13424,-0.42,6.34,-8.07,0.00,0.00,-0.00,-22.79,26.87,-27.11
13435,-0.44,6.35,-8.08,0.00,0.00,-0.00,-22.60,25.65,-25.63
13446,-0.43,6.35,-8.07,0.00,-0.00,-0.00,-22.60,25.65,-25.63
13457,-0.43,6.35,-8.07,0.00,-0.00,-0.00,-22.60,25.65,-25.63
13468,-0.44,6.34,-8.09,0.00,-0.00,-0.00,-22.60,25.65,-25.63
13479,-0.44,6.34,-8.09,0.00,-0.00,-0.00,-22.60,25.65,-25.63
13490,-0.42,6.34,-8.07,0.00,-0.00,-0.00,-22.60,25.65,-25.63
13501,-0.42,6.34,-8.07,0.00,-0.00,-0.00,-22.60,25.65,-25.63
13512,-0.43,6.33,-8.06,0.00,-0.00,-0.00,-22.60,25.65,-25.63
13523,-0.43,6.33,-8.06,0.00,-0.00,-0.00,-22.60,25.65,-25.63
13534,-0.45,6.32,-8.05,0.00,-0.00,-0.00,-22.60,25.65,-25.63
13545,-0.46,6.34,-8.07,0.00,-0.00,-0.00,-22.22,27.04,-25.96
13556,-0.46,6.34,-8.07,0.00,-0.00,-0.00,-22.22,27.04,-25.96
13567,-0.43,6.34,-8.04,0.00,-0.00,-0.00,-22.22,27.04,-25.96
13578,-0.43,6.34,-8.04,0.00,-0.00,-0.00,-22.22,27.04,-25.96
13589,-0.47,6.34,-8.03,0.00,-0.00,-0.00,-22.22,27.04,-25.96
13600,-0.47,6.34,-8.03,0.00,-0.00,-0.00,-22.22,27.04,-25.96
13611,-0.44,6.33,-8.04,0.00,-0.00,-0.00,-22.22,27.04,-25.96
13622,-0.44,6.33,-8.04,0.00,-0.00,-0.00,-22.22,27.04,-25.96
13633,-0.45,6.35,-8.06,0.00,-0.00,-0.00,-22.22,27.04,-25.96
13644,-0.45,6.35,-8.06,0.00,-0.00,-0.00,-22.22,27.04,-25.96
13655,-0.44,6.34,-8.05,-0.00,-0.00,-0.00,-22.22,27.04,-25.96
13666,-0.44,6.33,-8.05,0.00,-0.00,-0.00,-21.84,26.34,-26.95
13677,-0.44,6.33,-8.05,0.00,-0.00,-0.00,-21.84,26.34,-26.95
13688,-0.43,6.34,-8.07,0.00,-0.00,-0.00,-21.84,26.34,-26.95
13699,-0.43,6.34,-8.07,0.00,-0.00,-0.00,-21.84,26.34,-26.95
13710,-0.44,6.34,-8.08,0.00,0.00,-0.00,-21.84,26.34,-26.95
13721,-0.44,6.34,-8.08,0.00,0.00,-0.00,-21.84,26.34,-26.95
13732,-0.45,6.34,-8.07,0.00,-0.00,-0.00,-21.84,26.34,-26.95
13743,-0.45,6.34,-8.07,0.00,-0.00,-0.00,-21.84,26.34,-26.95
13754,-0.44,6.33,-8.04,0.00,-0.00,-0.00,-21.84,26.34,-26.95
13765,-0.44,6.33,-8.07,0.00,-0.00,-0.00,-21.84,26.34,-26.95
13776,-0.44,6.33,-8.07,0.00,-0.00,-0.00,-21.84,26.34,-26.95
13787,-0.45,6.34,-8.06,0.00,-0.00,-0.00,-21.84,26.34,-26.95
13798,-0.45,6.34,-8.06,0.00,-0.00,-0.00,-21.84,26.34,-26.95
13809,-0.45,6.32,-8.08,0.00,-0.00,-0.00,-20.70,27.04,-25.63
13820,-0.45,6.32,-8.08,0.00,-0.00,-0.00,-20.70,27.04,-25.63
13831,-0.44,6.33,-8.07,0.00,-0.00,-0.00,-20.70,27.04,-25.63
13842,-0.44,6.33,-8.07,0.00,-0.00,-0.00,-20.70,27.04,-25.63
13853,-0.45,6.33,-8.09,0.00,-0.00,-0.00,-20.70,27.04,-25.63
13864,-0.45,6.33,-8.09,0.00,-0.00,-0.00,-20.70,27.04,-25.63
13875,-0.45,6.34,-8.06,0.00,-0.00,-0.00,-20.70,27.04,-25.63
13886,-0.46,6.34,-8.07,0.00,-0.00,-0.00,-20.70,27.04,-25.63
13897,-0.46,6.34,-8.07,0.00,-0.00,-0.00,-20.70,27.04,-25.63
13908,-0.45,6.34,-8.05,0.00,-0.00,-0.00,-20.70,27.04,-25.63
13919,-0.45,6.34,-8.05,0.00,-0.00,-0.00,-20.70,27.04,-25.63
13930,-0.46,6.34,-8.08,0.00,-0.00,-0.00,-20.52,27.22,-27.44
13942,-0.46,6.34,-8.08,0.00,-0.00,-0.00,-20.52,27.22,-27.44
13952,-0.45,6.34,-8.06,0.00,-0.00,-0.00,-20.52,27.22,-27.44
13963,-0.45,6.34,-8.06,0.00,-0.00,-0.00,-20.52,27.22,-27.44
13974,-0.45,6.34,-8.07,0.00,-0.00,-0.00,-20.52,27.22,-27.44
13985,-0.45,6.34,-8.07,0.00,-0.00,-0.00,-20.52,27.22,-27.44
13996,-0.45,6.34,-8.05,0.00,-0.00,-0.00,-20.52,27.22,-27.44
14007,-0.45,6.34,-8.08,0.00,-0.00,-0.00,-20.52,27.22,-27.44
14018,-0.45,6.34,-8.08,0.00,-0.00,-0.00,-20.52,27.22,-27.44
14029,-0.45,6.34,-8.06,-0.00,0.00,-0.00,-20.52,27.22,-27.44
14040,-0.45,6.34,-8.06,-0.00,0.00,-0.00,-20.52,27.22,-27.44
14051,-0.45,6.34,-8.09,0.00,-0.00,-0.00,-21.65,25.82,-26.78
14062,-0.45,6.34,-8.09,0.00,-0.00,-0.00,-21.65,25.82,-26.78
14073,-0.45,6.33,-8.10,0.00,-0.00,-0.00,-21.65,25.82,-26.78
14084,-0.45,6.33,-8.10,0.00,-0.00,-0.00,-21.65,25.82,-26.78
14095,-0.45,6.32,-8.06,0.00,-0.00,-0.00,-21.65,25.82,-26.78
14106,-0.45,6.33,-8.06,0.00,-0.00,-0.00,-21.65,25.82,-26.78
14117,-0.45,6.33,-8.06,0.00,-0.00,-0.00,-21.65,25.82,-26.78
14128,-0.45,6.34,-8.04,0.00,-0.00,-0.00,-21.65,25.82,-26.78
14139,-0.45,6.34,-8.04,0.00,-0.00,-0.00,-21.65,25.82,-26.78
14150,-0.45,6.33,-8.04,0.00,-0.00,-0.00,-21.65,25.82,-26.78
14161,-0.45,6.33,-8.04,0.00,-0.00,-0.00,-21.65,25.82,-26.78
14172,-0.44,6.34,-8.05,0.00,-0.00,-0.00,-21.65,25.82,-26.78
14183,-0.44,6.34,-8.05,0.00,-0.00,-0.00,-21.65,25.82,-26.78
14194,-0.46,6.33,-8.09,0.00,-0.00,-0.00,-21.27,26.52,-26.46
14205,-0.46,6.33,-8.09,0.00,-0.00,-0.00,-21.27,26.52,-26.46
14216,-0.44,6.34,-8.04,0.00,-0.00,-0.00,-21.27,26.52,-26.46
14227,-0.45,6.32,-8.07,0.00,-0.00,-0.00,-21.27,26.52,-26.46
14243,-0.45,6.32,-8.07,0.00,-0.00,-0.00,-21.27,26.52,-26.46
14249,-0.45,6.34,-8.06,0.00,-0.00,-0.00,-21.27,26.52,-26.46
14260,-0.45,6.34,-8.06,0.00,-0.00,-0.00,-21.27,26.52,-26.46
14271,-0.45,6.33,-8.06,0.00,-0.00,-0.00,-21.27,26.52,-26.46
14282,-0.45,6.33,-8.06,0.00,-0.00,-0.00,-21.27,26.52,-26.46
14293,-0.45,6.33,-8.04,0.00,0.00,-0.00,-21.27,26.52,-26.46
14304,-0.45,6.33,-8.04,0.00,0.00,-0.00,-21.27,26.52,-26.46
14315,-0.45,6.34,-8.07,0.00,-0.00,-0.00,-21.65,27.22,-26.46
14326,-0.46,6.34,-8.09,0.00,-0.00,-0.00,-21.65,27.22,-26.46
14337,-0.46,6.34,-8.09,0.00,-0.00,-0.00,-21.65,27.22,-26.46
14348,-0.45,6.34,-8.04,0.00,-0.00,-0.00,-21.65,27.22,-26.46
14359,-0.45,6.34,-8.04,0.00,-0.00,-0.00,-21.65,27.22,-26.46
14370,-0.45,6.34,-8.06,0.00,-0.00,-0.00,-21.65,27.22,-26.46
14381,-0.45,6.34,-8.06,0.00,-0.00,-0.00,-21.65,27.22,-26.46
14392,-0.44,6.33,-8.06,0.00,-0.00,-0.00,-21.65,27.22,-26.46
14403,-0.44,6.33,-8.06,0.00,-0.00,-0.00,-21.65,27.22,-26.46
14414,-0.45,6.34,-8.04,0.00,-0.00,-0.00,-21.65,27.22,-26.46
14425,-0.45,6.34,-8.04,0.00,-0.00,-0.00,-21.65,27.22,-26.46
14436,-0.45,6.34,-8.10,-0.00,-0.00,-0.00,-22.22,25.99,-26.62
14447,-0.45,6.33,-8.07,0.00,0.00,-0.00,-22.22,25.99,-26.62
14458,-0.45,6.33,-8.07,0.00,0.00,-0.00,-22.22,25.99,-26.62
14469,-0.47,6.33,-8.07,0.00,-0.00,-0.00,-22.22,25.99,-26.62
14480,-0.47,6.33,-8.07,0.00,-0.00,-0.00,-22.22,25.99,-26.62
14491,-0.44,6.33,-8.07,0.00,-0.00,-0.00,-22.22,25.99,-26.62
14502,-0.44,6.33,-8.07,0.00,-0.00,-0.00,-22.22,25.99,-26.62
14513,-0.44,6.34,-8.07,0.00,-0.00,-0.00,-22.22,25.99,-26.62
14524,-0.44,6.34,-8.07,0.00,-0.00,-0.00,-22.22,25.99,-26.62
14535,-0.44,6.34,-8.04,0.00,-0.00,-0.00,-22.22,25.99,-26.62
14546,-0.44,6.34,-8.08,0.00,-0.00,-0.00,-22.22,25.65,-24.65
14557,-0.44,6.34,-8.08,0.00,-0.00,-0.00,-22.22,25.65,-24.65
14568,-0.45,6.33,-8.09,0.00,-0.00,-0.00,-22.22,25.65,-24.65
14579,-0.45,6.33,-8.09,0.00,-0.00,-0.00,-22.22,25.65,-24.65
14591,-0.45,6.34,-8.07,0.00,-0.00,-0.00,-22.22,25.65,-24.65
14601,-0.45,6.34,-8.07,0.00,-0.00,-0.00,-22.22,25.65,-24.65
14612,-0.45,6.34,-8.07,0.00,-0.00,-0.00,-22.22,25.65,-24.65
14623,-0.45,6.34,-8.07,0.00,-0.00,-0.00,-22.22,25.65,-24.65
14634,-0.44,6.34,-8.04,0.00,-0.00,-0.00,-22.22,25.65,-24.65
14645,-0.44,6.34,-8.04,0.00,-0.00,-0.00,-22.22,25.65,-24.65
14656,-0.45,6.34,-8.07,0.00,-0.00,-0.00,-22.22,25.65,-24.65
14667,-0.45,6.34,-8.04,0.00,-0.00,-0.00,-22.22,25.65,-24.65
14678,-0.45,6.34,-8.04,0.00,-0.00,-0.00,-22.22,25.65,-24.65
14689,-0.44,6.33,-8.08,0.00,-0.00,-0.00,-22.41,26.52,-26.78
14700,-0.44,6.33,-8.08,0.00,-0.00,-0.00,-22.41,26.52,-26.78
14711,-0.45,6.34,-8.06,0.00,-0.00,-0.00,-22.41,26.52,-26.78
14722,-0.45,6.34,-8.06,0.00,-0.00,-0.00,-22.41,26.52,-26.78
14733,-0.45,6.35,-8.06,0.00,-0.00,-0.00,-22.41,26.52,-26.78
14744,-0.45,6.35,-8.06,0.00,-0.00,-0.00,-22.41,26.52,-26.78
14755,-0.45,6.35,-8.02,0.00,-0.00,-0.00,-22.41,26.52,-26.78
14766,-0.45,6.33,-8.05,0.00,-0.00,-0.00,-22.41,26.52,-26.78
14777,-0.45,6.33,-8.05,0.00,-0.00,-0.00,-22.41,26.52,-26.78
14788,-0.44,6.33,-8.05,0.00,-0.00,-0.00,-22.41,26.52,-26.78
14799,-0.44,6.33,-8.05,0.00,-0.00,-0.00,-22.41,26.52,-26.78
14810,-0.45,6.33,-8.05,-0.00,-0.00,-0.00,-21.08,26.69,-26.95
14821,-0.45,6.33,-8.05,-0.00,-0.00,-0.00,-21.08,26.69,-26.95
14832,-0.45,6.34,-8.08,0.00,-0.00,-0.00,-21.08,26.69,-26.95
14843,-0.45,6.34,-8.08,0.00,-0.00,-0.00,-21.08,26.69,-26.95
14854,-0.45,6.34,-8.05,0.00,0.00,-0.00,-21.08,26.69,-26.95
14865,-0.45,6.34,-8.05,0.00,0.00,-0.00,-21.08,26.69,-26.95
14876,-0.44,6.34,-8.08,0.00,0.00,-0.00,-21.08,26.69,-26.95
14887,-0.44,6.34,-8.08,0.00,-0.00,-0.00,-21.08,26.69,-26.95
14898,-0.44,6.34,-8.08,0.00,-0.00,-0.00,-21.08,26.69,-26.95
14910,-0.45,6.34,-8.07,0.00,-0.00,-0.00,-21.08,26.69,-26.95
14920,-0.45,6.34,-8.07,0.00,-0.00,-0.00,-21.08,26.69,-26.95
14931,-0.44,6.32,-8.07,0.00,-0.00,-0.00,-23.16,26.52,-27.77
14942,-0.44,6.32,-8.07,0.00,-0.00,-0.00,-23.16,26.52,-27.77
14953,-0.45,6.34,-8.07,-0.00,-0.00,-0.00,-23.16,26.52,-27.77
14964,-0.45,6.34,-8.07,-0.00,-0.00,-0.00,-23.16,26.52,-27.77
14975,-0.44,6.34,-8.06,0.00,-0.00,-0.00,-23.16,26.52,-27.77
14986,-0.45,6.32,-8.08,0.00,-0.00,-0.00,-23.16,26.52,-27.77
14997,-0.45,6.32,-8.08,0.00,-0.00,-0.00,-23.16,26.52,-27.77
15008,-0.45,6.35,-8.09,-0.00,-0.00,-0.00,-23.16,26.52,-27.77
15019,-0.45,6.35,-8.09,-0.00,-0.00,-0.00,-23.16,26.52,-27.77
15030,-0.44,6.35,-8.05,0.00,0.00,-0.00,-23.16,26.52,-27.77
15041,-0.44,6.35,-8.05,0.00,0.00,-0.00,-23.16,26.52,-27.77
15052,-0.44,6.32,-8.05,0.00,-0.00,-0.00,-23.16,26.52,-27.77
15063,-0.44,6.32,-8.05,0.00,-0.00,-0.00,-23.16,26.52,-27.77
15074,-0.45,6.33,-8.05,0.00,-0.00,-0.00,-20.70,25.30,-26.62
15085,-0.45,6.33,-8.05,0.00,-0.00,-0.00,-20.70,25.30,-26.62
15096,-0.46,6.34,-8.06,0.00,-0.00,-0.00,-20.70,25.30,-26.62
15107,-0.44,6.34,-8.08,0.00,0.00,-0.00,-20.70,25.30,-26.62
15118,-0.44,6.34,-8.08,0.00,0.00,-0.00,-20.70,25.30,-26.62
15129,-0.45,6.33,-8.06,0.00,-0.00,-0.00,-20.70,25.30,-26.62
15141,-0.45,6.33,-8.06,0.00,-0.00,-0.00,-20.70,25.30,-26.62
15151,-0.45,6.34,-8.05,0.00,-0.00,-0.00,-20.70,25.30,-26.62
15167,-0.45,6.34,-8.05,0.00,-0.00,-0.00,-20.70,25.30,-26.62
15173,-0.45,6.33,-8.06,0.00,-0.00,-0.00,-20.70,25.30,-26.62
15184,-0.45,6.33,-8.06,0.00,-0.00,-0.00,-20.70,25.30,-26.62
15195,-0.44,6.33,-8.11,0.00,-0.00,-0.00,-20.89,26.87,-26.46
15206,-0.44,6.33,-8.11,0.00,-0.00,-0.00,-20.89,26.87,-26.46
15217,-0.45,6.34,-8.07,0.00,-0.00,-0.00,-20.89,26.87,-26.46
15228,-0.45,6.33,-8.06,0.00,-0.00,-0.00,-20.89,26.87,-26.46
15239,-0.45,6.33,-8.06,0.00,-0.00,-0.00,-20.89,26.87,-26.46
15250,-0.46,6.33,-8.06,0.00,-0.00,-0.00,-20.89,26.87,-26.46
15261,-0.46,6.33,-8.06,0.00,-0.00,-0.00,-20.89,26.87,-26.46
15272,-0.45,6.32,-8.07,0.00,0.00,-0.00,-20.89,26.87,-26.46
15283,-0.45,6.32,-8.07,0.00,0.00,-0.00,-20.89,26.87,-26.46
15294,-0.44,6.33,-8.04,-0.00,-0.00,-0.00,-20.89,26.87,-26.46
15305,-0.44,6.33,-8.04,-0.00,-0.00,-0.00,-20.89,26.87,-26.46
15316,-0.45,6.34,-8.07,0.00,-0.00,-0.00,-21.27,26.17,-25.14
15327,-0.45,6.35,-8.06,-0.00,-0.00,-0.00,-21.27,26.17,-25.14
15338,-0.45,6.35,-8.06,-0.00,-0.00,-0.00,-21.27,26.17,-25.14
15349,-0.44,6.34,-8.06,0.00,-0.00,-0.00,-21.27,26.17,-25.14
15360,-0.44,6.34,-8.06,0.00,-0.00,-0.00,-21.27,26.17,-25.14
15371,-0.45,6.33,-8.09,0.00,0.00,-0.00,-21.27,26.17,-25.14
15382,-0.45,6.33,-8.09,0.00,0.00,-0.00,-21.27,26.17,-25.14
15398,-0.44,6.33,-8.05,0.00,0.00,-0.00,-21.27,26.17,-25.14
15404,-0.44,6.33,-8.05,0.00,0.00,-0.00,-21.27,26.17,-25.14
15415,-0.46,6.33,-8.05,0.00,0.00,-0.00,-21.27,26.17,-25.14
15426,-0.46,6.33,-8.05,0.00,0.00,-0.00,-21.27,26.17,-25.14
15437,-0.44,6.33,-8.05,0.00,-0.00,-0.00,-21.27,26.17,-25.14
15448,-0.44,6.34,-8.08,0.00,-0.00,-0.00,-23.16,26.87,-26.46
15459,-0.44,6.34,-8.08,0.00,-0.00,-0.00,-23.16,26.87,-26.46
15470,-0.45,6.33,-8.08,0.00,-0.00,-0.00,-23.16,26.87,-26.46
15481,-0.45,6.33,-8.08,0.00,-0.00,-0.00,-23.16,26.87,-26.46
15492,-0.45,6.33,-8.06,0.00,-0.00,-0.00,-23.16,26.87,-26.46
15503,-0.45,6.33,-8.06,0.00,-0.00,-0.00,-23.16,26.87,-26.46
15514,-0.45,6.34,-8.04,0.00,-0.00,-0.00,-23.16,26.87,-26.46
15525,-0.45,6.34,-8.04,0.00,-0.00,-0.00,-23.16,26.87,-26.46
15536,-0.45,6.34,-8.04,0.00,0.00,-0.00,-23.16,26.87,-26.46
15547,-0.45,6.34,-8.04,0.00,-0.00,-0.00,-23.16,26.87,-26.46
15558,-0.45,6.34,-8.04,0.00,-0.00,-0.00,-23.16,26.87,-26.46
15569,-0.45,6.34,-8.08,0.00,-0.00,-0.00,-21.65,25.82,-26.13
15580,-0.45,6.34,-8.08,0.00,-0.00,-0.00,-21.65,25.82,-26.13
15591,-0.45,6.33,-8.05,0.00,-0.00,-0.00,-21.65,25.82,-26.13
15602,-0.45,6.33,-8.05,0.00,-0.00,-0.00,-21.65,25.82,-26.13
15613,-0.45,6.34,-8.07,0.00,-0.00,-0.00,-21.65,25.82,-26.13
15624,-0.45,6.34,-8.07,0.00,-0.00,-0.00,-21.65,25.82,-26.13
15635,-0.44,6.33,-8.03,0.00,-0.00,-0.00,-21.65,25.82,-26.13
15646,-0.44,6.33,-8.03,0.00,-0.00,-0.00,-21.65,25.82,-26.13
15657,-0.44,6.36,-8.06,-0.00,-0.00,-0.00,-21.65,25.82,-26.13
15668,-0.45,6.33,-8.05,-0.00,0.00,-0.00,-21.65,25.82,-26.13
15679,-0.45,6.33,-8.05,-0.00,0.00,-0.00,-21.65,25.82,-26.13
15690,-0.45,6.34,-8.07,-0.00,-0.00,-0.00,-21.65,25.82,-27.11
15701,-0.45,6.34,-8.07,-0.00,-0.00,-0.00,-21.65,25.82,-27.11
15712,-0.45,6.34,-8.07,0.00,-0.00,-0.00,-21.65,25.82,-27.11
15723,-0.45,6.34,-8.07,0.00,-0.00,-0.00,-21.65,25.82,-27.11
15734,-0.44,6.33,-8.05,0.00,-0.00,-0.00,-21.65,25.82,-27.11
15745,-0.44,6.33,-8.05,0.00,-0.00,-0.00,-21.65,25.82,-27.11
15756,-0.45,6.33,-8.04,0.00,-0.00,-0.00,-21.65,25.82,-27.11
15767,-0.45,6.33,-8.07,0.00,-0.00,-0.00,-21.65,25.82,-27.11
15778,-0.45,6.33,-8.07,0.00,-0.00,-0.00,-21.65,25.82,-27.11
15789,-0.45,6.34,-8.06,0.00,-0.00,-0.00,-21.65,25.82,-27.11
15800,-0.45,6.34,-8.06,0.00,-0.00,-0.00,-21.65,25.82,-27.11
15811,-0.45,6.34,-8.08,0.00,-0.00,-0.00,-20.52,26.17,-26.46
15822,-0.45,6.34,-8.08,0.00,-0.00,-0.00,-20.52,26.17,-26.46
15833,-0.46,6.34,-8.06,-0.00,-0.00,-0.00,-20.52,26.17,-26.46
15844,-0.46,6.34,-8.06,-0.00,-0.00,-0.00,-20.52,26.17,-26.46
15855,-0.45,6.33,-8.05,0.00,-0.00,-0.00,-20.52,26.17,-26.46
15866,-0.45,6.33,-8.05,0.00,-0.00,-0.00,-20.52,26.17,-26.46
15877,-0.45,6.34,-8.07,-0.00,-0.00,-0.00,-20.52,26.17,-26.46
15888,-0.45,6.32,-8.07,0.00,-0.00,-0.00,-20.52,26.17,-26.46
15899,-0.45,6.32,-8.07,0.00,-0.00,-0.00,-20.52,26.17,-26.46
15910,-0.44,6.33,-8.02,-0.00,0.00,-0.00,-20.52,26.17,-26.46
15921,-0.44,6.33,-8.02,-0.00,0.00,-0.00,-20.52,26.17,-26.46
15932,-0.46,6.33,-8.05,0.00,-0.00,-0.00,-20.52,26.17,-26.46
15943,-0.46,6.33,-8.05,0.00,-0.00,-0.00,-20.52,26.17,-26.46
15954,-0.45,6.34,-8.07,0.00,0.00,-0.00,-20.89,26.52,-27.44
15965,-0.45,6.34,-8.07,0.00,0.00,-0.00,-20.89,26.52,-27.44
15976,-0.45,6.33,-8.06,0.00,-0.00,-0.00,-20.89,26.52,-27.44
15987,-0.45,6.31,-8.06,0.00,0.00,-0.00,-20.89,26.52,-27.44
15998,-0.45,6.31,-8.06,0.00,0.00,-0.00,-20.89,26.52,-27.44
16009,-0.45,6.31,-8.05,0.00,0.00,-0.00,-20.89,26.52,-27.44
16020,-0.45,6.31,-8.05,0.00,0.00,-0.00,-20.89,26.52,-27.44
16031,-0.45,6.35,-8.07,0.00,-0.00,-0.00,-20.89,26.52,-27.44
16042,-0.45,6.35,-8.07,0.00,-0.00,-0.00,-20.89,26.52,-27.44
16053,-0.46,6.33,-8.06,0.00,-0.00,-0.00,-20.89,26.52,-27.44
16064,-0.46,6.33,-8.06,0.00,-0.00,-0.00,-20.89,26.52,-27.44
16075,-0.45,6.32,-8.08,-0.00,-0.00,-0.00,-21.65,27.56,-26.78
16091,-0.45,6.32,-8.08,-0.00,-0.00,-0.00,-21.65,27.56,-26.78
16097,-0.45,6.33,-8.08,-0.00,-0.00,-0.00,-21.65,27.56,-26.78
16108,-0.45,6.35,-8.05,0.00,-0.00,-0.00,-21.65,27.56,-26.78
16119,-0.45,6.35,-8.05,0.00,-0.00,-0.00,-21.65,27.56,-26.78
16130,-0.44,6.34,-8.05,0.00,-0.00,-0.00,-21.65,27.56,-26.78
16141,-0.44,6.34,-8.05,0.00,-0.00,-0.00,-21.65,27.56,-26.78
16152,-0.44,6.34,-8.05,0.00,-0.00,-0.00,-21.65,27.56,-26.78
16163,-0.44,6.34,-8.05,0.00,-0.00,-0.00,-21.65,27.56,-26.78
16174,-0.46,6.34,-8.05,-0.00,-0.00,-0.00,-21.65,27.56,-26.78
16185,-0.46,6.34,-8.05,-0.00,-0.00,-0.00,-21.65,27.56,-26.78
16196,-0.45,6.36,-8.08,0.00,-0.00,-0.00,-21.84,26.34,-25.63
16208,-0.44,6.33,-8.08,0.00,-0.00,-0.00,-21.84,26.34,-25.63
16218,-0.44,6.33,-8.08,0.00,-0.00,-0.00,-21.84,26.34,-25.63
16229,-0.45,6.33,-8.06,0.00,0.00,-0.00,-21.84,26.34,-25.63
16240,-0.45,6.33,-8.06,0.00,0.00,-0.00,-21.84,26.34,-25.63
16251,-0.45,6.34,-8.07,0.00,-0.00,-0.00,-21.84,26.34,-25.63
16262,-0.45,6.34,-8.07,0.00,-0.00,-0.00,-21.84,26.34,-25.63
16273,-0.45,6.34,-8.07,0.00,-0.00,-0.00,-21.84,26.34,-25.63
16284,-0.45,6.34,-8.07,0.00,-0.00,-0.00,-21.84,26.34,-25.63
16295,-0.43,6.34,-8.06,-0.00,-0.00,-0.00,-21.84,26.34,-25.63
16306,-0.43,6.34,-8.06,-0.00,-0.00,-0.00,-21.84,26.34,-25.63
16317,-0.44,6.34,-8.05,-0.00,-0.00,-0.00,-21.84,26.34,-25.63
16328,-0.45,6.34,-8.09,0.00,-0.00,-0.00,-22.41,25.47,-26.78
16339,-0.45,6.34,-8.09,0.00,-0.00,-0.00,-22.41,25.47,-26.78
16350,-0.44,6.34,-8.07,0.00,0.00,-0.00,-22.41,25.47,-26.78
16361,-0.44,6.34,-8.07,0.00,0.00,-0.00,-22.41,25.47,-26.78
16372,-0.45,6.33,-8.06,0.00,-0.00,-0.00,-22.41,25.47,-26.78
16383,-0.45,6.33,-8.06,0.00,-0.00,-0.00,-22.41,25.47,-26.78
16394,-0.45,6.34,-8.08,0.00,-0.00,-0.00,-22.41,25.47,-26.78
16405,-0.45,6.34,-8.08,0.00,-0.00,-0.00,-22.41,25.47,-26.78
16416,-0.45,6.34,-8.05,0.00,-0.00,-0.00,-22.41,25.47,-26.78
16427,-0.45,6.34,-8.05,0.00,-0.00,-0.00,-22.41,25.47,-26.78
16439,-0.45,6.33,-8.03,-0.00,-0.00,-0.00,-22.41,25.47,-26.78
16449,-0.44,6.33,-8.07,0.00,-0.00,-0.00,-22.41,26.87,-27.11
16460,-0.44,6.33,-8.07,0.00,-0.00,-0.00,-22.41,26.87,-27.11
16471,-0.44,6.34,-8.05,0.00,0.00,-0.00,-22.41,26.87,-27.11
16482,-0.44,6.34,-8.05,0.00,0.00,-0.00,-22.41,26.87,-27.11
16493,-0.45,6.35,-8.09,0.00,0.00,-0.00,-22.41,26.87,-27.11
16504,-0.45,6.35,-8.09,0.00,0.00,-0.00,-22.41,26.87,-27.11
16515,-0.46,6.32,-8.05,0.00,0.00,-0.00,-22.41,26.87,-27.11
16526,-0.46,6.32,-8.05,0.00,0.00,-0.00,-22.41,26.87,-27.11
16537,-0.45,6.34,-8.06,0.00,0.00,-0.00,-22.41,26.87,-27.11
16548,-0.46,6.34,-8.04,0.00,-0.00,-0.00,-22.41,26.87,-27.11
16559,-0.46,6.34,-8.04,0.00,-0.00,-0.00,-22.41,26.87,-27.11
16570,-0.46,6.33,-8.08,0.00,-0.00,-0.00,-22.41,26.87,-26.78
16581,-0.46,6.33,-8.08,0.00,-0.00,-0.00,-22.41,26.87,-26.78
16592,-0.46,6.33,-8.08,0.00,-0.00,-0.00,-22.41,26.87,-26.78
16603,-0.46,6.33,-8.08,0.00,-0.00,-0.00,-22.41,26.87,-26.78
16614,-0.45,6.33,-8.08,0.00,0.00,-0.00,-22.41,26.87,-26.78
16625,-0.45,6.33,-8.08,0.00,0.00,-0.00,-22.41,26.87,-26.78
16636,-0.44,6.32,-8.06,0.00,-0.00,-0.01,-22.41,26.87,-26.78
16647,-0.44,6.32,-8.06,0.00,-0.00,-0.01,-22.41,26.87,-26.78
16658,-0.45,6.34,-8.07,0.00,-0.00,-0.00,-22.41,26.87,-26.78
16669,-0.45,6.34,-8.05,0.00,-0.00,-0.00,-22.41,26.87,-26.78
16680,-0.45,6.34,-8.05,0.00,-0.00,-0.00,-22.41,26.87,-26.78
16691,-0.45,6.33,-8.08,0.00,0.00,-0.00,-22.41,26.87,-26.78
16702,-0.45,6.33,-8.08,0.00,0.00,-0.00,-22.41,26.87,-26.78
16713,-0.46,6.34,-8.08,0.00,-0.00,-0.00,-21.65,25.12,-26.78
16724,-0.46,6.34,-8.08,0.00,-0.00,-0.00,-21.65,25.12,-26.78
16735,-0.45,6.34,-8.07,0.00,-0.00,-0.00,-21.65,25.12,-26.78
16746,-0.45,6.34,-8.07,0.00,-0.00,-0.00,-21.65,25.12,-26.78
16757,-0.45,6.33,-8.05,0.00,-0.00,-0.00,-21.65,25.12,-26.78
16768,-0.44,6.33,-8.04,0.00,-0.00,-0.00,-21.65,25.12,-26.78
16779,-0.44,6.33,-8.04,0.00,-0.00,-0.00,-21.65,25.12,-26.78
16790,-0.45,6.33,-8.06,0.00,-0.00,-0.00,-21.65,25.12,-26.78
16801,-0.45,6.33,-8.06,0.00,-0.00,-0.00,-21.65,25.12,-26.78
16812,-0.45,6.33,-8.07,0.00,-0.00,-0.00,-21.65,25.12,-26.78
16823,-0.45,6.33,-8.07,0.00,-0.00,-0.00,-21.65,25.12,-26.78
16834,-0.45,6.34,-8.08,0.00,-0.00,-0.00,-22.60,27.04,-25.63
16845,-0.45,6.34,-8.08,0.00,-0.00,-0.00,-22.60,27.04,-25.63
16856,-0.44,6.34,-8.05,0.00,-0.00,-0.00,-22.60,27.04,-25.63
16867,-0.44,6.34,-8.05,0.00,-0.00,-0.00,-22.60,27.04,-25.63
16878,-0.45,6.34,-8.08,0.00,0.00,-0.00,-22.60,27.04,-25.63
16889,-0.45,6.34,-8.07,0.00,-0.00,-0.00,-22.60,27.04,-25.63
16900,-0.45,6.34,-8.07,0.00,-0.00,-0.00,-22.60,27.04,-25.63
16911,-0.44,6.32,-8.07,0.00,-0.00,-0.00,-22.60,27.04,-25.63
16922,-0.44,6.32,-8.07,0.00,-0.00,-0.00,-22.60,27.04,-25.63
16933,-0.45,6.33,-8.07,0.00,-0.00,-0.00,-22.60,27.04,-25.63
16944,-0.45,6.33,-8.07,0.00,-0.00,-0.00,-22.60,27.04,-25.63
16955,-0.45,6.33,-8.06,0.00,-0.00,-0.00,-21.46,25.99,-27.61
16966,-0.45,6.33,-8.06,0.00,-0.00,-0.00,-21.46,25.99,-27.61
16977,-0.45,6.33,-8.08,0.00,-0.00,-0.00,-21.46,25.99,-27.61
16988,-0.45,6.33,-8.04,0.00,-0.00,-0.00,-21.46,25.99,-27.61
16999,-0.45,6.33,-8.04,0.00,-0.00,-0.00,-21.46,25.99,-27.61
17010,-0.44,6.33,-8.04,0.00,0.00,-0.00,-21.46,25.99,-27.61
17021,-0.44,6.33,-8.04,0.00,0.00,-0.00,-21.46,25.99,-27.61
17032,-0.43,6.32,-8.06,0.00,-0.00,-0.00,-21.46,25.99,-27.61
17043,-0.43,6.32,-8.06,0.00,-0.00,-0.00,-21.46,25.99,-27.61
17054,-0.45,6.32,-8.05,0.00,0.00,-0.00,-21.46,25.99,-27.61
17065,-0.45,6.32,-8.05,0.00,0.00,-0.00,-21.46,25.99,-27.61
17076,-0.44,6.35,-8.06,0.00,0.00,-0.00,-22.79,26.87,-26.13
17087,-0.44,6.35,-8.06,0.00,0.00,-0.00,-22.79,26.87,-26.13
17098,-0.46,6.35,-8.08,0.00,-0.00,-0.00,-22.79,26.87,-26.13
17109,-0.45,6.33,-8.09,0.00,-0.00,-0.00,-22.79,26.87,-26.13
17120,-0.45,6.33,-8.09,0.00,-0.00,-0.00,-22.79,26.87,-26.13
17132,-0.44,6.33,-8.08,0.00,-0.00,-0.00,-22.79,26.87,-26.13
17142,-0.44,6.33,-8.08,0.00,-0.00,-0.00,-22.79,26.87,-26.13
17153,-0.46,6.33,-8.06,-0.00,-0.00,-0.00,-22.79,26.87,-26.13
17164,-0.46,6.33,-8.06,-0.00,-0.00,-0.00,-22.79,26.87,-26.13
17175,-0.44,6.33,-8.09,0.00,-0.00,-0.00,-22.79,26.87,-26.13
17186,-0.44,6.33,-8.09,0.00,-0.00,-0.00,-22.79,26.87,-26.13
17197,-0.44,6.32,-8.08,0.00,-0.00,-0.00,-22.79,26.87,-26.13
17208,-0.44,6.32,-8.08,0.00,-0.00,-0.00,-22.79,26.87,-26.13
17219,-0.46,6.34,-8.11,0.00,-0.00,-0.00,-22.41,25.82,-27.11
17230,-0.45,6.32,-8.08,0.00,-0.00,-0.00,-22.41,25.82,-27.11
17241,-0.45,6.32,-8.08,0.00,-0.00,-0.00,-22.41,25.82,-27.11
17252,-0.43,6.33,-8.05,0.00,-0.00,-0.00,-22.41,25.82,-27.11
17263,-0.43,6.33,-8.05,0.00,-0.00,-0.00,-22.41,25.82,-27.11
17274,-0.44,6.33,-8.03,0.00,-0.00,-0.00,-22.41,25.82,-27.11
17285,-0.44,6.33,-8.03,0.00,-0.00,-0.00,-22.41,25.82,-27.11
17296,-0.45,6.34,-8.06,0.00,-0.00,-0.00,-22.41,25.82,-27.11
17307,-0.45,6.34,-8.06,0.00,-0.00,-0.00,-22.41,25.82,-27.11
17318,-0.43,6.33,-8.09,0.00,-0.00,-0.00,-22.41,25.82,-27.11
17329,-0.43,6.34,-8.08,0.00,-0.00,-0.00,-22.22,25.99,-26.62
17340,-0.43,6.34,-8.08,0.00,-0.00,-0.00,-22.22,25.99,-26.62
17351,-0.45,6.34,-8.07,-0.00,-0.00,-0.00,-22.22,25.99,-26.62
17362,-0.45,6.34,-8.07,-0.00,-0.00,-0.00,-22.22,25.99,-26.62
17373,-0.44,6.35,-8.08,0.00,-0.00,-0.00,-22.22,25.99,-26.62
17384,-0.44,6.35,-8.08,0.00,-0.00,-0.00,-22.22,25.99,-26.62
17395,-0.45,6.33,-8.09,0.00,-0.00,-0.00,-22.22,25.99,-26.62
17406,-0.45,6.33,-8.09,0.00,-0.00,-0.00,-22.22,25.99,-26.62
17417,-0.45,6.34,-8.04,0.00,-0.00,-0.00,-22.22,25.99,-26.62
17428,-0.45,6.34,-8.04,0.00,-0.00,-0.00,-22.22,25.99,-26.62
17439,-0.45,6.33,-8.06,0.00,-0.00,-0.00,-22.22,25.99,-26.62
17450,-0.44,6.33,-8.07,0.00,-0.00,-0.00,-22.60,25.65,-26.62
17461,-0.44,6.33,-8.07,0.00,-0.00,-0.00,-22.60,25.65,-26.62
17472,-0.31,6.19,-8.29,0.01,-0.03,-0.02,-22.60,25.65,-26.62
17483,-0.31,6.19,-8.29,0.01,-0.03,-0.02,-22.60,25.65,-26.62
17494,-0.53,6.40,-8.01,-0.12,-0.12,-0.10,-22.60,25.65,-26.62
17505,-0.53,6.40,-8.01,-0.12,-0.12,-0.10,-22.60,25.65,-26.62
17516,-0.51,6.36,-8.04,-0.01,-0.05,-0.04,-22.60,25.65,-26.62
17527,-0.51,6.36,-8.04,-0.01,-0.05,-0.04,-22.60,25.65,-26.62
17538,-0.49,6.32,-8.06,0.01,-0.02,-0.02,-22.60,25.65,-26.62
17549,-0.54,6.37,-7.99,-0.03,-0.03,-0.03,-22.60,25.65,-26.62
17560,-0.54,6.37,-7.99,-0.03,-0.03,-0.03,-22.60,25.65,-26.62
17571,-0.20,6.65,-8.08,0.03,0.01,-0.00,-22.60,25.65,-26.62
17582,-0.20,6.65,-8.08,0.03,0.01,-0.00,-22.60,25.65,-26.62
17593,0.67,5.07,-9.30,0.07,-0.46,0.55,-21.65,26.87,-26.78
17604,0.67,5.07,-9.30,0.07,-0.46,0.55,-21.65,26.87,-26.78
17615,-0.82,5.07,-8.95,-0.08,-0.76,0.85,-21.65,26.87,-26.78
17626,-0.82,5.07,-8.95,-0.08,-0.76,0.85,-21.65,26.87,-26.78
17637,0.04,5.38,-9.44,0.29,-0.55,1.11,-21.65,26.87,-26.78
17648,0.04,5.38,-9.44,0.29,-0.55,1.11,-21.65,26.87,-26.78
17659,-0.89,7.41,-9.99,1.65,-1.04,1.77,-21.65,26.87,-26.78
17670,-2.58,10.92,-3.06,4.03,-1.00,1.67,-21.65,26.87,-26.78
17681,-2.58,10.92,-3.06,4.03,-1.00,1.67,-21.65,26.87,-26.78
17692,-3.91,12.08,-8.27,2.54,0.75,0.03,-21.65,26.87,-26.78
17703,-3.91,12.08,-8.27,2.54,0.75,0.03,-21.65,26.87,-26.78
17714,0.49,8.87,-11.78,3.83,1.85,-1.61,-18.62,21.98,-31.39
17725,0.49,8.87,-11.78,3.83,1.85,-1.61,-18.62,21.98,-31.39
17736,1.14,5.61,-15.06,3.00,1.56,-2.94,-18.62,21.98,-31.39
17747,1.14,5.61,-15.06,3.00,1.56,-2.94,-18.62,21.98,-31.39
17758,2.27,3.71,-16.41,2.69,0.13,-3.60,-18.62,21.98,-31.39
17769,1.02,0.39,-11.76,5.06,-1.56,-3.34,-18.62,21.98,-31.39
17781,1.02,0.39,-11.76,5.06,-1.56,-3.34,-18.62,21.98,-31.39
17791,0.24,-2.01,-9.16,4.14,-2.03,-2.53,-18.62,21.98,-31.39
17802,0.24,-2.01,-9.16,4.14,-2.03,-2.53,-18.62,21.98,-31.39
17813,-1.32,1.17,-11.54,-0.17,-1.85,-1.71,-18.62,21.98,-31.39
17824,-1.32,1.17,-11.54,-0.17,-1.85,-1.71,-18.62,21.98,-31.39
17835,-0.84,3.61,-11.32,-1.47,-2.10,-1.60,-27.70,5.24,-34.02
17846,-0.84,3.61,-11.32,-1.47,-2.10,-1.60,-27.70,5.24,-34.02
17857,-1.05,5.05,-11.27,-1.66,-2.25,-2.34,-27.70,5.24,-34.02
17868,-1.05,5.05,-11.27,-1.66,-2.25,-2.34,-27.70,5.24,-34.02
17879,-1.50,6.68,-6.90,-1.00,-2.49,-3.19,-27.70,5.24,-34.02
17890,-2.86,8.14,-9.65,-0.61,-2.14,-4.87,-27.70,5.24,-34.02
17901,-2.86,8.14,-9.65,-0.61,-2.14,-4.87,-27.70,5.24,-34.02
17912,-2.23,4.42,-8.65,2.03,-1.67,-6.20,-27.70,5.24,-34.02
17923,-2.23,4.42,-8.65,2.03,-1.67,-6.20,-27.70,5.24,-34.02
17934,-0.61,1.70,-9.39,1.56,-2.05,-6.83,-27.70,5.24,-34.02
17945,-0.61,1.70,-9.39,1.56,-2.05,-6.83,-27.70,5.24,-34.02
17956,0.43,0.27,-8.36,0.73,-2.53,-7.27,-27.70,5.24,-34.02
17967,0.43,0.27,-8.36,0.73,-2.53,-7.27,-27.70,5.24,-34.02
17978,0.20,-2.20,0.14,1.86,-2.34,-7.05,-36.03,-15.34,-25.14
17989,-2.38,-0.47,0.22,-2.16,-1.16,-7.11,-36.03,-15.34,-25.14
18000,-2.38,-0.47,0.22,-2.16,-1.16,-7.11,-36.03,-15.34,-25.14
18011,-1.25,-1.65,-24.29,0.74,0.91,-6.80,-36.03,-15.34,-25.14
18022,-1.25,-1.65,-24.29,0.74,0.91,-6.80,-36.03,-15.34,-25.14
18033,-2.37,-16.80,2.60,11.45,-0.15,-3.04,-36.03,-15.34,-25.14
18044,-2.37,-16.80,2.60,11.45,-0.15,-3.04,-36.03,-15.34,-25.14
18055,-3.95,-6.41,-7.59,1.58,0.27,-1.09,-36.03,-15.34,-25.14
18066,-3.95,-6.41,-7.59,1.58,0.27,-1.09,-36.03,-15.34,-25.14
18077,-3.19,-1.53,-10.84,0.46,-0.02,-1.41,-36.03,-15.34,-25.14
18088,-3.19,-1.53,-10.84,0.46,-0.02,-1.41,-36.03,-15.34,-25.14
18099,-3.08,-6.80,-6.80,1.79,-0.86,-2.19,-23.92,-38.71,-15.28
18110,-2.95,-7.16,-5.31,1.56,-1.02,-1.96,-23.92,-38.71,-15.28
18121,-2.95,-7.16,-5.31,1.56,-1.02,-1.96,-23.92,-38.71,-15.28
18132,-2.72,-7.50,-5.42,1.07,-0.93,-1.72,-23.92,-38.71,-15.28
18143,-2.72,-7.50,-5.42,1.07,-0.93,-1.72,-23.92,-38.71,-15.28
18154,-2.01,-8.52,-4.62,0.30,-1.07,-1.42,-23.92,-38.71,-15.28
18165,-2.01,-8.52,-4.62,0.30,-1.07,-1.42,-23.92,-38.71,-15.28
18176,-3.03,-7.76,-5.36,-1.01,-1.35,-0.98,-23.92,-38.71,-15.28
18188,-3.03,-7.76,-5.36,-1.01,-1.35,-0.98,-23.92,-38.71,-15.28
18198,-3.99,-5.02,-8.19,-2.04,-1.93,-1.24,-23.92,-38.71,-15.28
18209,-3.98,-7.18,-5.86,0.10,-1.99,-1.25,-23.92,-38.71,-15.28
18220,-3.98,-7.18,-5.86,0.10,-1.99,-1.25,-19.19,-39.94,-12.49
18231,-3.25,-7.64,-4.53,0.33,-1.40,-0.83,-19.19,-39.94,-12.49
18242,-3.25,-7.64,-4.53,0.33,-1.40,-0.83,-19.19,-39.94,-12.49
18253,-3.80,-6.33,-6.34,0.06,-0.80,-0.31,-19.19,-39.94,-12.49
18264,-3.80,-6.33,-6.34,0.06,-0.80,-0.31,-19.19,-39.94,-12.49
18275,-2.57,-6.51,-6.59,0.95,-0.88,0.17,-19.19,-39.94,-12.49
18286,-2.57,-6.51,-6.59,0.95,-0.88,0.17,-19.19,-39.94,-12.49
18297,-3.86,-4.91,-9.66,2.14,-1.42,0.50,-19.19,-39.94,-12.49
18308,-3.86,-4.91,-9.66,2.14,-1.42,0.50,-19.19,-39.94,-12.49
18319,-7.86,-7.30,-2.99,4.49,-2.07,0.55,-19.19,-39.94,-12.49
18330,-7.06,-4.49,-2.24,4.05,-1.24,0.93,-21.08,-42.73,0.99
18346,-7.06,-4.49,-2.24,4.05,-1.24,0.93,-21.08,-42.73,0.99
18352,2.15,-16.42,-5.27,4.08,0.09,0.45,-21.08,-42.73,0.99
18363,2.15,-16.42,-5.27,4.08,0.09,0.45,-21.08,-42.73,0.99
18374,-10.02,-7.17,-6.73,1.42,-0.70,1.24,-21.08,-42.73,0.99
18385,-10.02,-7.17,-6.73,1.42,-0.70,1.24,-21.08,-42.73,0.99
18396,-3.17,-5.47,-6.62,4.40,-0.39,1.22,-21.08,-42.73,0.99
18407,-3.17,-5.47,-6.62,4.40,-0.39,1.22,-21.08,-42.73,0.99
18418,-4.32,-8.10,-4.39,5.40,-0.99,0.66,-21.08,-42.73,0.99
18429,-4.32,-8.10,-4.39,5.40,-0.99,0.66,-21.08,-42.73,0.99
18441,-4.42,-8.14,-1.04,4.63,-1.64,0.76,-21.08,-42.73,0.99
18451,-7.03,-7.47,-0.02,4.66,-1.44,1.33,-21.08,-42.73,0.99
18462,-7.03,-7.47,-0.02,4.66,-1.44,1.33,-21.08,-42.73,0.99
18473,0.08,-6.91,5.12,4.88,-1.16,2.27,-26.57,-33.48,21.20
18484,0.08,-6.91,5.12,4.88,-1.16,2.27,-26.57,-33.48,21.20
18495,-5.17,-3.31,-2.43,4.31,-1.21,3.00,-26.57,-33.48,21.20
18506,-5.17,-3.31,-2.43,4.31,-1.21,3.00,-26.57,-33.48,21.20
18517,-7.66,-1.11,1.06,7.95,-1.61,3.41,-26.57,-33.48,21.20
18528,-7.66,-1.11,1.06,7.95,-1.61,3.41,-26.57,-33.48,21.20
18539,-9.06,-6.27,15.26,10.53,-0.74,3.37,-26.57,-33.48,21.20
18550,-7.65,0.13,6.16,5.13,1.46,2.78,-26.57,-33.48,21.20
18561,-7.65,0.13,6.16,5.13,1.46,2.78,-26.57,-33.48,21.20
18572,-9.62,3.24,2.82,5.21,2.40,1.60,-26.57,-33.48,21.20
18583,-9.62,3.24,2.82,5.21,2.40,1.60,-26.57,-33.48,21.20
18594,-8.95,2.95,0.64,3.46,1.81,-0.04,-33.38,-3.48,30.41
18605,-8.95,2.95,0.64,3.46,1.81,-0.04,-33.38,-3.48,30.41
18616,-6.85,4.57,-3.60,-0.41,0.42,-1.73,-33.38,-3.48,30.41
18627,-6.85,4.57,-3.60,-0.41,0.42,-1.73,-33.38,-3.48,30.41
18638,-7.43,4.85,-3.03,-0.76,-1.25,-3.43,-33.38,-3.48,30.41
18649,-7.43,4.85,-3.03,-0.76,-1.25,-3.43,-33.38,-3.48,30.41
18660,-3.03,1.16,0.35,-1.91,-2.62,-5.40,-33.38,-3.48,30.41
18676,2.80,-14.59,-2.46,0.85,-3.13,-6.48,-33.38,-3.48,30.41
18682,2.80,-14.59,-2.46,0.85,-3.13,-6.48,-33.38,-3.48,30.41
18693,-3.56,-12.93,14.61,14.38,-3.64,-1.16,-33.38,-3.48,30.41
18704,-3.56,-12.93,14.61,14.38,-3.64,-1.16,-33.38,-3.48,30.41
18715,-6.28,-0.52,15.60,8.53,-2.97,1.31,-19.00,4.89,37.64
18726,-6.28,-0.52,15.60,8.53,-2.97,1.31,-19.00,4.89,37.64
18737,-6.50,2.11,13.32,5.52,-1.35,0.87,-19.00,4.89,37.64
18748,-6.50,2.11,13.32,5.52,-1.35,0.87,-19.00,4.89,37.64
18759,-4.88,1.65,9.08,2.98,-0.53,-0.29,-19.00,4.89,37.64
18770,-6.45,-0.74,11.23,1.67,-0.65,-1.28,-19.00,4.89,37.64
18781,-6.45,-0.74,11.23,1.67,-0.65,-1.28,-19.00,4.89,37.64
18792,-6.02,-1.82,10.24,-0.32,-0.59,-1.68,-19.00,4.89,37.64
18803,-6.02,-1.82,10.24,-0.32,-0.59,-1.68,-19.00,4.89,37.64
18814,-6.88,-1.64,9.47,-0.38,-0.29,-1.46,-19.00,4.89,37.64
18825,-6.88,-1.64,9.47,-0.38,-0.29,-1.46,-19.00,4.89,37.64
18836,-7.47,-1.11,9.12,2.76,-0.01,-0.77,-19.00,4.89,37.64
18847,-7.47,-1.11,9.12,2.76,-0.01,-0.77,-19.00,4.89,37.64
18858,-6.21,1.12,10.02,5.95,-0.12,-0.30,-17.11,13.26,36.32
18869,-6.21,1.12,10.02,5.95,-0.12,-0.30,-17.11,13.26,36.32
18880,-6.59,3.03,10.88,4.75,-0.34,-0.51,-17.11,13.26,36.32
18891,-4.76,2.61,13.23,1.58,-0.38,-0.71,-17.11,13.26,36.32
18902,-4.76,2.61,13.23,1.58,-0.38,-0.71,-17.11,13.26,36.32
18913,-8.08,2.21,12.57,-1.11,0.07,-0.83,-17.11,13.26,36.32
18924,-8.08,2.21,12.57,-1.11,0.07,-0.83,-17.11,13.26,36.32
18935,-6.79,2.95,9.44,-1.11,0.19,-1.36,-17.11,13.26,36.32
18946,-6.79,2.95,9.44,-1.11,0.19,-1.36,-17.11,13.26,36.32
18957,-3.32,-0.17,13.24,-0.96,0.49,-1.28,-17.11,13.26,36.32
18968,-3.32,-0.17,13.24,-0.96,0.49,-1.28,-17.11,13.26,36.32
18979,-4.05,4.40,6.41,-2.83,1.22,-0.54,-22.60,15.88,34.51
18990,-5.18,5.97,7.56,0.19,1.02,-1.04,-22.60,15.88,34.51
19001,-5.18,5.97,7.56,0.19,1.02,-1.04,-22.60,15.88,34.51
19012,-2.47,5.34,10.02,0.72,0.61,-2.36,-22.60,15.88,34.51
19023,-2.47,5.34,10.02,0.72,0.61,-2.36,-22.60,15.88,34.51
19034,0.26,1.20,10.58,0.61,0.88,-3.44,-22.60,15.88,34.51
19045,0.26,1.20,10.58,0.61,0.88,-3.44,-22.60,15.88,34.51
19056,0.20,-3.02,6.14,0.17,1.35,-3.60,-22.60,15.88,34.51
19067,0.20,-3.02,6.14,0.17,1.35,-3.60,-22.60,15.88,34.51
19078,-1.75,-6.59,1.06,1.12,1.26,-2.91,-22.60,15.88,34.51
19089,-1.75,-6.59,1.06,1.12,1.26,-2.91,-22.60,15.88,34.51
19100,-1.48,-8.84,-3.36,2.57,0.24,-1.42,-31.11,11.17,32.38
19111,0.86,-9.87,0.35,3.52,-1.82,0.76,-31.11,11.17,32.38
19122,0.86,-9.87,0.35,3.52,-1.82,0.76,-31.11,11.17,32.38
19133,1.46,-1.61,4.89,2.95,-3.37,3.12,-31.11,11.17,32.38
19144,1.46,-1.61,4.89,2.95,-3.37,3.12,-31.11,11.17,32.38
19155,-2.75,9.87,7.66,7.19,-2.09,4.06,-31.11,11.17,32.38
19166,-2.75,9.87,7.66,7.19,-2.09,4.06,-31.11,11.17,32.38
19177,-4.77,12.62,13.21,11.94,0.17,2.97,-31.11,11.17,32.38
19188,-4.77,12.62,13.21,11.94,0.17,2.97,-31.11,11.17,32.38
19199,-3.83,1.48,9.74,8.19,1.73,0.55,-31.11,11.17,32.38
19210,-4.71,3.48,1.33,-0.98,1.57,-0.48,-31.11,11.17,32.38
19221,-4.71,3.48,1.33,-0.98,1.57,-0.48,-31.11,11.17,32.38
19232,-3.93,9.25,8.48,-1.85,0.66,-0.17,-21.46,32.97,16.11
19243,-3.93,9.25,8.48,-1.85,0.66,-0.17,-21.46,32.97,16.11
19254,-11.22,14.69,23.02,-0.62,-0.55,-0.21,-21.46,32.97,16.11
19266,-11.22,14.69,23.02,-0.62,-0.55,-0.21,-21.46,32.97,16.11
19276,-3.98,6.26,9.89,0.46,0.63,-0.39,-21.46,32.97,16.11
19292,-3.98,6.26,9.89,0.46,0.63,-0.39,-21.46,32.97,16.11
19298,-1.46,4.52,-0.07,1.91,1.89,-0.48,-21.46,32.97,16.11
19309,-1.46,4.52,-0.07,1.91,1.89,-0.48,-21.46,32.97,16.11
19320,-3.51,4.82,-0.28,4.42,1.52,-0.06,-21.46,32.97,16.11
19331,-1.02,4.82,3.38,5.07,0.72,0.55,-21.46,32.97,16.11
19342,-1.02,4.82,3.38,5.07,0.72,0.55,-21.46,32.97,16.11
19353,-7.89,19.22,2.15,0.51,0.37,0.50,-23.35,34.72,6.25
19364,-7.89,19.22,2.15,0.51,0.37,0.50,-23.35,34.72,6.25
19375,-4.87,8.43,5.36,-1.16,-0.42,-1.13,-23.35,34.72,6.25
19386,-4.87,8.43,5.36,-1.16,-0.42,-1.13,-23.35,34.72,6.25
19397,-8.94,9.19,6.45,-1.01,-1.14,-1.65,-23.35,34.72,6.25
19408,-8.94,9.19,6.45,-1.01,-1.14,-1.65,-23.35,34.72,6.25
19419,-7.70,9.47,7.61,1.09,-1.24,-1.99,-23.35,34.72,6.25
19430,-7.70,9.47,7.61,1.09,-1.24,-1.99,-23.35,34.72,6.25
19441,-4.28,5.42,1.32,-1.06,-0.07,-2.38,-23.35,34.72,6.25
19452,-5.62,1.09,3.45,-1.48,0.35,-2.18,-23.35,34.72,6.25
19463,-5.62,1.09,3.45,-1.48,0.35,-2.18,-23.35,34.72,6.25
19474,-7.79,0.30,4.02,-0.94,0.17,-1.35,-29.97,28.96,11.67
19485,-7.79,0.30,4.02,-0.94,0.17,-1.35,-29.97,28.96,11.67
19496,-11.38,6.20,2.34,2.01,0.46,-0.29,-29.97,28.96,11.67
19507,-11.38,6.20,2.34,2.01,0.46,-0.29,-29.97,28.96,11.67
19518,-11.28,8.04,7.05,6.72,1.20,-0.03,-29.97,28.96,11.67
19529,-11.28,8.04,7.05,6.72,1.20,-0.03,-29.97,28.96,11.67
19540,-7.25,4.70,2.12,3.15,1.06,-0.64,-29.97,28.96,11.67
19551,-6.50,4.30,2.93,0.72,0.13,-0.38,-29.97,28.96,11.67
19562,-6.50,4.30,2.93,0.72,0.13,-0.38,-29.97,28.96,11.67
19573,-6.59,5.68,4.58,-0.11,-0.18,-0.06,-29.97,28.96,11.67
19584,-6.59,5.68,4.58,-0.11,-0.18,-0.06,-29.97,28.96,11.67
19595,-7.42,5.66,5.51,0.31,0.15,0.01,-29.97,28.96,11.67
19606,-7.42,5.66,5.51,0.31,0.15,0.01,-29.97,28.96,11.67
19617,-6.60,6.44,4.00,0.16,0.56,0.03,-33.00,30.36,0.50
19628,-6.60,6.44,4.00,0.16,0.56,0.03,-33.00,30.36,0.50
19639,-5.35,6.10,0.85,0.02,0.47,-0.01,-33.00,30.36,0.50
19650,-5.35,6.10,0.85,0.02,0.47,-0.01,-33.00,30.36,0.50
19661,-4.91,6.64,1.61,-0.60,-0.23,0.03,-33.00,30.36,0.50
19672,-6.81,7.73,5.69,-1.16,-0.65,-0.07,-33.00,30.36,0.50
19683,-6.81,7.73,5.69,-1.16,-0.65,-0.07,-33.00,30.36,0.50
19694,-7.31,7.43,4.89,-0.62,0.02,-0.19,-33.00,30.36,0.50
19705,-7.31,7.43,4.89,-0.62,0.02,-0.19,-33.00,30.36,0.50
19716,-6.74,6.77,3.14,0.03,0.53,-0.38,-33.00,30.36,0.50
19727,-6.74,6.77,3.14,0.03,0.53,-0.38,-33.00,30.36,0.50
19738,-7.38,6.08,4.33,-0.17,0.47,-0.50,-33.19,31.23,0.66
19749,-7.38,6.08,4.33,-0.17,0.47,-0.50,-33.19,31.23,0.66
19760,-7.10,5.83,4.05,-0.15,0.49,-0.38,-33.19,31.23,0.66
19771,-7.79,5.42,3.84,-0.51,0.32,-0.34,-33.19,31.23,0.66
19782,-7.79,5.42,3.84,-0.51,0.32,-0.34,-33.19,31.23,0.66
19793,-7.99,4.90,2.97,-0.67,0.27,-0.21,-33.19,31.23,0.66
19804,-7.99,4.90,2.97,-0.67,0.27,-0.21,-33.19,31.23,0.66
19815,-7.48,5.49,2.63,-0.82,0.28,-0.06,-33.19,31.23,0.66
19826,-7.48,5.49,2.63,-0.82,0.28,-0.06,-33.19,31.23,0.66
19837,-7.25,6.12,3.67,-0.64,0.29,0.00,-33.19,31.23,0.66
19848,-7.25,6.12,3.67,-0.64,0.29,0.00,-33.19,31.23,0.66
19859,-6.87,6.45,4.11,-0.19,0.32,0.05,-35.27,28.61,1.81
19870,-6.87,6.45,4.11,-0.19,0.32,0.05,-35.27,28.61,1.81
19881,-7.07,6.06,3.72,0.50,0.41,0.02,-35.27,28.61,1.81
19892,-7.49,5.60,3.16,0.86,0.48,-0.00,-35.27,28.61,1.81
19903,-7.49,5.60,3.16,0.86,0.48,-0.00,-35.27,28.61,1.81
19914,-7.00,6.19,3.19,0.45,0.33,-0.06,-35.27,28.61,1.81
19925,-7.00,6.19,3.19,0.45,0.33,-0.06,-35.27,28.61,1.81
19936,-6.99,6.29,3.32,-0.03,0.16,-0.19,-35.27,28.61,1.81
19947,-6.99,6.29,3.32,-0.03,0.16,-0.19,-35.27,28.61,1.81
19958,-7.43,5.81,2.94,-0.32,0.11,-0.26,-35.27,28.61,1.81
19969,-7.43,5.81,2.94,-0.32,0.11,-0.26,-35.27,28.61,1.81
19980,-7.30,5.80,3.45,-0.62,0.07,-0.21,-36.21,29.83,0.00
19991,-7.24,5.86,3.97,-0.87,0.02,-0.22,-36.21,29.83,0.00
20002,-7.24,5.86,3.97,-0.87,0.02,-0.22,-36.21,29.83,0.00
20013,-7.38,5.72,3.90,-0.85,0.04,-0.28,-36.21,29.83,0.00
20024,-7.38,5.72,3.90,-0.85,0.04,-0.28,-36.21,29.83,0.00
20035,-7.92,4.98,3.64,-0.69,0.07,-0.27,-36.21,29.83,0.00
20046,-7.92,4.98,3.64,-0.69,0.07,-0.27,-36.21,29.83,0.00
20057,-7.86,4.99,3.57,-0.67,0.08,-0.17,-36.21,29.83,0.00
20068,-7.86,4.99,3.57,-0.67,0.08,-0.17,-36.21,29.83,0.00
20079,-7.66,5.22,3.40,-0.41,0.18,-0.09,-36.21,29.83,0.00
20090,-7.66,5.22,3.40,-0.41,0.18,-0.09,-36.21,29.83,0.00
20101,-7.63,5.25,3.64,-0.18,0.20,-0.04,-36.21,29.83,0.00
20112,-7.41,5.62,3.76,0.03,0.27,-0.01,-35.84,28.44,1.32
20123,-7.41,5.62,3.76,0.03,0.27,-0.01,-35.84,28.44,1.32
20134,-7.50,5.55,3.67,0.17,0.29,-0.06,-35.84,28.44,1.32
20145,-7.50,5.55,3.67,0.17,0.29,-0.06,-35.84,28.44,1.32
20156,-7.58,5.48,3.46,0.14,0.25,-0.10,-35.84,28.44,1.32
20167,-7.58,5.48,3.46,0.14,0.25,-0.10,-35.84,28.44,1.32
20178,-7.63,5.37,3.62,0.13,0.21,-0.16,-35.84,28.44,1.32
20189,-7.63,5.37,3.62,0.13,0.21,-0.16,-35.84,28.44,1.32
20200,-8.01,4.93,3.02,0.28,0.23,-0.17,-35.84,28.44,1.32
20211,-7.89,5.11,2.83,0.26,0.19,-0.12,-35.84,28.44,1.32
20222,-7.89,5.11,2.83,0.26,0.19,-0.12,-35.84,28.44,1.32
20233,-8.04,5.06,3.03,0.19,0.07,-0.12,-36.97,27.39,0.33
20244,-8.04,5.06,3.03,0.19,0.07,-0.12,-36.97,27.39,0.33
20255,-7.78,5.11,3.25,0.19,-0.01,-0.05,-36.97,27.39,0.33
20266,-7.78,5.11,3.25,0.19,-0.01,-0.05,-36.97,27.39,0.33
20277,-7.78,5.26,3.50,0.15,-0.07,-0.00,-36.97,27.39,0.33
20288,-7.78,5.26,3.50,0.15,-0.07,-0.00,-36.97,27.39,0.33
20299,-7.83,5.16,3.28,0.09,-0.03,0.04,-36.97,27.39,0.33
20315,-7.83,5.16,3.28,0.09,-0.03,0.04,-36.97,27.39,0.33
20321,-7.55,5.69,3.76,0.01,0.05,0.06,-36.97,27.39,0.33
20332,-7.59,5.61,3.59,0.05,0.16,0.04,-36.97,27.39,0.33
20343,-7.59,5.61,3.59,0.05,0.16,0.04,-36.97,27.39,0.33
20354,-7.77,5.39,3.25,0.04,0.22,0.02,-34.89,27.91,-0.82
20365,-7.77,5.39,3.25,0.04,0.22,0.02,-34.89,27.91,-0.82
20376,-7.80,5.34,3.16,0.01,0.23,0.00,-34.89,27.91,-0.82
20387,-7.80,5.34,3.16,0.01,0.23,0.00,-34.89,27.91,-0.82
20398,-7.85,5.21,3.02,0.00,0.25,0.00,-34.89,27.91,-0.82
20409,-7.85,5.21,3.02,0.00,0.25,0.00,-34.89,27.91,-0.82
20420,-7.71,5.42,3.13,-0.00,0.22,-0.01,-34.89,27.91,-0.82
20431,-7.79,5.43,3.10,-0.01,0.20,-0.05,-34.89,27.91,-0.82
20442,-7.79,5.43,3.10,-0.01,0.20,-0.05,-34.89,27.91,-0.82
20453,-7.91,5.36,2.96,-0.05,0.20,-0.08,-34.89,27.91,-0.82
20464,-7.91,5.36,2.96,-0.05,0.20,-0.08,-34.89,27.91,-0.82
20475,-7.90,5.31,2.68,-0.09,0.22,-0.08,-34.89,27.91,-0.82
20486,-7.90,5.31,2.68,-0.09,0.22,-0.08,-34.89,27.91,-0.82
20497,-8.18,5.08,2.94,-0.14,0.22,-0.07,-36.40,27.22,-1.48
20508,-8.18,5.08,2.94,-0.14,0.22,-0.07,-36.40,27.22,-1.48
20519,-7.79,5.33,3.28,-0.15,0.19,-0.01,-36.40,27.22,-1.48
20530,-7.79,5.33,3.28,-0.15,0.19,-0.01,-36.40,27.22,-1.48
20541,-8.10,5.22,3.03,-0.09,0.17,0.00,-36.40,27.22,-1.48
20552,-7.99,5.04,2.75,-0.10,0.11,0.01,-36.40,27.22,-1.48
20563,-7.99,5.04,2.75,-0.10,0.11,0.01,-36.40,27.22,-1.48
20574,-7.97,5.17,2.86,-0.14,0.03,0.01,-36.40,27.22,-1.48
20585,-7.97,5.17,2.86,-0.14,0.03,0.01,-36.40,27.22,-1.48
20596,-7.90,5.27,3.17,-0.07,-0.03,-0.04,-36.40,27.22,-1.48
20607,-7.90,5.27,3.17,-0.07,-0.03,-0.04,-36.40,27.22,-1.48
20618,-7.74,5.49,2.34,0.21,-0.02,-0.08,-37.35,28.09,-1.64
20629,-7.74,5.49,2.34,0.21,-0.02,-0.08,-37.35,28.09,-1.64
20640,-7.42,5.69,2.46,0.06,-0.35,-0.21,-37.35,28.09,-1.64
20652,-7.70,5.28,3.12,0.07,-0.62,-0.32,-37.35,28.09,-1.64
20662,-7.70,5.28,3.12,0.07,-0.62,-0.32,-37.35,28.09,-1.64
20673,-7.95,4.98,2.55,0.23,-0.64,-0.33,-37.35,28.09,-1.64
20684,-7.95,4.98,2.55,0.23,-0.64,-0.33,-37.35,28.09,-1.64
20695,-8.09,5.36,3.62,0.23,-0.60,-0.28,-37.35,28.09,-1.64
20706,-8.09,5.36,3.62,0.23,-0.60,-0.28,-37.35,28.09,-1.64
20717,-8.12,5.38,3.50,0.30,-0.36,-0.22,-37.35,28.09,-1.64
20728,-8.12,5.38,3.50,0.30,-0.36,-0.22,-37.35,28.09,-1.64
20739,-8.15,5.48,3.15,0.29,-0.17,-0.22,-37.16,25.82,-0.82
20750,-8.15,5.48,3.15,0.29,-0.17,-0.22,-37.16,25.82,-0.82
20761,-8.22,4.60,3.32,0.19,-0.06,-0.25,-37.16,25.82,-0.82
20772,-8.64,5.21,3.52,-0.15,0.06,-0.26,-37.16,25.82,-0.82
20783,-8.64,5.21,3.52,-0.15,0.06,-0.26,-37.16,25.82,-0.82
20794,-7.55,3.67,3.73,-0.18,0.27,-0.27,-37.16,25.82,-0.82
20805,-7.55,3.67,3.73,-0.18,0.27,-0.27,-37.16,25.82,-0.82
20816,-8.01,4.23,2.11,0.04,0.31,-0.05,-37.16,25.82,-0.82
20827,-8.01,4.23,2.11,0.04,0.31,-0.05,-37.16,25.82,-0.82
20838,-9.68,2.92,1.22,0.09,0.18,0.20,-37.16,25.82,-0.82
20849,-9.68,2.92,1.22,0.09,0.18,0.20,-37.16,25.82,-0.82
20860,-7.70,5.25,2.38,-0.36,-0.32,0.78,-37.16,25.82,-0.82
20871,-7.70,5.25,2.38,-0.36,-0.32,0.78,-37.16,25.82,-0.82
20882,-6.92,4.88,4.77,-0.56,-0.36,0.88,-37.54,25.47,1.15
20893,-6.05,5.36,5.94,-0.99,0.07,0.94,-37.54,25.47,1.15
20904,-6.05,5.36,5.94,-0.99,0.07,0.94,-37.54,25.47,1.15
20915,-6.32,6.59,5.69,-1.25,0.63,0.89,-37.54,25.47,1.15
20926,-6.32,6.59,5.69,-1.25,0.63,0.89,-37.54,25.47,1.15
20937,-7.53,9.27,2.17,-0.91,0.99,0.51,-37.54,25.47,1.15
20948,-7.53,9.27,2.17,-0.91,0.99,0.51,-37.54,25.47,1.15
20959,-7.43,5.31,3.19,-0.57,0.87,-0.24,-37.54,25.47,1.15
20970,-7.43,5.31,3.19,-0.57,0.87,-0.24,-37.54,25.47,1.15
20981,-9.44,4.03,1.95,-0.34,0.74,-0.46,-37.54,25.47,1.15
20992,-8.07,4.70,1.57,-0.25,0.26,-0.27,-37.16,27.91,-0.49
21003,-8.07,4.70,1.57,-0.25,0.26,-0.27,-37.16,27.91,-0.49
21015,-7.79,5.12,1.53,0.15,-0.19,-0.24,-37.16,27.91,-0.49
21025,-7.79,5.12,1.53,0.15,-0.19,-0.24,-37.16,27.91,-0.49
21036,-8.41,4.80,2.79,0.16,-0.65,-0.32,-37.16,27.91,-0.49
21047,-8.41,4.80,2.79,0.16,-0.65,-0.32,-37.16,27.91,-0.49
21058,-11.68,2.46,2.72,0.27,-0.83,-0.12,-37.16,27.91,-0.49
21069,-11.68,2.46,2.72,0.27,-0.83,-0.12,-37.16,27.91,-0.49
21080,-12.02,2.64,2.89,0.07,-1.21,0.72,-37.16,27.91,-0.49
21091,-12.02,2.64,2.89,0.07,-1.21,0.72,-37.16,27.91,-0.49
21102,-9.95,3.77,5.24,-0.39,-1.37,1.40,-37.16,27.91,-0.49
21113,-6.88,5.56,7.52,-1.14,-0.59,1.40,-32.43,30.88,5.26
21124,-6.88,5.56,7.52,-1.14,-0.59,1.40,-32.43,30.88,5.26
21135,-1.96,5.71,4.09,-1.10,0.81,0.80,-32.43,30.88,5.26
21146,-1.96,5.71,4.09,-1.10,0.81,0.80,-32.43,30.88,5.26
21157,-2.43,8.72,3.75,-0.52,0.69,0.37,-32.43,30.88,5.26
21168,-2.43,8.72,3.75,-0.52,0.69,0.37,-32.43,30.88,5.26
21179,-0.30,8.71,5.70,0.16,0.05,-0.26,-32.43,30.88,5.26
21190,-0.30,8.71,5.70,0.16,0.05,-0.26,-32.43,30.88,5.26
21201,-3.61,6.94,4.94,1.37,0.07,-0.92,-32.43,30.88,5.26
21212,-10.65,5.48,1.62,2.33,0.44,-1.02,-32.43,30.88,5.26
21223,-10.65,5.48,1.62,2.33,0.44,-1.02,-32.43,30.88,5.26
21234,-10.91,5.51,-0.26,1.73,0.44,-0.58,-34.89,29.31,-1.80
21245,-10.91,5.51,-0.26,1.73,0.44,-0.58,-34.89,29.31,-1.80
21256,-7.88,5.06,3.60,0.20,-0.17,-0.25,-34.89,29.31,-1.80
21267,-7.88,5.06,3.60,0.20,-0.17,-0.25,-34.89,29.31,-1.80
21278,-7.89,4.47,4.65,0.35,-0.07,-0.22,-34.89,29.31,-1.80
21289,-7.89,4.47,4.65,0.35,-0.07,-0.22,-34.89,29.31,-1.80
21300,-8.31,4.55,4.64,0.33,0.12,-0.32,-34.89,29.31,-1.80
21311,-8.31,4.55,4.64,0.33,0.12,-0.32,-34.89,29.31,-1.80
21322,-8.50,4.50,3.84,0.24,0.20,-0.33,-34.89,29.31,-1.80
21333,-8.59,4.60,2.99,0.22,0.26,-0.22,-34.89,29.31,-1.80
21344,-8.59,4.60,2.99,0.22,0.26,-0.22,-34.89,29.31,-1.80
21355,-8.32,4.86,2.25,0.01,0.21,-0.04,-34.89,29.31,-1.80
21366,-8.32,4.86,2.25,0.01,0.21,-0.04,-34.89,29.31,-1.80
21377,-7.38,5.97,3.37,-0.21,0.09,0.09,-37.54,27.56,-0.82
21388,-7.38,5.97,3.37,-0.21,0.09,0.09,-37.54,27.56,-0.82
21400,-7.42,5.90,3.23,0.08,0.09,0.05,-37.54,27.56,-0.82
21410,-7.42,5.90,3.23,0.08,0.09,0.05,-37.54,27.56,-0.82
21421,-7.30,5.96,3.38,0.28,0.09,-0.04,-37.54,27.56,-0.82
21432,-7.87,5.37,2.52,0.47,0.16,-0.17,-37.54,27.56,-0.82
21443,-7.87,5.37,2.52,0.47,0.16,-0.17,-37.54,27.56,-0.82
21454,-7.92,5.53,3.02,0.35,0.16,-0.24,-37.54,27.56,-0.82
21465,-7.92,5.53,3.02,0.35,0.16,-0.24,-37.54,27.56,-0.82
21476,-8.58,4.62,2.55,0.23,0.18,-0.29,-37.54,27.56,-0.82
21487,-8.58,4.62,2.55,0.23,0.18,-0.29,-37.54,27.56,-0.82
21498,-8.14,5.08,2.08,0.26,0.08,-0.16,-35.65,27.91,-1.48
21509,-8.14,5.08,2.08,0.26,0.08,-0.16,-35.65,27.91,-1.48
21520,-8.21,4.83,2.52,0.09,-0.06,-0.11,-35.65,27.91,-1.48
21531,-8.21,4.83,2.52,0.09,-0.06,-0.11,-35.65,27.91,-1.48
21542,-8.34,4.98,2.26,-0.06,-0.10,-0.03,-35.65,27.91,-1.48
21553,-8.10,4.86,2.08,-0.55,-0.16,0.01,-35.65,27.91,-1.48
21564,-8.10,4.86,2.08,-0.55,-0.16,0.01,-35.65,27.91,-1.48
21575,-7.51,5.51,4.71,-0.76,-0.15,0.07,-35.65,27.91,-1.48
21586,-7.51,5.51,4.71,-0.76,-0.15,0.07,-35.65,27.91,-1.48
21597,-7.33,5.93,4.36,-0.45,0.11,0.09,-35.65,27.91,-1.48
21608,-7.33,5.93,4.36,-0.45,0.11,0.09,-35.65,27.91,-1.48
21619,-7.61,5.38,3.71,-0.01,0.26,0.04,-37.54,27.22,-1.15
21630,-7.61,5.38,3.71,-0.01,0.26,0.04,-37.54,27.22,-1.15
21641,-7.82,5.41,2.84,0.43,0.29,-0.00,-37.54,27.22,-1.15
21652,-7.82,5.41,2.84,0.43,0.29,-0.00,-37.54,27.22,-1.15
21668,-7.89,5.38,2.00,0.61,0.18,-0.07,-37.54,27.22,-1.15
21674,-8.10,5.11,1.28,0.55,-0.01,-0.11,-37.54,27.22,-1.15
21685,-8.10,5.11,1.28,0.55,-0.01,-0.11,-37.54,27.22,-1.15
21696,-8.38,5.16,2.36,0.20,-0.22,-0.11,-37.54,27.22,-1.15
21707,-8.38,5.16,2.36,0.20,-0.22,-0.11,-37.54,27.22,-1.15
21718,-8.30,4.87,2.10,-0.33,-0.32,-0.11,-37.54,27.22,-1.15
21729,-8.30,4.87,2.10,-0.33,-0.32,-0.11,-37.54,27.22,-1.15
21740,-8.62,4.90,2.13,-0.93,-0.40,-0.07,-37.54,27.22,-1.15
21751,-8.62,4.90,2.13,-0.93,-0.40,-0.07,-37.54,27.22,-1.15
21762,-8.50,6.36,3.47,-0.80,-0.26,-0.04,-36.21,28.09,-2.30
21773,-7.65,4.22,4.50,-0.53,-0.14,-0.11,-36.21,28.09,-2.30
21784,-7.65,4.22,4.50,-0.53,-0.14,-0.11,-36.21,28.09,-2.30
21795,-7.40,4.47,4.87,-0.32,0.06,0.12,-36.21,28.09,-2.30
21806,-7.40,4.47,4.87,-0.32,0.06,0.12,-36.21,28.09,-2.30
21817,-7.48,5.46,3.47,-0.18,0.36,0.25,-36.21,28.09,-2.30
21828,-7.48,5.46,3.47,-0.18,0.36,0.25,-36.21,28.09,-2.30
21839,-7.24,5.78,3.79,-0.15,0.40,0.14,-36.21,28.09,-2.30
21850,-7.24,5.78,3.79,-0.15,0.40,0.14,-36.21,28.09,-2.30
21861,-8.09,4.88,3.09,-0.03,0.42,0.02,-36.21,28.09,-2.30
21872,-8.09,4.88,3.09,-0.03,0.42,0.02,-36.21,28.09,-2.30
21883,-7.79,5.57,2.26,-0.06,0.32,0.12,-36.59,29.13,-0.65
21894,-7.90,4.69,3.01,0.11,0.14,0.00,-36.59,29.13,-0.65
21905,-7.90,4.69,3.01,0.11,0.14,0.00,-36.59,29.13,-0.65
21916,-7.81,5.42,2.35,0.50,0.04,-0.03,-36.59,29.13,-0.65
21927,-7.81,5.42,2.35,0.50,0.04,-0.03,-36.59,29.13,-0.65
21938,-8.37,5.02,2.88,0.42,-0.19,-0.09,-36.59,29.13,-0.65
21949,-8.37,5.02,2.88,0.42,-0.19,-0.09,-36.59,29.13,-0.65
21960,-8.17,4.93,1.97,0.22,-0.26,-0.10,-36.59,29.13,-0.65
21971,-8.17,4.93,1.97,0.22,-0.26,-0.10,-36.59,29.13,-0.65
21982,-8.45,4.93,2.59,-0.18,-0.38,-0.11,-36.59,29.13,-0.65
21993,-8.45,5.74,2.05,-0.60,-0.42,-0.12,-36.59,27.39,-1.31
22004,-8.45,5.74,2.05,-0.60,-0.42,-0.12,-36.59,27.39,-1.31
22015,-8.09,5.45,3.66,-0.70,-0.41,-0.29,-36.59,27.39,-1.31
22026,-8.09,5.45,3.66,-0.70,-0.41,-0.29,-36.59,27.39,-1.31
22037,-7.76,3.00,6.33,-0.57,-0.15,-0.27,-36.59,27.39,-1.31
22048,-7.76,3.00,6.33,-0.57,-0.15,-0.27,-36.59,27.39,-1.31
22059,-7.46,4.60,5.43,-0.29,0.36,0.15,-36.59,27.39,-1.31
22070,-7.46,4.60,5.43,-0.29,0.36,0.15,-36.59,27.39,-1.31
22081,-7.50,4.59,3.82,0.06,0.55,0.31,-36.59,27.39,-1.31
22092,-7.50,4.59,3.82,0.06,0.55,0.31,-36.59,27.39,-1.31
22103,-8.18,5.91,1.95,0.40,0.55,0.36,-36.59,27.39,-1.31
22114,-8.03,5.35,1.61,0.69,0.34,0.11,-36.59,27.39,-1.31
22125,-8.03,5.35,1.61,0.69,0.34,0.11,-36.59,27.39,-1.31
22136,-8.07,5.33,2.04,0.43,-0.02,-0.06,-35.46,27.04,-1.31
22147,-8.07,5.33,2.04,0.43,-0.02,-0.06,-35.46,27.04,-1.31
22158,-8.07,5.10,2.71,-0.06,-0.27,-0.11,-35.46,27.04,-1.31
22169,-8.07,5.10,2.71,-0.06,-0.27,-0.11,-35.46,27.04,-1.31
22180,-8.48,5.39,1.97,-0.41,-0.35,-0.12,-35.46,27.04,-1.31
22191,-8.48,5.39,1.97,-0.41,-0.35,-0.12,-35.46,27.04,-1.31
22202,-8.96,6.18,2.49,-0.48,-0.41,-0.26,-35.46,27.04,-1.31
22213,-7.98,2.97,4.50,-0.30,-0.34,-0.41,-35.46,27.04,-1.31
22224,-7.98,2.97,4.50,-0.30,-0.34,-0.41,-35.46,27.04,-1.31
22235,-7.26,4.07,5.38,-0.10,-0.04,0.04,-35.46,27.04,-1.31
22246,-7.26,4.07,5.38,-0.10,-0.04,0.04,-35.46,27.04,-1.31
22257,-6.93,5.61,3.80,-0.02,0.32,0.26,-37.16,27.22,0.82
22268,-6.93,5.61,3.80,-0.02,0.32,0.26,-37.16,27.22,0.82
22279,-7.45,5.22,3.77,0.05,0.38,0.16,-37.16,27.22,0.82
22290,-7.45,5.22,3.77,0.05,0.38,0.16,-37.16,27.22,0.82
22301,-8.23,4.81,2.47,0.12,0.41,0.15,-37.16,27.22,0.82
22312,-8.23,4.81,2.47,0.12,0.41,0.15,-37.16,27.22,0.82
22323,-8.00,5.68,2.59,0.05,0.23,0.17,-37.16,27.22,0.82
22334,-8.11,4.41,3.23,0.14,0.05,0.04,-37.16,27.22,0.82
22345,-8.11,4.41,3.23,0.14,0.05,0.04,-37.16,27.22,0.82
22356,-8.21,5.54,1.60,0.25,-0.06,0.02,-37.16,27.22,0.82
22367,-8.21,5.54,1.60,0.25,-0.06,0.02,-37.16,27.22,0.82
22378,-8.31,5.44,2.42,-0.10,-0.31,-0.11,-36.59,28.44,-1.97
22389,-8.31,5.44,2.42,-0.10,-0.31,-0.11,-36.59,28.44,-1.97
22400,-8.52,5.94,2.31,-0.31,-0.40,-0.23,-36.59,28.44,-1.97
22411,-8.52,5.94,2.31,-0.31,-0.40,-0.23,-36.59,28.44,-1.97
22422,-8.05,4.78,3.60,-0.49,-0.43,-0.39,-36.59,28.44,-1.97
22433,-7.59,3.69,4.98,-0.45,-0.24,-0.29,-36.59,28.44,-1.97
22444,-7.59,3.69,4.98,-0.45,-0.24,-0.29,-36.59,28.44,-1.97
22455,-7.66,4.01,4.74,-0.26,0.13,0.01,-36.59,28.44,-1.97
22466,-7.66,4.01,4.74,-0.26,0.13,0.01,-36.59,28.44,-1.97
22477,-7.62,4.20,4.56,-0.03,0.38,0.23,-36.59,28.44,-1.97
22488,-7.62,4.20,4.56,-0.03,0.38,0.23,-36.59,28.44,-1.97
22499,-7.94,4.75,3.32,0.24,0.46,0.34,-36.59,28.44,-1.97
22510,-7.94,4.75,3.32,0.24,0.46,0.34,-36.59,28.44,-1.97
22521,-8.02,5.19,2.37,0.38,0.36,0.29,-36.59,27.39,0.99
22532,-8.02,5.19,2.37,0.38,0.36,0.29,-36.59,27.39,0.99
22543,-8.24,6.90,1.01,0.31,0.11,0.15,-36.59,27.39,0.99
22554,-8.09,6.06,1.98,0.06,-0.25,-0.13,-36.59,27.39,0.99
22565,-8.09,6.06,1.98,0.06,-0.25,-0.13,-36.59,27.39,0.99
22576,-8.83,5.63,2.85,-0.13,-0.45,-0.36,-36.59,27.39,0.99
22587,-8.83,5.63,2.85,-0.13,-0.45,-0.36,-36.59,27.39,0.99
22598,-9.00,3.77,4.98,-0.38,-0.41,-0.49,-36.59,27.39,0.99
22609,-9.00,3.77,4.98,-0.38,-0.41,-0.49,-36.59,27.39,0.99
22620,-12.40,0.60,5.12,-0.30,-0.01,0.01,-36.59,27.39,0.99
22631,-12.40,0.60,5.12,-0.30,-0.01,0.01,-36.59,27.39,0.99
22642,-10.45,3.62,4.19,-0.70,0.01,1.13,-36.59,26.69,0.99
22653,-10.45,3.62,4.19,-0.70,0.01,1.13,-36.59,26.69,0.99
22664,-6.63,5.61,3.38,-0.72,-0.27,1.38,-36.59,26.69,0.99
22680,-7.71,10.54,8.22,-0.60,-0.45,0.87,-36.59,26.69,0.99
22686,-7.71,10.54,8.22,-0.60,-0.45,0.87,-36.59,26.69,0.99
22697,-5.10,2.14,3.33,0.33,1.18,-0.18,-36.59,26.69,0.99
22708,-5.10,2.14,3.33,0.33,1.18,-0.18,-36.59,26.69,0.99
22719,-1.50,4.48,-5.35,0.77,1.40,0.10,-36.59,26.69,0.99
