time,ax,ay,az,gx,gy,gz,mx,my,mz,pressure
1.00,-0.24,6.24,-7.97,-1.21,-1.30,0.79,-6.39,24.57,-40.19,-1.00
13.00,-0.24,6.24,-7.97,-1.21,-1.30,0.79,-6.39,24.57,-40.19,-1.00
25.00,-0.24,6.22,-7.97,-1.21,-1.30,0.79,-6.39,24.57,-40.19,-1.00
37.00,-0.24,6.22,-7.97,-1.21,-1.30,0.79,-6.39,24.57,-40.19,-1.00
99.00,-0.20,6.25,-7.98,-1.21,-1.30,0.78,-5.26,22.60,-39.07,-1.00
111.00,-0.21,6.24,-7.95,-1.21,-1.30,0.78,-5.26,22.60,-39.07,-1.00
123.00,-0.24,6.24,-8.00,-1.21,-1.30,0.78,-5.26,22.60,-39.07,-1.00
137.00,-0.24,6.24,-8.00,-1.21,-1.30,0.78,-5.26,22.60,-39.07,-1.00
149.00,-0.26,6.23,-7.97,-1.21,-1.29,0.79,-5.26,22.60,-39.07,-1.00
161.00,-0.25,6.24,-8.01,-1.21,-1.30,0.79,-5.03,24.27,-39.55,-1.00
173.00,-0.25,6.24,-8.01,-1.21,-1.30,0.79,-5.03,24.27,-39.55,-1.00
187.00,-0.22,6.23,-7.98,-1.21,-1.29,0.79,-5.03,24.27,-39.55,-1.00
199.00,-0.22,6.23,-7.98,-1.21,-1.29,0.79,-5.03,24.27,-39.55,-1.00
211.00,-0.21,6.26,-7.98,-1.21,-1.30,0.79,-5.03,24.27,-39.55,-1.00
223.00,-0.21,6.26,-7.97,-1.21,-1.29,0.78,-5.03,24.27,-39.55,-1.00
238.00,-0.21,6.26,-7.97,-1.21,-1.29,0.78,-5.03,24.27,-39.55,-1.00
249.00,-0.22,6.23,-7.95,-1.21,-1.29,0.78,-5.03,24.27,-39.55,-1.00
262.00,-0.25,6.25,-8.00,-1.21,-1.29,0.78,-5.03,24.27,-39.55,-1.00
274.00,-0.25,6.25,-8.00,-1.21,-1.29,0.78,-5.03,24.27,-39.55,-1.00
288.00,-0.26,6.25,-7.98,-1.21,-1.30,0.79,-6.17,24.42,-36.51,-1.00
300.00,-0.23,6.23,-7.98,-1.21,-1.29,0.79,-6.17,24.42,-36.51,-1.00
312.00,-0.23,6.23,-7.98,-1.21,-1.29,0.79,-6.17,24.42,-36.51,-1.00
324.00,-0.21,6.26,-7.99,-1.21,-1.29,0.79,-6.17,24.42,-36.51,-1.00
338.00,-0.21,6.26,-7.99,-1.21,-1.29,0.79,-6.17,24.42,-36.51,-1.00
350.00,-0.22,6.23,-7.96,-1.21,-1.29,0.79,-6.17,24.42,-36.51,-1.00
362.00,-0.22,6.23,-7.98,-1.21,-1.29,0.78,-6.17,24.42,-36.51,-1.00
376.00,-0.22,6.23,-7.98,-1.21,-1.29,0.78,-6.17,24.42,-36.51,-1.00
388.00,-0.23,6.24,-7.99,-1.21,-1.29,0.78,-6.17,24.42,-36.51,-1.00
400.00,-0.24,6.23,-7.99,-1.21,-1.29,0.79,-6.17,24.42,-36.51,-1.00
412.00,-0.24,6.23,-7.99,-1.21,-1.29,0.79,-4.81,24.42,-39.71,-1.00
426.00,-0.23,6.24,-7.99,-1.21,-1.29,0.79,-4.81,24.42,-39.71,-1.00
438.00,-0.23,6.24,-7.99,-1.21,-1.29,0.79,-4.81,24.42,-39.71,-1.00
450.00,-0.21,6.25,-7.96,-1.21,-1.29,0.79,-4.81,24.42,-39.71,-1.00
462.00,-0.20,6.25,-7.98,-1.21,-1.29,0.79,-4.81,24.42,-39.71,-1.00
476.00,-0.20,6.25,-7.98,-1.21,-1.29,0.79,-4.81,24.42,-39.71,-1.00
488.00,-0.23,6.24,-7.99,-1.21,-1.29,0.78,-4.81,24.42,-39.71,-1.00
500.00,-0.23,6.24,-7.99,-1.21,-1.29,0.78,-4.81,24.42,-39.71,-1.00
512.00,-0.23,6.23,-7.97,-1.21,-1.29,0.78,-4.81,24.42,-39.71,-1.00
527.00,-0.23,6.24,-7.98,-1.21,-1.30,0.79,-4.81,24.42,-39.71,-1.00
538.00,-0.23,6.24,-7.98,-1.21,-1.30,0.79,-4.81,24.42,-39.71,-1.00
550.00,-0.23,6.24,-7.96,-1.21,-1.30,0.79,-5.26,23.81,-37.15,-1.00
562.00,-0.23,6.24,-7.98,-1.21,-1.29,0.79,-5.26,23.81,-37.15,-1.00
576.00,-0.23,6.24,-7.98,-1.21,-1.29,0.79,-5.26,23.81,-37.15,-1.00
588.00,-0.20,6.26,-7.98,-1.21,-1.29,0.79,-5.26,23.81,-37.15,-1.00
600.00,-0.20,6.26,-7.98,-1.21,-1.29,0.79,-5.26,23.81,-37.15,-1.00
612.00,-0.22,6.24,-7.99,-1.21,-1.29,0.79,-5.26,23.81,-37.15,-1.00
626.00,-0.22,6.24,-7.97,-1.21,-1.30,0.79,-5.26,23.81,-37.15,-1.00
638.00,-0.22,6.24,-7.97,-1.21,-1.30,0.79,-5.26,23.81,-37.15,-1.00
650.00,-0.24,6.25,-7.95,-1.21,-1.30,0.78,-5.26,23.81,-37.15,-1.00
664.00,-0.24,6.25,-7.99,-1.21,-1.30,0.79,-7.30,24.87,-40.19,-1.00
676.00,-0.24,6.25,-7.99,-1.21,-1.30,0.79,-7.30,24.87,-40.19,-1.00
688.00,-0.21,6.23,-7.97,-1.21,-1.29,0.79,-7.30,24.87,-40.19,-1.00
700.00,-0.21,6.23,-7.97,-1.21,-1.29,0.79,-7.30,24.87,-40.19,-1.00
714.00,-0.21,6.25,-7.99,-1.21,-1.29,0.79,-7.30,24.87,-40.19,-1.00
726.00,-0.23,6.24,-7.97,-1.21,-1.29,0.79,-7.30,24.87,-40.19,-1.00
738.00,-0.23,6.24,-7.97,-1.21,-1.29,0.79,-7.30,24.87,-40.19,-1.00
750.00,-0.22,6.24,-7.99,-1.21,-1.29,0.79,-7.30,24.87,-40.19,-1.00
765.00,-0.23,6.25,-7.98,-1.21,-1.29,0.79,-7.30,24.87,-40.19,-1.00
777.00,-0.23,6.25,-7.98,-1.21,-1.29,0.79,-7.30,24.87,-40.19,-1.00
789.00,-0.22,6.24,-7.99,-1.21,-1.29,0.78,-4.58,25.18,-38.59,-1.00
801.00,-0.23,6.25,-7.99,-1.21,-1.30,0.79,-4.58,25.18,-38.59,-1.00
815.00,-0.23,6.25,-7.99,-1.21,-1.30,0.79,-4.58,25.18,-38.59,-1.00
827.00,-0.21,6.23,-7.97,-1.21,-1.29,0.78,-4.58,25.18,-38.59,-1.00
839.00,-0.21,6.23,-7.97,-1.21,-1.29,0.78,-4.58,25.18,-38.59,-1.00
851.00,-0.21,6.23,-7.97,-1.21,-1.29,0.79,-4.58,25.18,-38.59,-1.00
865.00,-0.22,6.24,-7.99,-1.21,-1.29,0.78,-4.58,25.18,-38.59,-1.00
877.00,-0.22,6.24,-7.99,-1.21,-1.29,0.78,-4.58,25.18,-38.59,-1.00
889.00,-0.24,6.23,-7.96,-1.21,-1.29,0.78,-4.58,25.18,-38.59,-1.00
903.00,-0.24,6.25,-7.99,-1.21,-1.29,0.78,-5.49,24.27,-38.91,-1.00
992.00,-0.23,6.25,-7.99,-1.21,-1.29,0.79,-5.49,24.27,-38.91,-1.00
1079.00,-0.23,6.24,-7.97,-1.21,-1.29,0.78,-5.26,24.12,-38.43,-1.00
1169.00,-0.22,6.24,-8.01,-1.21,-1.29,0.78,-7.07,25.03,-39.07,-1.00
1182.00,-0.22,6.25,-7.97,-1.21,-1.29,0.79,-7.07,25.03,-39.07,-1.00
1194.00,-0.22,6.25,-7.97,-1.21,-1.29,0.79,-7.07,25.03,-39.07,-1.00
1206.00,-0.22,6.25,-7.97,-1.21,-1.29,0.79,-7.07,25.03,-39.07,-1.00
1218.00,-0.22,6.25,-7.97,-1.21,-1.29,0.79,-7.07,25.03,-39.07,-1.00
1232.00,-0.22,6.26,-7.98,-1.21,-1.29,0.79,-7.07,25.03,-39.07,-1.00
1244.00,-0.22,6.24,-7.97,-1.21,-1.30,0.78,-7.07,25.03,-39.07,-1.00
1256.00,-0.22,6.24,-7.97,-1.21,-1.30,0.78,-7.07,25.03,-39.07,-1.00
1268.00,-0.22,6.26,-8.00,-1.21,-1.29,0.78,-7.07,25.03,-39.07,-1.00
1282.00,-0.23,6.25,-8.00,-1.21,-1.29,0.79,-6.85,25.48,-38.27,-1.00
1294.00,-0.23,6.25,-8.00,-1.21,-1.29,0.79,-6.85,25.48,-38.27,-1.00
1306.00,-0.23,6.25,-8.02,-1.21,-1.29,0.79,-6.85,25.48,-38.27,-1.00
1318.00,-0.23,6.25,-8.02,-1.21,-1.29,0.79,-6.85,25.48,-38.27,-1.00
1332.00,-0.23,6.24,-7.99,-1.21,-1.29,0.79,-6.85,25.48,-38.27,-1.00
1344.00,-0.21,6.24,-7.99,-1.21,-1.29,0.79,-6.85,25.48,-38.27,-1.00
1356.00,-0.21,6.24,-7.99,-1.21,-1.29,0.79,-6.85,25.48,-38.27,-1.00
1370.00,-0.23,6.25,-7.97,-1.21,-1.30,0.78,-6.85,25.48,-38.27,-1.00
1382.00,-0.23,6.27,-7.97,-1.21,-1.29,0.79,-6.85,25.48,-38.27,-1.00
1394.00,-0.23,6.27,-7.97,-1.21,-1.29,0.79,-6.85,25.48,-38.27,-1.00
1407.00,-0.22,6.25,-7.98,-1.21,-1.29,0.79,-6.85,24.57,-38.91,-1.00
1420.00,-0.22,6.25,-7.98,-1.21,-1.29,0.79,-6.85,24.57,-38.91,-1.00
1432.00,-0.23,6.25,-8.00,-1.21,-1.29,0.79,-6.85,24.57,-38.91,-1.00
1444.00,-0.24,6.24,-7.97,-1.21,-1.30,0.78,-6.85,24.57,-38.91,-1.00
1456.00,-0.24,6.24,-7.97,-1.21,-1.30,0.78,-6.85,24.57,-38.91,-1.00
1470.00,-0.23,6.25,-7.99,-1.21,-1.30,0.78,-6.85,24.57,-38.91,-1.00
1482.00,-0.22,6.26,-7.96,-1.21,-1.29,0.79,-6.85,24.57,-38.91,-1.00
1494.00,-0.22,6.26,-7.96,-1.21,-1.29,0.79,-6.85,24.57,-38.91,-1.00
1506.00,-0.23,6.24,-7.97,-1.21,-1.30,0.79,-6.85,24.57,-38.91,-1.00
1520.00,-0.23,6.24,-7.97,-1.21,-1.30,0.79,-6.85,24.57,-38.91,-1.00
1532.00,-0.22,6.25,-7.97,-1.21,-1.29,0.79,-6.85,24.57,-38.91,-1.00
1544.00,-0.22,6.23,-7.97,-1.21,-1.30,0.79,-5.49,24.57,-39.55,-1.00
1559.00,-0.22,6.23,-7.97,-1.21,-1.30,0.79,-5.49,24.57,-39.55,-1.00
1571.00,-0.22,6.25,-7.98,-1.21,-1.29,0.79,-5.49,24.57,-39.55,-1.00
1583.00,-0.22,6.25,-7.96,-1.21,-1.30,0.79,-5.49,24.57,-39.55,-1.00
1595.00,-0.22,6.25,-7.96,-1.21,-1.30,0.79,-5.49,24.57,-39.55,-1.00
1609.00,-0.23,6.24,-7.96,-1.21,-1.29,0.79,-5.49,24.57,-39.55,-1.00
1621.00,-0.23,6.24,-7.96,-1.21,-1.29,0.79,-5.49,24.57,-39.55,-1.00
1633.00,-0.22,6.24,-7.98,-1.21,-1.29,0.79,-5.49,24.57,-39.55,-1.00
1645.00,-0.23,6.24,-7.97,-1.21,-1.29,0.79,-5.49,24.57,-39.55,-1.00
1659.00,-0.23,6.24,-7.97,-1.21,-1.29,0.79,-5.49,24.57,-39.55,-1.00
1671.00,-0.23,6.25,-8.00,-1.21,-1.29,0.78,-5.03,23.96,-37.63,-1.00
1683.00,-0.23,6.25,-7.98,-1.21,-1.29,0.79,-5.03,23.96,-37.63,-1.00
1695.00,-0.23,6.25,-7.98,-1.21,-1.29,0.79,-5.03,23.96,-37.63,-1.00
1709.00,-0.23,6.24,-7.98,-1.21,-1.30,0.79,-5.03,23.96,-37.63,-1.00
1721.00,-0.23,6.24,-7.98,-1.21,-1.30,0.79,-5.03,23.96,-37.63,-1.00
1733.00,-0.23,6.24,-7.99,-1.21,-1.29,0.79,-5.03,23.96,-37.63,-1.00
1748.00,-0.22,6.24,-7.98,-1.21,-1.29,0.79,-5.03,23.96,-37.63,-1.00
1759.00,-0.22,6.24,-7.98,-1.21,-1.29,0.79,-5.03,23.96,-37.63,-1.00
1771.00,-0.23,6.24,-7.98,-1.21,-1.29,0.79,-5.03,23.96,-37.63,-1.00
1783.00,-0.24,6.24,-7.98,-1.21,-1.29,0.79,-7.53,24.12,-39.71,-1.00
1797.00,-0.24,6.24,-7.98,-1.21,-1.29,0.79,-7.53,24.12,-39.71,-1.00
1809.00,-0.22,6.23,-7.98,-1.21,-1.29,0.78,-7.53,24.12,-39.71,-1.00
1821.00,-0.22,6.23,-7.98,-1.21,-1.29,0.78,-7.53,24.12,-39.71,-1.00
1833.00,-0.24,6.23,-8.00,-1.21,-1.30,0.79,-7.53,24.12,-39.71,-1.00
1847.00,-0.23,6.24,-7.98,-1.21,-1.29,0.79,-7.53,24.12,-39.71,-1.00
1859.00,-0.23,6.24,-7.98,-1.21,-1.29,0.79,-7.53,24.12,-39.71,-1.00
1871.00,-0.23,6.24,-7.95,-1.21,-1.29,0.79,-7.53,24.12,-39.71,-1.00
1883.00,-0.23,6.24,-7.97,-1.21,-1.30,0.78,-7.53,24.12,-39.71,-1.00
1898.00,-0.23,6.24,-7.97,-1.21,-1.30,0.78,-7.53,24.12,-39.71,-1.00
1909.00,-0.25,6.24,-7.95,-1.21,-1.29,0.79,-7.53,24.12,-39.71,-1.00
1921.00,-0.25,6.24,-7.95,-1.21,-1.29,0.79,-7.53,24.12,-39.71,-1.00
1935.00,-0.23,6.26,-8.00,-1.21,-1.29,0.79,-6.39,22.75,-38.91,-1.00
1947.00,-0.23,6.25,-7.99,-1.21,-1.29,0.79,-6.39,22.75,-38.91,-1.00
1959.00,-0.23,6.25,-7.99,-1.21,-1.29,0.79,-6.39,22.75,-38.91,-1.00
1971.00,-0.22,6.25,-7.97,-1.21,-1.29,0.79,-6.39,22.75,-38.91,-1.00
1985.00,-0.22,6.25,-7.99,-1.21,-1.29,0.79,-6.39,22.75,-38.91,-1.00
1997.00,-0.22,6.25,-7.99,-1.21,-1.29,0.79,-6.39,22.75,-38.91,-1.00
2009.00,-0.22,6.24,-7.97,-1.21,-1.29,0.79,-6.39,22.75,-38.91,-1.00
2021.00,-0.22,6.24,-7.97,-1.21,-1.29,0.79,-6.39,22.75,-38.91,-1.00
2035.00,-0.23,6.24,-7.99,-1.21,-1.30,0.78,-6.39,22.75,-38.91,-1.00
2048.00,-0.23,6.24,-8.00,-1.21,-1.29,0.79,-5.49,23.96,-38.59,-1.00
2060.00,-0.23,6.24,-8.00,-1.21,-1.29,0.79,-5.49,23.96,-38.59,-1.00
2072.00,-0.23,6.24,-7.99,-1.21,-1.29,0.78,-5.49,23.96,-38.59,-1.00
2086.00,-0.22,6.23,-7.97,-1.21,-1.29,0.79,-5.49,23.96,-38.59,-1.00
2098.00,-0.22,6.23,-7.97,-1.21,-1.29,0.79,-5.49,23.96,-38.59,-1.00
2110.00,-0.22,6.23,-7.98,-1.21,-1.30,0.79,-5.49,23.96,-38.59,-1.00
2122.00,-0.23,6.24,-7.99,-1.21,-1.30,0.79,-5.49,23.96,-38.59,-1.00
2136.00,-0.23,6.24,-7.99,-1.21,-1.30,0.79,-5.49,23.96,-38.59,-1.00
2148.00,-0.22,6.24,-7.96,-1.21,-1.29,0.79,-5.49,23.96,-38.59,-1.00
2160.00,-0.22,6.24,-7.96,-1.21,-1.29,0.79,-5.49,23.96,-38.59,-1.00
2175.00,-0.23,6.24,-7.99,-1.21,-1.29,0.79,-7.30,24.57,-38.91,-1.00
2186.00,-0.21,6.25,-7.99,-1.21,-1.30,0.79,-7.30,24.57,-38.91,-1.00
2198.00,-0.21,6.25,-7.99,-1.21,-1.30,0.79,-7.30,24.57,-38.91,-1.00
2210.00,-0.23,6.24,-7.97,-1.21,-1.30,0.79,-7.30,24.57,-38.91,-1.00
2224.00,-0.23,6.25,-7.98,-1.21,-1.29,0.78,-7.30,24.57,-38.91,-1.00
2236.00,-0.23,6.25,-7.98,-1.21,-1.29,0.78,-7.30,24.57,-38.91,-1.00
2248.00,-0.23,6.24,-7.97,-1.21,-1.30,0.79,-7.30,24.57,-38.91,-1.00
2260.00,-0.23,6.24,-7.97,-1.21,-1.30,0.79,-7.30,24.57,-38.91,-1.00
2274.00,-0.22,6.25,-7.98,-1.21,-1.29,0.78,-7.30,24.57,-38.91,-1.00
2286.00,-0.21,6.26,-7.97,-1.21,-1.29,0.79,-5.49,23.05,-36.99,-1.00
2298.00,-0.21,6.26,-7.97,-1.21,-1.29,0.79,-5.49,23.05,-36.99,-1.00
2310.00,-0.23,6.25,-7.98,-1.21,-1.29,0.78,-5.49,23.05,-36.99,-1.00
2325.00,-0.22,6.24,-7.98,-1.21,-1.29,0.79,-5.49,23.05,-36.99,-1.00
2336.00,-0.22,6.24,-7.98,-1.21,-1.29,0.79,-5.49,23.05,-36.99,-1.00
2348.00,-0.22,6.24,-7.96,-1.21,-1.30,0.79,-5.49,23.05,-36.99,-1.00
2363.00,-0.22,6.25,-7.98,-1.21,-1.29,0.78,-5.49,23.05,-36.99,-1.00
2374.00,-0.22,6.25,-7.98,-1.21,-1.29,0.78,-5.49,23.05,-36.99,-1.00
2386.00,-0.23,6.24,-7.97,-1.21,-1.29,0.79,-5.49,23.05,-36.99,-1.00
2398.00,-0.23,6.24,-7.97,-1.21,-1.29,0.79,-5.49,23.05,-36.99,-1.00
2412.00,-0.24,6.23,-7.98,-1.21,-1.29,0.79,-5.49,23.05,-36.99,-1.00
2424.00,-0.22,6.24,-7.96,-1.21,-1.29,0.79,-6.85,22.75,-37.95,-1.00
2436.00,-0.22,6.24,-7.96,-1.21,-1.29,0.79,-6.85,22.75,-37.95,-1.00
2448.00,-0.22,6.25,-7.98,-1.21,-1.30,0.79,-6.85,22.75,-37.95,-1.00
2462.00,-0.23,6.25,-7.99,-1.21,-1.30,0.79,-6.85,22.75,-37.95,-1.00
2474.00,-0.23,6.25,-7.99,-1.21,-1.30,0.79,-6.85,22.75,-37.95,-1.00
2486.00,-0.21,6.25,-8.00,-1.21,-1.30,0.79,-6.85,22.75,-37.95,-1.00
2498.00,-0.21,6.25,-8.00,-1.21,-1.30,0.79,-6.85,22.75,-37.95,-1.00
2513.00,-0.23,6.25,-7.99,-1.21,-1.29,0.78,-6.85,22.75,-37.95,-1.00
2524.00,-0.23,6.24,-7.98,-1.21,-1.29,0.79,-6.85,22.75,-37.95,-1.00
2536.00,-0.23,6.24,-7.98,-1.21,-1.29,0.79,-6.85,22.75,-37.95,-1.00
2550.00,-0.22,6.24,-8.01,-1.21,-1.30,0.79,-7.07,23.81,-38.75,-1.00
2562.00,-0.22,6.24,-8.01,-1.21,-1.30,0.79,-7.07,23.81,-38.75,-1.00
2574.00,-0.23,6.24,-7.98,-1.21,-1.30,0.79,-7.07,23.81,-38.75,-1.00
2586.00,-0.23,6.25,-7.99,-1.21,-1.29,0.79,-7.07,23.81,-38.75,-1.00
2600.00,-0.23,6.25,-7.99,-1.21,-1.29,0.79,-7.07,23.81,-38.75,-1.00
2689.00,-0.22,6.25,-7.97,-1.21,-1.29,0.79,-6.62,23.51,-38.43,-1.00
2778.00,-0.24,6.26,-7.97,-1.21,-1.29,0.79,-6.62,23.51,-38.43,-1.00
2864.00,-0.23,6.26,-7.98,-1.21,-1.29,0.79,-5.94,23.66,-38.59,-1.00
2878.00,-0.23,6.26,-7.98,-1.21,-1.29,0.79,-5.94,23.66,-38.59,-1.00
2890.00,-0.22,6.25,-7.97,-1.21,-1.29,0.79,-5.94,23.66,-38.59,-1.00
2902.00,-0.22,6.25,-7.97,-1.21,-1.29,0.79,-5.94,23.66,-38.59,-1.00
2914.00,-0.21,6.24,-7.99,-1.21,-1.30,0.79,-5.94,23.66,-38.59,-1.00
2929.00,-0.23,6.24,-7.98,-1.21,-1.29,0.79,-5.49,23.36,-37.63,-1.00
2940.00,-0.23,6.24,-7.98,-1.21,-1.29,0.79,-5.49,23.36,-37.63,-1.00
2952.00,-0.21,6.26,-7.97,-1.21,-1.29,0.79,-5.49,23.36,-37.63,-1.00
2966.00,-0.22,6.23,-7.98,-1.21,-1.29,0.79,-5.49,23.36,-37.63,-1.00
2978.00,-0.22,6.23,-7.98,-1.21,-1.29,0.79,-5.49,23.36,-37.63,-1.00
2990.00,-0.23,6.24,-7.97,-1.21,-1.29,0.79,-5.49,23.36,-37.63,-1.00
3002.00,-0.23,6.24,-7.97,-1.21,-1.29,0.79,-5.49,23.36,-37.63,-1.00
3016.00,-0.21,6.22,-7.97,-1.21,-1.30,0.78,-5.49,23.36,-37.63,-1.00
3028.00,-0.22,6.26,-7.99,-1.21,-1.29,0.79,-5.49,23.36,-37.63,-1.00
3040.00,-0.22,6.26,-7.99,-1.21,-1.29,0.79,-5.49,23.36,-37.63,-1.00
3052.00,-0.23,6.26,-8.01,-1.21,-1.29,0.79,-6.17,24.12,-39.07,-1.00
3066.00,-0.23,6.25,-7.99,-1.21,-1.29,0.79,-6.17,24.12,-39.07,-1.00
3078.00,-0.23,6.25,-7.99,-1.21,-1.29,0.79,-6.17,24.12,-39.07,-1.00
3090.00,-0.23,6.26,-7.97,-1.21,-1.29,0.79,-6.17,24.12,-39.07,-1.00
3102.00,-0.23,6.26,-7.97,-1.21,-1.29,0.79,-6.17,24.12,-39.07,-1.00
3116.00,-0.23,6.25,-7.99,-1.21,-1.29,0.79,-6.17,24.12,-39.07,-1.00
3128.00,-0.23,6.24,-7.98,-1.21,-1.29,0.79,-6.17,24.12,-39.07,-1.00
3140.00,-0.23,6.24,-7.98,-1.21,-1.29,0.79,-6.17,24.12,-39.07,-1.00
3154.00,-0.21,6.25,-7.99,-1.21,-1.29,0.79,-6.17,24.12,-39.07,-1.00
3166.00,-0.22,6.24,-7.99,-1.21,-1.29,0.79,-6.85,23.96,-38.59,-1.00
3178.00,-0.22,6.24,-7.99,-1.21,-1.29,0.79,-6.85,23.96,-38.59,-1.00
3190.00,-0.21,6.24,-8.00,-1.21,-1.29,0.79,-6.85,23.96,-38.59,-1.00
3205.00,-0.23,6.24,-7.98,-1.21,-1.29,0.79,-6.85,23.96,-38.59,-1.00
3216.00,-0.23,6.24,-7.98,-1.21,-1.29,0.79,-6.85,23.96,-38.59,-1.00
3229.00,-0.24,6.23,-7.98,-1.21,-1.30,0.78,-6.85,23.96,-38.59,-1.00
3240.00,-0.24,6.23,-7.98,-1.21,-1.30,0.78,-6.85,23.96,-38.59,-1.00
3254.00,-0.22,6.24,-7.99,-1.21,-1.30,0.78,-6.85,23.96,-38.59,-1.00
3266.00,-0.22,6.23,-7.97,-1.21,-1.29,0.78,-6.85,23.96,-38.59,-1.00
3278.00,-0.22,6.23,-7.97,-1.21,-1.29,0.78,-6.85,23.96,-38.59,-1.00
3290.00,-0.89,6.16,-8.04,-1.22,-1.21,0.69,-6.85,24.27,-37.31,-1.00
3304.00,0.18,6.26,-7.98,-1.22,-0.99,0.39,-6.85,24.27,-37.31,-1.00
3316.00,0.18,6.26,-7.98,-1.22,-0.99,0.39,-6.85,24.27,-37.31,-1.00
3328.00,-0.48,6.20,-7.97,-1.21,-1.09,0.53,-6.85,24.27,-37.31,-1.00
3340.00,-0.48,6.20,-7.97,-1.21,-1.09,0.53,-6.85,24.27,-37.31,-1.00
3355.00,-0.01,6.31,-7.96,-1.21,-1.03,0.46,-6.85,24.27,-37.31,-1.00
3366.00,-0.03,6.28,-7.94,-1.21,-1.15,0.60,-6.85,24.27,-37.31,-1.00
3378.00,-0.03,6.28,-7.94,-1.21,-1.15,0.60,-6.85,24.27,-37.31,-1.00
3393.00,-0.19,6.25,-7.97,-1.21,-1.28,0.77,-6.85,24.27,-37.31,-1.00
3404.00,-0.21,6.26,-7.99,-1.21,-1.29,0.78,-6.85,24.27,-37.31,-1.00
3416.00,-0.21,6.26,-7.99,-1.21,-1.29,0.78,-6.85,24.27,-37.31,-1.00
3428.00,-0.22,6.23,-8.00,-1.21,-1.29,0.79,-7.30,23.66,-38.91,-1.00
3442.00,-0.22,6.23,-8.00,-1.21,-1.29,0.79,-7.30,23.66,-38.91,-1.00
3454.00,-0.23,6.26,-7.99,-1.21,-1.30,0.79,-7.30,23.66,-38.91,-1.00
3466.00,-0.24,6.25,-7.98,-1.21,-1.29,0.79,-7.30,23.66,-38.91,-1.00
3478.00,-0.24,6.25,-7.98,-1.21,-1.29,0.79,-7.30,23.66,-38.91,-1.00
3492.00,-0.24,6.26,-7.98,-1.21,-1.30,0.78,-7.30,23.66,-38.91,-1.00
3504.00,-0.23,6.24,-7.98,-1.21,-1.30,0.78,-7.30,23.66,-38.91,-1.00
3516.00,-0.23,6.24,-7.98,-1.21,-1.30,0.78,-7.30,23.66,-38.91,-1.00
3528.00,-0.21,6.24,-7.98,-1.21,-1.30,0.79,-7.30,23.66,-38.91,-1.00
3543.00,-0.21,6.24,-7.98,-1.21,-1.30,0.79,-7.30,23.66,-38.91,-1.00
3629.00,-0.23,6.35,-7.97,-1.21,-1.30,0.78,-4.13,23.36,-37.95,-1.00
3718.00,-0.53,6.60,-6.95,-0.32,-1.10,0.65,-6.17,23.81,-38.43,-1.00
3732.00,-0.80,6.37,-9.39,-0.32,-0.88,0.44,-6.17,23.81,-38.43,-1.00
3744.00,-1.79,5.78,-9.51,0.58,-0.73,0.53,-6.17,23.81,-38.43,-1.00
3756.00,-1.79,5.78,-9.51,0.58,-0.73,0.53,-6.17,23.81,-38.43,-1.00
3768.00,-0.77,5.33,-8.44,1.60,-0.42,0.76,-6.17,23.81,-38.43,-1.00
3782.00,-0.77,5.33,-8.44,1.60,-0.42,0.76,-6.17,23.81,-38.43,-1.00
3794.00,1.02,3.67,-8.19,1.31,-0.20,1.02,-1.41,15.77,-42.11,-1.00
3806.00,1.66,3.89,-11.82,0.23,-0.40,1.60,-1.41,15.77,-42.11,-1.00
3818.00,1.66,3.89,-11.82,0.23,-0.40,1.60,-1.41,15.77,-42.11,-1.00
3832.00,0.97,6.84,-13.12,0.84,-0.87,2.03,-1.41,15.77,-42.11,-1.00
3844.00,0.91,7.95,-13.68,1.65,-1.30,1.21,-1.41,15.77,-42.11,-1.00
3856.00,0.91,7.95,-13.68,1.65,-1.30,1.21,-1.41,15.77,-42.11,-1.00
3868.00,1.17,5.08,-12.88,2.80,-1.79,-0.01,-1.41,15.77,-42.11,-1.00
3882.00,1.17,5.08,-12.88,2.80,-1.79,-0.01,-1.41,15.77,-42.11,-1.00
3894.00,0.81,1.61,-9.83,3.68,-2.16,-0.35,-1.41,15.77,-42.11,-1.00
3906.00,-0.83,0.95,-10.86,3.07,-2.22,-0.08,-1.41,15.77,-42.11,-1.00
3918.00,-0.83,0.95,-10.86,3.07,-2.22,-0.08,-1.41,15.77,-42.11,-1.00
3932.00,-2.61,1.42,-14.89,2.58,-2.37,0.06,0.86,-1.84,-46.26,-1.00
3944.00,-1.31,-1.84,-18.07,3.19,-3.12,-0.05,0.86,-1.84,-46.26,-1.00
3956.00,-1.31,-1.84,-18.07,3.19,-3.12,-0.05,0.86,-1.84,-46.26,-1.00
3971.00,2.78,-2.81,-14.75,4.64,-4.36,0.92,0.86,-1.84,-46.26,-1.00
3982.00,2.78,-2.81,-14.75,4.64,-4.36,0.92,0.86,-1.84,-46.26,-1.00
3994.00,2.81,7.39,-13.66,4.22,-5.99,0.99,0.86,-1.84,-46.26,-1.00
4006.00,0.22,5.01,-9.76,5.34,-7.31,-1.03,0.86,-1.84,-46.26,-1.00
4020.00,0.22,5.01,-9.76,5.34,-7.31,-1.03,0.86,-1.84,-46.26,-1.00
4032.00,2.21,-1.81,-7.13,6.54,-7.80,-2.10,0.86,-1.84,-46.26,-1.00
4044.00,2.76,-4.42,-1.57,6.59,-8.14,-1.43,-22.49,-33.26,-29.81,-1.00
4056.00,2.76,-4.42,-1.57,6.59,-8.14,-1.43,-22.49,-33.26,-29.81,-1.00
4070.00,1.47,-3.55,-1.29,5.15,-8.33,-0.31,-22.49,-33.26,-29.81,-1.00
4082.00,1.47,-3.55,-1.29,5.15,-8.33,-0.31,-22.49,-33.26,-29.81,-1.00
4094.00,-0.96,-5.71,-0.04,3.71,-7.69,-0.18,-22.49,-33.26,-29.81,-1.00
4106.00,-2.01,-7.43,0.50,2.52,-6.94,-0.17,-22.49,-33.26,-29.81,-1.00
4121.00,-2.01,-7.43,0.50,2.52,-6.94,-0.17,-22.49,-33.26,-29.81,-1.00
4132.00,-1.02,-5.66,-1.47,0.39,-6.65,0.15,-22.49,-33.26,-29.81,-1.00
4144.00,-0.39,-7.71,-0.65,-1.05,-6.69,0.09,-22.49,-33.26,-29.81,-1.00
4159.00,-0.39,-7.71,-0.65,-1.05,-6.69,0.09,-22.49,-33.26,-29.81,-1.00
4170.00,0.44,-8.97,-0.66,-3.29,-6.96,-0.26,-29.74,-42.67,-2.97,-1.00
4182.00,0.44,-8.97,-0.66,-3.29,-6.96,-0.26,-29.74,-42.67,-2.97,-1.00
4194.00,-2.54,-9.26,-0.94,-5.63,-7.80,-0.72,-29.74,-42.67,-2.97,-1.00
4208.00,-4.70,-13.67,-8.56,-5.33,-8.42,-0.75,-29.74,-42.67,-2.97,-1.00
4220.00,-4.70,-13.67,-8.56,-5.33,-8.42,-0.75,-29.74,-42.67,-2.97,-1.00
4232.00,-2.16,-11.40,15.66,0.42,-6.16,1.98,-29.74,-42.67,-2.97,-1.00
4246.00,-6.21,-2.05,4.50,-15.37,-5.23,0.78,-29.74,-42.67,-2.97,-1.00
4258.00,-6.21,-2.05,4.50,-15.37,-5.23,0.78,-29.74,-42.67,-2.97,-1.00
4270.00,-7.88,-10.73,-4.24,-16.15,-4.70,-0.16,-29.74,-42.67,-2.97,-1.00
4282.00,-7.88,-10.73,-4.24,-16.15,-4.70,-0.16,-29.74,-42.67,-2.97,-1.00
4296.00,-5.22,-8.69,-0.23,-7.42,-3.51,0.30,-29.74,-42.67,-2.97,-1.00
4308.00,-4.06,-9.23,-1.26,-4.50,-1.73,1.25,-36.31,-28.86,-27.73,-1.00
4320.00,-4.06,-9.23,-1.26,-4.50,-1.73,1.25,-36.31,-28.86,-27.73,-1.00
4332.00,-4.70,-9.74,-1.07,-3.87,-0.49,2.23,-36.31,-28.86,-27.73,-1.00
4346.00,-7.21,-9.18,-0.55,-5.95,0.03,3.43,-36.31,-28.86,-27.73,-1.00
4358.00,-7.21,-9.18,-0.55,-5.95,0.03,3.43,-36.31,-28.86,-27.73,-1.00
4370.00,-6.08,1.30,-10.40,-7.48,0.12,3.69,-36.31,-28.86,-27.73,-1.00
4384.00,-11.06,8.10,-14.56,-5.82,-1.24,1.50,-36.31,-28.86,-27.73,-1.00
4396.00,-11.06,8.10,-14.56,-5.82,-1.24,1.50,-36.31,-28.86,-27.73,-1.00
4408.00,-7.82,3.79,-8.64,0.55,-2.16,-2.02,-36.31,-28.86,-27.73,-1.00
4420.00,-7.82,3.79,-8.64,0.55,-2.16,-2.02,-36.31,-28.86,-27.73,-1.00
4435.00,5.28,-2.63,-10.51,2.15,-2.77,-5.03,-37.67,-16.11,-38.27,-1.00
4446.00,2.18,-7.67,-9.92,1.57,-4.71,-5.58,-37.67,-16.11,-38.27,-1.00
4458.00,2.18,-7.67,-9.92,1.57,-4.71,-5.58,-37.67,-16.11,-38.27,-1.00
4470.00,-3.93,-14.84,0.87,3.79,-5.41,-3.06,-37.67,-16.11,-38.27,-1.00
4484.00,-4.66,-13.04,-1.16,3.17,-2.92,0.51,-37.67,-16.11,-38.27,-1.00
4496.00,-4.66,-13.04,-1.16,3.17,-2.92,0.51,-37.67,-16.11,-38.27,-1.00
4508.00,-7.88,-3.00,-6.40,0.22,-2.82,2.00,-37.67,-16.11,-38.27,-1.00
4522.00,-7.88,-3.00,-6.40,0.22,-2.82,2.00,-37.67,-16.11,-38.27,-1.00
4534.00,-9.95,-7.25,-0.45,2.34,-3.39,0.81,-37.67,-16.11,-38.27,-1.00
4546.00,-8.94,-9.98,0.48,-0.17,-3.11,0.59,-41.98,-34.17,-17.35,-1.00
4558.00,-8.94,-9.98,0.48,-0.17,-3.11,0.59,-41.98,-34.17,-17.35,-1.00
4572.00,-5.51,-6.94,-3.81,-4.61,-2.63,1.08,-41.98,-34.17,-17.35,-1.00
4584.00,-4.88,-8.54,-7.25,-1.46,-2.11,1.72,-41.98,-34.17,-17.35,-1.00
4596.00,-4.88,-8.54,-7.25,-1.46,-2.11,1.72,-41.98,-34.17,-17.35,-1.00
4611.00,-8.72,-10.87,0.57,3.91,-1.63,2.50,-41.98,-34.17,-17.35,-1.00
4622.00,-8.72,-10.87,0.57,3.91,-1.63,2.50,-41.98,-34.17,-17.35,-1.00
4634.00,-6.19,-9.41,9.92,-0.30,-1.27,3.10,-41.98,-34.17,-17.35,-1.00
4646.00,-2.73,-8.37,5.07,-8.89,-1.48,2.34,-41.98,-34.17,-17.35,-1.00
4660.00,-2.73,-8.37,5.07,-8.89,-1.48,2.34,-41.98,-34.17,-17.35,-1.00
4672.00,-1.87,-5.93,1.97,-10.13,-0.21,2.35,-51.28,-21.27,-25.17,-1.00
4684.00,-2.74,-6.27,-9.45,-10.20,0.62,2.99,-51.28,-21.27,-25.17,-1.00
4696.00,-2.74,-6.27,-9.45,-10.20,0.62,2.99,-51.28,-21.27,-25.17,-1.00
4710.00,-3.93,-5.61,-10.16,-9.50,-0.83,4.19,-51.28,-21.27,-25.17,-1.00
4722.00,-3.93,-5.61,-10.16,-9.50,-0.83,4.19,-51.28,-21.27,-25.17,-1.00
4734.00,-4.05,-0.37,-6.26,-7.90,-2.25,4.92,-51.28,-21.27,-25.17,-1.00
4748.00,-5.10,5.29,-6.49,-7.13,-2.88,4.70,-51.28,-21.27,-25.17,-1.00
4761.00,-5.10,5.29,-6.49,-7.13,-2.88,4.70,-51.28,-21.27,-25.17,-1.00
4773.00,-7.11,6.44,-4.90,-4.48,-2.92,3.51,-51.28,-21.27,-25.17,-1.00
4785.00,-8.89,4.61,-4.30,-1.94,-2.11,1.81,-51.28,-21.27,-25.17,-1.00
4799.00,-8.89,4.61,-4.30,-1.94,-2.11,1.81,-51.28,-21.27,-25.17,-1.00
4811.00,-8.43,2.33,-5.29,-1.54,-1.44,0.41,-58.53,12.73,-30.60,-1.00
4823.00,-8.43,2.33,-5.29,-1.54,-1.44,0.41,-58.53,12.73,-30.60,-1.00
4835.00,-7.84,-0.34,-7.50,-0.61,-1.07,0.27,-58.53,12.73,-30.60,-1.00
4849.00,-8.64,0.32,-5.96,-0.09,-1.21,0.84,-58.53,12.73,-30.60,-1.00
4861.00,-8.64,0.32,-5.96,-0.09,-1.21,0.84,-58.53,12.73,-30.60,-1.00
4873.00,-8.96,1.53,-5.44,-0.73,-1.23,0.88,-58.53,12.73,-30.60,-1.00
4888.00,-8.47,1.81,-7.19,-0.92,-1.02,0.46,-58.53,12.73,-30.60,-1.00
4899.00,-8.47,1.81,-7.19,-0.92,-1.02,0.46,-58.53,12.73,-30.60,-1.00
4911.00,-7.40,-0.03,-7.68,-0.28,-1.14,0.35,-58.53,12.73,-30.60,-1.00
4923.00,-7.40,-0.03,-7.68,-0.28,-1.14,0.35,-58.53,12.73,-30.60,-1.00
4937.00,-7.68,-1.60,-5.90,-0.04,-1.55,0.45,-58.08,8.79,-31.88,-1.00
4949.00,-9.16,-0.01,-6.50,-0.67,-1.79,0.59,-58.08,8.79,-31.88,-1.00
4961.00,-9.16,-0.01,-6.50,-0.67,-1.79,0.59,-58.08,8.79,-31.88,-1.00
4973.00,-9.86,1.92,-5.01,-1.02,-1.84,0.39,-58.08,8.79,-31.88,-1.00
4987.00,-8.80,-0.28,-4.77,-1.09,-1.51,-0.09,-58.08,8.79,-31.88,-1.00
4999.00,-8.80,-0.28,-4.77,-1.09,-1.51,-0.09,-58.08,8.79,-31.88,-1.00
5011.00,-8.62,-1.15,-6.01,-1.31,-1.26,-0.35,-58.08,8.79,-31.88,-1.00
5026.00,-7.70,-2.50,-5.92,-1.21,-1.17,-0.38,-58.08,8.79,-31.88,-1.00
5037.00,-7.70,-2.50,-5.92,-1.21,-1.17,-0.38,-58.08,8.79,-31.88,-1.00
5049.00,-7.99,-2.23,-6.24,-1.07,-1.03,0.01,-58.76,5.29,-32.04,-1.00
5061.00,-7.99,-2.23,-6.24,-1.07,-1.03,0.01,-58.76,5.29,-32.04,-1.00
5075.00,-8.10,-1.31,-6.12,-1.00,-0.94,0.30,-58.76,5.29,-32.04,-1.00
5087.00,-8.23,-0.94,-5.38,-1.02,-0.83,0.30,-58.76,5.29,-32.04,-1.00
5099.00,-8.23,-0.94,-5.38,-1.02,-0.83,0.30,-58.76,5.29,-32.04,-1.00
5111.00,-7.86,-0.82,-5.78,-1.41,-0.77,0.11,-58.76,5.29,-32.04,-1.00
5125.00,-8.00,-0.57,-7.26,-1.47,-0.73,-0.14,-58.76,5.29,-32.04,-1.00
5214.00,-4.12,-4.06,-10.43,-0.98,-1.60,2.62,-54.90,-0.32,-33.80,-1.00
5302.00,-9.51,-1.11,-5.89,0.26,-2.02,1.16,-54.90,-0.32,-33.80,-1.00
5316.00,-9.53,-1.26,-4.88,0.34,-1.90,0.95,-61.70,1.80,-29.97,-1.00
5329.00,-8.38,-4.82,-4.21,0.34,-1.67,0.92,-61.70,1.80,-29.97,-1.00
5341.00,-8.38,-4.82,-4.21,0.34,-1.67,0.92,-61.70,1.80,-29.97,-1.00
5353.00,-8.70,-2.06,-2.50,0.23,-1.26,1.74,-61.70,1.80,-29.97,-1.00
5367.00,-8.41,1.44,-6.91,-0.97,-0.92,2.00,-61.70,1.80,-29.97,-1.00
5379.00,-8.41,1.44,-6.91,-0.97,-0.92,2.00,-61.70,1.80,-29.97,-1.00
5391.00,-7.58,-3.94,-5.19,0.00,-1.10,1.62,-61.70,1.80,-29.97,-1.00
5403.00,-7.58,-3.94,-5.19,0.00,-1.10,1.62,-61.70,1.80,-29.97,-1.00
5417.00,-8.99,0.56,-4.50,-1.17,-1.32,1.87,-61.70,1.80,-29.97,-1.00
5429.00,-8.78,1.50,-5.79,-1.58,-1.25,1.29,-61.02,2.87,-28.53,-1.00
5441.00,-8.78,1.50,-5.79,-1.58,-1.25,1.29,-61.02,2.87,-28.53,-1.00
5453.00,-7.88,-1.50,-5.91,-0.87,-1.29,0.66,-61.02,2.87,-28.53,-1.00
5467.00,-8.43,-1.93,-6.08,-0.95,-1.51,0.63,-61.02,2.87,-28.53,-1.00
5479.00,-8.43,-1.93,-6.08,-0.95,-1.51,0.63,-61.02,2.87,-28.53,-1.00
5491.00,-9.11,-0.65,-5.15,-1.05,-1.60,0.67,-61.02,2.87,-28.53,-1.00
5505.00,-8.61,-1.06,-4.68,-0.92,-1.52,0.39,-61.02,2.87,-28.53,-1.00
5517.00,-8.61,-1.06,-4.68,-0.92,-1.52,0.39,-61.02,2.87,-28.53,-1.00
5529.00,-7.34,-2.84,-5.16,-0.85,-1.51,0.17,-61.02,2.87,-28.53,-1.00
5541.00,-7.34,-2.84,-5.16,-0.85,-1.51,0.17,-61.02,2.87,-28.53,-1.00
5555.00,-7.91,-2.07,-5.38,-0.74,-1.59,0.40,-61.93,-1.08,-26.93,-1.00
5567.00,-8.98,-1.98,-4.40,-0.50,-1.59,0.51,-61.93,-1.08,-26.93,-1.00
5579.00,-8.98,-1.98,-4.40,-0.50,-1.59,0.51,-61.93,-1.08,-26.93,-1.00
5591.00,-9.07,-2.98,-3.63,-0.49,-1.37,0.58,-61.93,-1.08,-26.93,-1.00
5606.00,-9.20,-1.71,-4.08,-0.83,-1.21,0.78,-61.93,-1.08,-26.93,-1.00
5617.00,-9.20,-1.71,-4.08,-0.83,-1.21,0.78,-61.93,-1.08,-26.93,-1.00
5629.00,-8.71,-2.39,-4.95,-0.99,-1.23,0.70,-61.93,-1.08,-26.93,-1.00
5644.00,-8.71,-2.39,-4.95,-0.99,-1.23,0.70,-61.93,-1.08,-26.93,-1.00
5655.00,-8.27,-2.34,-5.55,-1.07,-1.31,0.80,-61.93,-1.08,-26.93,-1.00
5667.00,-8.27,-1.63,-5.53,-1.18,-1.39,0.92,-61.02,-2.29,-25.65,-1.00
5679.00,-8.27,-1.63,-5.53,-1.18,-1.39,0.92,-61.02,-2.29,-25.65,-1.00
5693.00,-7.90,-1.61,-5.61,-1.21,-1.48,0.85,-61.02,-2.29,-25.65,-1.00
5705.00,-8.48,-1.74,-5.22,-1.13,-1.63,0.75,-61.02,-2.29,-25.65,-1.00
5717.00,-8.48,-1.74,-5.22,-1.13,-1.63,0.75,-61.02,-2.29,-25.65,-1.00
5729.00,-8.86,-2.24,-4.45,-0.99,-1.66,0.65,-61.02,-2.29,-25.65,-1.00
5743.00,-8.86,-2.24,-4.45,-0.99,-1.66,0.65,-61.02,-2.29,-25.65,-1.00
5755.00,-8.88,-2.66,-3.79,-0.91,-1.56,0.58,-61.02,-2.29,-25.65,-1.00
5767.00,-8.79,-2.73,-3.98,-0.97,-1.40,0.59,-61.02,-2.29,-25.65,-1.00
5781.00,-8.79,-2.73,-3.98,-0.97,-1.40,0.59,-61.02,-2.29,-25.65,-1.00
5793.00,-8.62,-2.44,-4.75,-1.08,-1.34,0.67,-61.02,-2.29,-25.65,-1.00
5805.00,-8.42,-2.44,-5.06,-1.15,-1.38,0.73,-61.02,-2.29,-25.65,-1.00
5817.00,-8.42,-2.44,-5.06,-1.15,-1.38,0.73,-59.89,-2.14,-25.49,-1.00
5831.00,-8.67,-1.98,-4.66,-1.21,-1.44,0.76,-59.89,-2.14,-25.49,-1.00
5843.00,-8.67,-1.98,-4.66,-1.21,-1.44,0.76,-59.89,-2.14,-25.49,-1.00
5855.00,-8.46,-2.39,-4.70,-1.16,-1.44,0.75,-59.89,-2.14,-25.49,-1.00
5867.00,-10.00,-2.00,-3.44,-1.14,-1.49,0.75,-59.89,-2.14,-25.49,-1.00
5881.00,-10.00,-2.00,-3.44,-1.14,-1.49,0.75,-59.89,-2.14,-25.49,-1.00
5893.00,-8.85,-2.32,-3.74,-1.19,-1.40,0.65,-59.89,-2.14,-25.49,-1.00
5905.00,-8.85,-2.32,-3.74,-1.19,-1.40,0.65,-59.89,-2.14,-25.49,-1.00
5920.00,-8.72,-2.61,-4.32,-1.23,-1.34,0.63,-59.89,-2.14,-25.49,-1.00
5931.00,-8.73,-1.68,-5.25,-1.22,-1.35,0.66,-63.06,-3.05,-26.13,-1.00
5943.00,-8.73,-1.68,-5.25,-1.22,-1.35,0.66,-63.06,-3.05,-26.13,-1.00
5955.00,-8.58,-1.92,-5.24,-1.14,-1.48,0.61,-63.06,-3.05,-26.13,-1.00
5969.00,-9.10,-3.55,-3.44,-1.21,-1.64,0.69,-63.06,-3.05,-26.13,-1.00
6056.00,-8.43,-0.36,-4.06,-2.35,-1.17,2.29,-65.10,3.47,-25.65,-1.00
6145.00,-8.47,0.18,-4.65,-0.81,-0.47,-0.63,-65.10,3.47,-25.65,-1.00
6233.00,-8.36,-2.72,-4.52,-0.58,-1.64,0.61,-60.34,-2.45,-27.73,-1.00
6247.00,-9.88,-2.91,-3.83,-0.74,-1.73,0.68,-60.34,-2.45,-27.73,-1.00
6260.00,-9.88,-2.91,-3.83,-0.74,-1.73,0.68,-60.34,-2.45,-27.73,-1.00
6272.00,-9.24,-3.23,-3.12,-0.95,-1.48,0.68,-60.34,-2.45,-27.73,-1.00
6286.00,-9.43,-2.12,-4.42,-1.25,-1.40,0.71,-60.34,-2.45,-27.73,-1.00
6298.00,-9.43,-2.12,-4.42,-1.25,-1.40,0.71,-60.34,-2.45,-27.73,-1.00
6310.00,-9.81,-2.70,-4.82,-1.56,-1.69,0.61,-61.25,-3.66,-25.81,-1.00
6322.00,-9.81,-2.70,-4.82,-1.56,-1.69,0.61,-61.25,-3.66,-25.81,-1.00
6336.00,-8.77,-2.85,-2.88,-1.74,-2.02,0.71,-61.25,-3.66,-25.81,-1.00
6348.00,-8.36,-2.94,-4.23,-1.85,-1.71,0.81,-61.25,-3.66,-25.81,-1.00
6360.00,-8.36,-2.94,-4.23,-1.85,-1.71,0.81,-61.25,-3.66,-25.81,-1.00
6372.00,-10.61,-1.22,-3.60,-1.96,-1.40,0.76,-61.25,-3.66,-25.81,-1.00
6387.00,-6.95,-2.83,-6.07,-1.83,-0.81,0.61,-61.25,-3.66,-25.81,-1.00
6398.00,-6.95,-2.83,-6.07,-1.83,-0.81,0.61,-61.25,-3.66,-25.81,-1.00
6410.00,-7.68,-2.35,-5.73,-1.66,-0.78,0.91,-61.25,-3.66,-25.81,-1.00
6425.00,-7.68,-2.35,-5.73,-1.66,-0.78,0.91,-61.25,-3.66,-25.81,-1.00
6436.00,-6.91,-2.07,-6.25,-1.44,-0.89,1.08,-59.44,-2.14,-27.73,-1.00
6448.00,-8.09,-1.87,-5.85,-1.17,-1.12,1.17,-59.44,-2.14,-27.73,-1.00
6460.00,-8.09,-1.87,-5.85,-1.17,-1.12,1.17,-59.44,-2.14,-27.73,-1.00
6474.00,-8.21,-1.76,-5.26,-1.05,-1.29,1.11,-59.44,-2.14,-27.73,-1.00
6486.00,-8.55,-1.76,-4.93,-1.02,-1.42,0.96,-59.44,-2.14,-27.73,-1.00
6498.00,-8.55,-1.76,-4.93,-1.02,-1.42,0.96,-59.44,-2.14,-27.73,-1.00
6510.00,-8.40,-2.01,-5.04,-1.04,-1.52,0.80,-59.44,-2.14,-27.73,-1.00
6524.00,-8.40,-2.01,-5.04,-1.04,-1.52,0.80,-59.44,-2.14,-27.73,-1.00
6536.00,-8.36,-2.20,-5.19,-1.03,-1.62,0.74,-59.44,-2.14,-27.73,-1.00
6548.00,-7.96,-2.23,-5.32,-0.99,-1.73,0.76,-63.52,-0.93,-26.77,-1.00
6562.00,-7.96,-2.23,-5.32,-0.99,-1.73,0.76,-63.52,-0.93,-26.77,-1.00
6574.00,-9.30,-2.95,-3.59,-1.04,-1.60,0.73,-63.52,-0.93,-26.77,-1.00
6586.00,-9.28,-3.01,-4.28,-1.22,-1.44,0.82,-63.52,-0.93,-26.77,-1.00
6598.00,-9.28,-3.01,-4.28,-1.22,-1.44,0.82,-63.52,-0.93,-26.77,-1.00
6612.00,-8.70,-4.41,-4.72,-1.46,-1.52,1.35,-63.52,-0.93,-26.77,-1.00
6624.00,-8.70,-4.41,-4.72,-1.46,-1.52,1.35,-63.52,-0.93,-26.77,-1.00
6636.00,-8.20,-2.83,-5.19,-1.95,-1.61,2.28,-63.52,-0.93,-26.77,-1.00
6648.00,-8.70,0.31,-4.11,-2.30,-1.65,2.67,-63.52,-0.93,-26.77,-1.00
6662.00,-8.70,0.31,-4.11,-2.30,-1.65,2.67,-63.52,-0.93,-26.77,-1.00
6674.00,-9.31,0.24,-3.72,-2.11,-1.48,2.12,-66.01,6.21,-25.33,-1.00
6686.00,-8.83,-0.63,-3.92,-1.92,-1.35,1.46,-66.01,6.21,-25.33,-1.00
6701.00,-8.83,-0.63,-3.92,-1.92,-1.35,1.46,-66.01,6.21,-25.33,-1.00
6712.00,-9.15,0.40,-4.31,-1.56,-1.23,0.97,-66.01,6.21,-25.33,-1.00
6724.00,-9.15,0.40,-4.31,-1.56,-1.23,0.97,-66.01,6.21,-25.33,-1.00
6736.00,-9.90,3.20,-4.92,-1.29,-1.11,0.09,-66.01,6.21,-25.33,-1.00
6750.00,-8.25,-0.95,-5.53,-0.62,-1.24,-1.14,-66.01,6.21,-25.33,-1.00
6762.00,-8.25,-0.95,-5.53,-0.62,-1.24,-1.14,-66.01,6.21,-25.33,-1.00
6774.00,-7.93,-5.82,-4.50,-0.42,-1.49,-0.58,-66.01,6.21,-25.33,-1.00
6786.00,-8.23,-5.70,-3.94,-1.53,-1.57,0.89,-66.01,6.21,-25.33,-1.00
6800.00,-8.23,-5.70,-3.94,-1.53,-1.57,0.89,-66.01,6.21,-25.33,-1.00
6812.00,-8.79,-1.64,-2.82,-2.02,-1.46,2.00,-65.56,3.47,-24.37,-1.00
6824.00,-8.79,-1.64,-2.82,-2.02,-1.46,2.00,-65.56,3.47,-24.37,-1.00
6838.00,-9.32,0.51,-4.28,-2.10,-1.19,2.07,-65.56,3.47,-24.37,-1.00
6850.00,-11.49,1.68,-1.93,-1.89,-1.03,1.58,-65.56,3.47,-24.37,-1.00
6862.00,-11.49,1.68,-1.93,-1.89,-1.03,1.58,-65.56,3.47,-24.37,-1.00
6874.00,-11.39,0.00,-1.47,-1.95,-0.30,0.90,-65.56,3.47,-24.37,-1.00
6888.00,-7.12,0.68,-7.38,-2.27,-0.04,0.44,-65.56,3.47,-24.37,-1.00
6900.00,-7.12,0.68,-7.38,-2.27,-0.04,0.44,-65.56,3.47,-24.37,-1.00
6912.00,-8.07,0.43,-5.91,-2.25,-0.86,-0.09,-65.56,3.47,-24.37,-1.00
6924.00,-8.07,0.43,-5.91,-2.25,-0.86,-0.09,-65.56,3.47,-24.37,-1.00
6938.00,-6.53,-0.75,-6.86,-1.74,-1.18,-0.14,-63.29,6.51,-26.29,-1.00
6950.00,-6.93,-2.31,-5.44,-1.16,-1.44,0.21,-63.29,6.51,-26.29,-1.00
6962.00,-6.93,-2.31,-5.44,-1.16,-1.44,0.21,-63.29,6.51,-26.29,-1.00
6974.00,-6.45,-1.91,-6.68,-0.83,-1.26,0.67,-63.29,6.51,-26.29,-1.00
6988.00,-7.69,-0.85,-8.71,-0.44,-0.95,1.10,-63.29,6.51,-26.29,-1.00
7000.00,-7.69,-0.85,-8.71,-0.44,-0.95,1.10,-63.29,6.51,-26.29,-1.00
7012.00,-8.48,0.15,-6.32,-0.34,-1.12,1.02,-63.29,6.51,-26.29,-1.00
7027.00,-8.43,-1.22,-4.84,-0.18,-1.27,0.76,-63.29,6.51,-26.29,-1.00
7038.00,-8.43,-1.22,-4.84,-0.18,-1.27,0.76,-63.29,6.51,-26.29,-1.00
7050.00,-10.21,-1.10,-3.89,-0.39,-1.41,0.78,-65.10,4.69,-27.57,-1.00
7062.00,-10.21,-1.10,-3.89,-0.39,-1.41,0.78,-65.10,4.69,-27.57,-1.00
7076.00,-9.14,-1.62,-3.91,-0.61,-1.33,0.72,-65.10,4.69,-27.57,-1.00
7088.00,-8.74,-1.37,-4.68,-0.83,-1.26,0.77,-65.10,4.69,-27.57,-1.00
7100.00,-8.74,-1.37,-4.68,-0.83,-1.26,0.77,-65.10,4.69,-27.57,-1.00
7112.00,-8.71,-1.69,-4.92,-0.95,-1.26,0.84,-65.10,4.69,-27.57,-1.00
7126.00,-8.71,-1.69,-4.92,-0.95,-1.26,0.84,-65.10,4.69,-27.57,-1.00
7138.00,-7.93,-1.53,-5.97,-1.09,-1.30,0.95,-65.10,4.69,-27.57,-1.00
7150.00,-10.88,-0.41,-3.42,-1.17,-1.53,1.10,-65.10,4.69,-27.57,-1.00
7164.00,-10.88,-0.41,-3.42,-1.17,-1.53,1.10,-65.10,4.69,-27.57,-1.00
7176.00,-9.23,-1.42,-3.79,-1.24,-1.43,0.93,-65.10,4.69,-27.57,-1.00
7188.00,-9.23,-0.52,-5.31,-1.35,-1.46,0.74,-63.06,2.71,-28.05,-1.00
7200.00,-9.23,-0.52,-5.31,-1.35,-1.46,0.74,-63.06,2.71,-28.05,-1.00
7214.00,-8.54,-0.84,-5.02,-1.27,-1.62,0.38,-63.06,2.71,-28.05,-1.00
7226.00,-8.54,-0.84,-5.02,-1.27,-1.62,0.38,-63.06,2.71,-28.05,-1.00
7238.00,-8.41,-0.61,-5.36,-1.14,-1.71,0.14,-63.06,2.71,-28.05,-1.00
7250.00,-8.34,-1.37,-4.88,-0.83,-1.55,0.20,-63.06,2.71,-28.05,-1.00
7264.00,-8.34,-1.37,-4.88,-0.83,-1.55,0.20,-63.06,2.71,-28.05,-1.00
7276.00,-8.88,-2.29,-3.48,-0.81,-1.38,0.55,-63.06,2.71,-28.05,-1.00
7288.00,-8.06,-5.92,-4.91,-1.04,-1.04,1.13,-63.06,2.71,-28.05,-1.00
7300.00,-8.06,-5.92,-4.91,-1.04,-1.04,1.13,-63.06,2.71,-28.05,-1.00
7314.00,-9.69,0.57,-4.77,-1.65,-1.05,2.10,-62.38,1.96,-25.97,-1.00
7326.00,-9.69,0.57,-4.77,-1.65,-1.05,2.10,-62.38,1.96,-25.97,-1.00
7338.00,-10.21,1.40,-4.55,-1.60,-1.16,1.58,-62.38,1.96,-25.97,-1.00
7352.00,-13.95,2.82,-1.74,-1.64,-1.30,0.54,-62.38,1.96,-25.97,-1.00
7364.00,-13.95,2.82,-1.74,-1.64,-1.30,0.54,-62.38,1.96,-25.97,-1.00
7376.00,-11.01,-4.75,0.57,-1.63,-0.43,-0.52,-62.38,1.96,-25.97,-1.00
7388.00,-7.27,-0.62,-7.35,-2.35,0.39,-0.16,-62.38,1.96,-25.97,-1.00
7402.00,-7.27,-0.62,-7.35,-2.35,0.39,-0.16,-62.38,1.96,-25.97,-1.00
7414.00,-5.95,-1.02,-7.99,-2.20,-0.50,-0.33,-62.38,1.96,-25.97,-1.00
7426.00,-5.95,-1.02,-7.99,-2.20,-0.50,-0.33,-62.38,1.96,-25.97,-1.00
7438.00,-5.56,-2.60,-6.96,-1.58,-1.17,-0.13,-59.44,2.11,-29.33,-1.00
7453.00,-4.52,-3.01,-7.59,-1.23,-1.39,0.51,-59.44,2.11,-29.33,-1.00
7465.00,-4.52,-3.01,-7.59,-1.23,-1.39,0.51,-59.44,2.11,-29.33,-1.00
7477.00,-5.25,-2.61,-8.25,-0.83,-1.40,1.39,-59.44,2.11,-29.33,-1.00
7491.00,-7.95,1.45,-10.21,-0.51,-1.18,2.05,-59.44,2.11,-29.33,-1.00
7503.00,-7.95,1.45,-10.21,-0.51,-1.18,2.05,-59.44,2.11,-29.33,-1.00
7515.00,-7.06,-0.18,-7.25,-0.13,-1.32,1.72,-59.44,2.11,-29.33,-1.00
7527.00,-8.24,-0.27,-6.46,-0.07,-1.65,1.36,-59.44,2.11,-29.33,-1.00
7541.00,-8.24,-0.27,-6.46,-0.07,-1.65,1.36,-59.44,2.11,-29.33,-1.00
7553.00,-9.36,-0.99,-4.48,-0.07,-1.84,1.02,-60.57,1.96,-29.17,-1.00
7565.00,-9.36,-0.99,-4.48,-0.07,-1.84,1.02,-60.57,1.96,-29.17,-1.00
7577.00,-10.03,-1.62,-2.81,-0.17,-1.78,0.82,-60.57,1.96,-29.17,-1.00
7592.00,-10.17,-2.02,-2.50,-0.48,-1.59,0.70,-60.57,1.96,-29.17,-1.00
7678.00,-8.32,-1.52,-5.49,-1.23,-1.51,0.78,-60.57,1.96,-29.17,-1.00
7767.00,-8.35,-1.08,-5.42,-1.00,-1.39,0.57,-61.02,0.13,-26.61,-1.00
7781.00,-8.35,-1.08,-5.42,-1.00,-1.39,0.57,-61.02,0.13,-26.61,-1.00
7793.00,-8.48,-2.45,-4.15,-0.86,-1.39,0.56,-61.02,0.13,-26.61,-1.00
7805.00,-8.48,-2.45,-4.15,-0.86,-1.39,0.56,-61.02,0.13,-26.61,-1.00
7817.00,-8.61,-3.26,-4.12,-1.02,-1.20,0.85,-61.93,0.13,-26.61,-1.00
7831.00,-8.79,-3.31,-4.22,-1.32,-1.06,1.27,-61.93,0.13,-26.61,-1.00
7843.00,-8.79,-3.31,-4.22,-1.32,-1.06,1.27,-61.93,0.13,-26.61,-1.00
7855.00,-9.07,-0.96,-4.21,-1.56,-1.12,1.50,-61.93,0.13,-26.61,-1.00
7867.00,-8.62,-1.90,-5.45,-1.51,-1.18,1.16,-61.93,0.13,-26.61,-1.00
7881.00,-8.62,-1.90,-5.45,-1.51,-1.18,1.16,-61.93,0.13,-26.61,-1.00
7893.00,-8.96,0.64,-5.37,-1.51,-1.36,0.87,-61.93,0.13,-26.61,-1.00
7905.00,-8.96,0.64,-5.37,-1.51,-1.36,0.87,-61.93,0.13,-26.61,-1.00
7917.00,-8.18,-1.93,-5.25,-1.28,-1.47,0.27,-61.93,0.13,-26.61,-1.00
7931.00,-8.44,-1.66,-5.84,-1.17,-1.52,0.30,-61.70,0.59,-26.45,-1.00
7943.00,-8.44,-1.66,-5.84,-1.17,-1.52,0.30,-61.70,0.59,-26.45,-1.00
7955.00,-9.46,-3.56,-4.89,-1.26,-1.61,0.75,-61.70,0.59,-26.45,-1.00
7969.00,-7.47,-5.30,-4.29,-1.40,-1.76,2.05,-61.70,0.59,-26.45,-1.00
7981.00,-7.47,-5.30,-4.29,-1.40,-1.76,2.05,-61.70,0.59,-26.45,-1.00
7993.00,-8.75,1.05,-3.86,-2.50,-1.84,3.16,-61.70,0.59,-26.45,-1.00
8005.00,-8.75,1.05,-3.86,-2.50,-1.84,3.16,-61.70,0.59,-26.45,-1.00
8020.00,-8.30,0.13,-4.05,-2.40,-1.53,2.90,-61.70,0.59,-26.45,-1.00
8031.00,-9.69,2.84,-4.93,-2.42,-1.42,2.57,-61.70,0.59,-26.45,-1.00
8043.00,-9.69,2.84,-4.93,-2.42,-1.42,2.57,-61.70,0.59,-26.45,-1.00
8055.00,-9.62,2.50,-4.58,-1.97,-1.40,1.59,-64.88,11.52,-25.81,-1.00
8069.00,-9.33,0.44,-4.75,-1.77,-1.34,0.72,-64.88,11.52,-25.81,-1.00
8081.00,-9.33,0.44,-4.75,-1.77,-1.34,0.72,-64.88,11.52,-25.81,-1.00
8093.00,-10.22,1.08,-2.67,-1.87,-1.38,0.12,-64.88,11.52,-25.81,-1.00
8107.00,-10.22,1.08,-2.67,-1.87,-1.38,0.12,-64.88,11.52,-25.81,-1.00
8119.00,-10.29,0.03,-2.59,-1.74,-1.29,-0.37,-64.88,11.52,-25.81,-1.00
8131.00,-10.58,-1.75,-3.30,-1.80,-0.88,-0.71,-64.88,11.52,-25.81,-1.00
8143.00,-10.58,-1.75,-3.30,-1.80,-0.88,-0.71,-64.88,11.52,-25.81,-1.00
8157.00,-7.79,1.34,-5.79,-1.92,-0.37,-0.28,-64.88,11.52,-25.81,-1.00
8169.00,-5.90,-1.85,-7.47,-1.55,-0.40,-0.10,-64.88,11.52,-25.81,-1.00
8181.00,-5.90,-1.85,-7.47,-1.55,-0.40,-0.10,-64.88,11.52,-25.81,-1.00
8193.00,-6.69,-0.03,-8.05,-1.06,-0.68,0.47,-62.38,8.63,-28.85,-1.00
8208.00,-6.69,-0.03,-8.05,-1.06,-0.68,0.47,-62.38,8.63,-28.85,-1.00
8219.00,-8.13,-0.18,-6.29,-0.75,-0.99,0.70,-62.38,8.63,-28.85,-1.00
8231.00,-8.77,-0.64,-4.87,-0.62,-1.10,0.74,-62.38,8.63,-28.85,-1.00
8245.00,-8.77,-0.64,-4.87,-0.62,-1.10,0.74,-62.38,8.63,-28.85,-1.00
8257.00,-8.85,-0.72,-4.96,-0.65,-1.05,0.71,-62.38,8.63,-28.85,-1.00
8269.00,-8.27,-0.73,-5.59,-0.76,-1.08,0.63,-62.38,8.63,-28.85,-1.00
8281.00,-8.27,-0.73,-5.59,-0.76,-1.08,0.63,-62.38,8.63,-28.85,-1.00
8295.00,-8.41,-0.57,-5.85,-0.82,-1.23,0.60,-62.38,8.63,-28.85,-1.00
8307.00,-8.41,-0.57,-5.85,-0.82,-1.23,0.60,-62.38,8.63,-28.85,-1.00
8319.00,-8.85,-0.84,-5.24,-0.87,-1.37,0.56,-62.16,4.84,-28.69,-1.00
8331.00,-8.55,-1.08,-5.15,-0.96,-1.42,0.53,-62.16,4.84,-28.69,-1.00
8345.00,-8.55,-1.08,-5.15,-0.96,-1.42,0.53,-62.16,4.84,-28.69,-1.00
8357.00,-8.68,-0.96,-5.09,-0.99,-1.48,0.50,-62.16,4.84,-28.69,-1.00
8369.00,-8.04,-1.64,-5.57,-0.97,-1.47,0.54,-62.16,4.84,-28.69,-1.00
8381.00,-8.04,-1.64,-5.57,-0.97,-1.47,0.54,-62.16,4.84,-28.69,-1.00
8395.00,-8.06,-1.31,-5.67,-1.01,-1.59,0.73,-62.16,4.84,-28.69,-1.00
8407.00,-8.06,-1.31,-5.67,-1.01,-1.59,0.73,-62.16,4.84,-28.69,-1.00
8419.00,-9.24,-1.51,-5.05,-1.07,-1.54,0.79,-62.16,4.84,-28.69,-1.00
8433.00,-8.85,-1.58,-4.12,-1.21,-1.36,0.81,-61.93,4.38,-27.57,-1.00
8445.00,-8.85,-1.58,-4.12,-1.21,-1.36,0.81,-61.93,4.38,-27.57,-1.00
8457.00,-8.75,-2.37,-5.13,-1.40,-1.29,1.01,-61.93,4.38,-27.57,-1.00
8469.00,-8.76,-0.66,-4.71,-1.55,-1.38,1.52,-61.93,4.38,-27.57,-1.00
8484.00,-8.76,-0.66,-4.71,-1.55,-1.38,1.52,-61.93,4.38,-27.57,-1.00
8495.00,-8.78,-0.31,-4.66,-1.56,-1.48,1.40,-61.93,4.38,-27.57,-1.00
8507.00,-8.78,-0.31,-4.66,-1.56,-1.48,1.40,-61.93,4.38,-27.57,-1.00
8519.00,-8.82,0.25,-5.69,-1.34,-1.53,0.96,-61.93,4.38,-27.57,-1.00
8533.00,-8.65,0.82,-4.87,-1.15,-1.65,0.52,-61.93,4.38,-27.57,-1.00
8545.00,-8.65,0.82,-4.87,-1.15,-1.65,0.52,-61.93,4.38,-27.57,-1.00
8557.00,-8.42,-1.27,-4.17,-0.89,-1.46,0.10,-64.20,4.99,-26.93,-1.00
8571.00,-8.85,-1.32,-4.77,-0.81,-1.15,0.17,-64.20,4.99,-26.93,-1.00
8583.00,-8.85,-1.32,-4.77,-0.81,-1.15,0.17,-64.20,4.99,-26.93,-1.00
8595.00,-8.85,-2.00,-4.62,-1.05,-0.98,0.44,-64.20,4.99,-26.93,-1.00
8607.00,-8.85,-2.00,-4.62,-1.05,-0.98,0.44,-64.20,4.99,-26.93,-1.00
8621.00,-9.50,-2.29,-4.50,-1.49,-1.04,0.84,-64.20,4.99,-26.93,-1.00
8633.00,-9.06,-0.73,-4.50,-1.70,-1.16,0.98,-64.20,4.99,-26.93,-1.00
8645.00,-9.06,-0.73,-4.50,-1.70,-1.16,0.98,-64.20,4.99,-26.93,-1.00
8658.00,-8.46,-0.91,-5.15,-1.61,-1.18,0.78,-64.20,4.99,-26.93,-1.00
8671.00,-7.34,-0.88,-6.61,-1.49,-1.18,0.76,-64.20,4.99,-26.93,-1.00
8683.00,-7.34,-0.88,-6.61,-1.49,-1.18,0.76,-64.20,4.99,-26.93,-1.00
8695.00,-7.37,-0.92,-6.74,-1.29,-1.36,0.79,-62.38,5.60,-28.85,-1.00
8707.00,-7.37,-0.92,-6.74,-1.29,-1.36,0.79,-62.38,5.60,-28.85,-1.00
8721.00,-7.49,-0.67,-6.33,-1.16,-1.62,0.82,-62.38,5.60,-28.85,-1.00
8733.00,-9.80,-0.45,-4.88,-1.12,-1.69,0.74,-62.38,5.60,-28.85,-1.00
8745.00,-9.80,-0.45,-4.88,-1.12,-1.69,0.74,-62.38,5.60,-28.85,-1.00
8759.00,-9.00,-0.93,-4.19,-1.21,-1.47,0.69,-62.38,5.60,-28.85,-1.00
8771.00,-8.87,-1.85,-5.09,-1.28,-1.42,0.85,-62.38,5.60,-28.85,-1.00
8783.00,-8.87,-1.85,-5.09,-1.28,-1.42,0.85,-62.38,5.60,-28.85,-1.00
8795.00,-8.57,-1.07,-4.45,-1.39,-1.51,1.28,-62.38,5.60,-28.85,-1.00
8810.00,-8.87,-0.07,-4.45,-1.37,-1.42,1.34,-60.57,6.81,-26.93,-1.00
8822.00,-8.87,-0.07,-4.45,-1.37,-1.42,1.34,-60.57,6.81,-26.93,-1.00
8834.00,-9.08,0.15,-3.95,-1.15,-1.21,1.00,-60.57,6.81,-26.93,-1.00
8846.00,-9.08,0.15,-3.95,-1.15,-1.21,1.00,-60.57,6.81,-26.93,-1.00
8860.00,-10.97,-0.64,-2.70,-0.98,-0.85,0.56,-60.57,6.81,-26.93,-1.00
8872.00,-7.70,-0.70,-5.42,-1.02,-0.46,0.20,-60.57,6.81,-26.93,-1.00
8884.00,-7.70,-0.70,-5.42,-1.02,-0.46,0.20,-60.57,6.81,-26.93,-1.00
8898.00,-6.28,-0.36,-8.56,-0.99,-0.71,-0.06,-60.57,6.81,-26.93,-1.00
8910.00,-5.43,-2.76,-8.46,-0.81,-1.42,0.06,-60.57,6.81,-26.93,-1.00
8922.00,-5.43,-2.76,-8.46,-0.81,-1.42,0.06,-60.57,6.81,-26.93,-1.00
8934.00,-13.16,-0.62,-1.51,-0.90,-2.01,0.69,-63.74,3.17,-26.61,-1.00
8948.00,-9.80,-2.72,-1.63,-1.23,-1.55,0.66,-63.74,3.17,-26.61,-1.00
8960.00,-9.80,-2.72,-1.63,-1.23,-1.55,0.66,-63.74,3.17,-26.61,-1.00
8972.00,-12.90,0.16,-2.39,-1.66,-1.35,0.78,-63.74,3.17,-26.61,-1.00
8984.00,-12.90,0.16,-2.39,-1.66,-1.35,0.78,-63.74,3.17,-26.61,-1.00
8998.00,-8.23,-1.64,-5.41,-1.92,-0.90,0.49,-63.74,3.17,-26.61,-1.00
9010.00,-6.58,-1.42,-7.35,-2.12,-1.27,0.56,-63.74,3.17,-26.61,-1.00
9022.00,-6.58,-1.42,-7.35,-2.12,-1.27,0.56,-63.74,3.17,-26.61,-1.00
9036.00,-8.70,-1.51,-3.38,-2.01,-1.82,0.69,-63.74,3.17,-26.61,-1.00
9048.00,-8.70,-1.51,-3.38,-2.01,-1.82,0.69,-63.74,3.17,-26.61,-1.00
9060.00,-6.23,-1.79,-6.75,-1.72,-1.40,0.85,-63.74,4.38,-27.25,-1.00
9072.00,-6.80,-1.36,-6.59,-1.36,-1.34,1.12,-63.74,4.38,-27.25,-1.00
9087.00,-6.80,-1.36,-6.59,-1.36,-1.34,1.12,-63.74,4.38,-27.25,-1.00
9098.00,-6.20,-1.73,-6.82,-0.93,-1.26,1.33,-63.74,4.38,-27.25,-1.00
9110.00,-11.08,1.68,-5.45,-0.70,-1.45,1.37,-63.74,4.38,-27.25,-1.00
9122.00,-11.08,1.68,-5.45,-0.70,-1.45,1.37,-63.74,4.38,-27.25,-1.00
9136.00,-9.36,-0.94,-3.83,-0.64,-1.40,0.85,-63.74,4.38,-27.25,-1.00
9148.00,-9.36,-0.94,-3.83,-0.64,-1.40,0.85,-63.74,4.38,-27.25,-1.00
9160.00,-9.54,-0.93,-3.69,-0.85,-1.40,0.72,-63.74,4.38,-27.25,-1.00
9172.00,-9.07,-1.29,-4.18,-1.06,-1.41,0.65,-63.74,4.38,-27.25,-1.00
9186.00,-9.07,-1.29,-4.18,-1.06,-1.41,0.65,-63.74,4.38,-27.25,-1.00
9198.00,-9.27,-0.97,-4.36,-1.23,-1.40,0.65,-61.93,5.60,-25.97,-1.00
9210.00,-8.49,-0.59,-5.55,-1.21,-1.32,0.62,-61.93,5.60,-25.97,-1.00
9224.00,-8.49,-0.59,-5.55,-1.21,-1.32,0.62,-61.93,5.60,-25.97,-1.00
9236.00,-8.51,-1.33,-5.08,-1.06,-1.30,0.58,-61.93,5.60,-25.97,-1.00
9248.00,-8.51,-1.33,-5.08,-1.06,-1.30,0.58,-61.93,5.60,-25.97,-1.00
9260.00,-8.51,-2.30,-4.47,-1.00,-1.24,0.71,-61.93,5.60,-25.97,-1.00
9275.00,-8.73,-3.18,-4.41,-1.16,-1.20,1.11,-61.93,5.60,-25.97,-1.00
9286.00,-8.73,-3.18,-4.41,-1.16,-1.20,1.11,-61.93,5.60,-25.97,-1.00
9298.00,-9.60,-0.21,-5.12,-1.48,-1.36,1.67,-61.93,5.60,-25.97,-1.00
9310.00,-9.56,0.38,-4.17,-1.62,-1.54,1.55,-64.20,6.21,-26.29,-1.00
9324.00,-9.56,0.38,-4.17,-1.62,-1.54,1.55,-64.20,6.21,-26.29,-1.00
9336.00,-9.38,1.45,-5.22,-1.59,-1.49,1.05,-64.20,6.21,-26.29,-1.00
9348.00,-9.38,1.45,-5.22,-1.59,-1.49,1.05,-64.20,6.21,-26.29,-1.00
9362.00,-8.79,0.04,-3.75,-1.37,-1.46,0.35,-64.20,6.21,-26.29,-1.00
9374.00,-10.36,-2.03,-3.21,-1.13,-1.05,0.00,-64.20,6.21,-26.29,-1.00
9386.00,-10.36,-2.03,-3.21,-1.13,-1.05,0.00,-64.20,6.21,-26.29,-1.00
9398.00,-7.84,-1.31,-4.83,-1.23,-0.66,0.03,-64.20,6.21,-26.29,-1.00
9412.00,-7.60,-0.92,-6.51,-1.22,-0.66,0.03,-64.20,6.21,-26.29,-1.00
9424.00,-7.60,-0.92,-6.51,-1.22,-0.66,0.03,-64.20,6.21,-26.29,-1.00
9436.00,-6.73,-1.37,-7.23,-1.13,-0.95,0.17,-62.84,4.08,-28.21,-1.00
9448.00,-6.73,-1.37,-7.23,-1.13,-0.95,0.17,-62.84,4.08,-28.21,-1.00
9462.00,-7.97,-1.47,-6.19,-1.00,-1.35,0.38,-62.84,4.08,-28.21,-1.00
9474.00,-7.87,-1.92,-5.28,-0.97,-1.57,0.53,-62.84,4.08,-28.21,-1.00
9486.00,-7.87,-1.92,-5.28,-0.97,-1.57,0.53,-62.84,4.08,-28.21,-1.00
9498.00,-8.00,-2.03,-5.68,-1.02,-1.75,0.68,-62.84,4.08,-28.21,-1.00
9512.00,-10.59,-0.28,-4.29,-1.13,-1.82,0.84,-62.84,4.08,-28.21,-1.00
9524.00,-10.59,-0.28,-4.29,-1.13,-1.82,0.84,-62.84,4.08,-28.21,-1.00
9536.00,-9.09,-2.69,-4.19,-1.32,-1.57,0.84,-62.84,4.08,-28.21,-1.00
9550.00,-8.10,-3.39,-4.59,-1.52,-1.58,1.49,-62.84,4.08,-28.21,-1.00
9562.00,-8.10,-3.39,-4.59,-1.52,-1.58,1.49,-62.84,4.08,-28.21,-1.00
9574.00,-8.94,-0.60,-4.49,-1.76,-1.64,2.23,-62.84,4.08,-28.21,-1.00
9586.00,-8.94,-0.60,-4.49,-1.76,-1.64,2.23,-62.84,4.08,-28.21,-1.00
9600.00,-9.28,1.73,-4.52,-1.77,-1.52,2.11,-62.84,4.08,-28.21,-1.00
9612.00,-8.89,-0.03,-4.76,-1.50,-1.42,1.35,-62.84,4.08,-28.21,-1.00
9624.00,-8.89,-0.03,-4.76,-1.50,-1.42,1.35,-62.84,4.08,-28.21,-1.00
9636.00,-9.18,-0.36,-5.09,-1.37,-1.43,0.84,-62.84,4.08,-28.21,-1.00
9650.00,-9.89,2.09,-3.21,-1.45,-1.53,0.37,-62.84,4.08,-28.21,-1.00
9662.00,-9.89,2.09,-3.21,-1.45,-1.53,0.37,-62.84,4.08,-28.21,-1.00
9674.00,-8.55,-1.96,-3.73,-1.24,-1.30,-0.49,-62.84,4.08,-28.21,-1.00
9688.00,-8.55,-1.96,-3.73,-1.24,-1.30,-0.49,-62.84,4.08,-28.21,-1.00
9700.00,-8.33,-1.93,-4.39,-1.36,-1.18,-0.23,-65.78,6.66,-24.53,-1.00
9712.00,-8.23,-1.50,-5.38,-1.36,-0.91,0.30,-65.78,6.66,-24.53,-1.00
9724.00,-8.23,-1.50,-5.38,-1.36,-0.91,0.30,-65.78,6.66,-24.53,-1.00
9738.00,-8.98,-1.59,-4.88,-1.26,-0.89,0.84,-65.78,6.66,-24.53,-1.00
9750.00,-8.45,-1.21,-4.72,-1.13,-0.81,1.23,-65.78,6.66,-24.53,-1.00
9762.00,-8.45,-1.21,-4.72,-1.13,-0.81,1.23,-65.78,6.66,-24.53,-1.00
9774.00,-8.10,-0.71,-6.22,-1.06,-0.83,1.37,-65.78,6.66,-24.53,-1.00
9788.00,-8.10,-0.71,-6.22,-1.06,-0.83,1.37,-65.78,6.66,-24.53,-1.00
9800.00,-6.53,-1.22,-8.13,-1.08,-1.30,1.42,-65.78,6.66,-24.53,-1.00
9812.00,-10.06,0.24,-6.14,-1.35,-1.86,1.39,-61.93,8.03,-26.61,-1.00
9824.00,-10.06,0.24,-6.14,-1.35,-1.86,1.39,-61.93,8.03,-26.61,-1.00
9838.00,-9.41,-1.57,-2.82,-1.51,-1.97,1.18,-61.93,8.03,-26.61,-1.00
9850.00,-9.58,0.55,-2.87,-1.95,-1.88,1.16,-61.93,8.03,-26.61,-1.00
9862.00,-9.58,0.55,-2.87,-1.95,-1.88,1.16,-61.93,8.03,-26.61,-1.00
9876.00,-10.19,0.91,-2.40,-1.89,-1.54,0.83,-61.93,8.03,-26.61,-1.00
9964.00,-4.05,0.12,-10.80,-2.32,0.18,-0.21,-63.06,10.30,-28.05,-1.00
10052.00,-8.37,-1.16,-4.86,0.52,-2.07,0.63,-63.06,10.30,-28.05,-1.00
10140.00,-8.95,-1.38,-4.98,-0.78,-1.18,0.43,-60.80,6.05,-28.05,-1.00
10155.00,-7.78,-1.57,-6.17,-0.93,-1.26,0.39,-60.80,6.05,-28.05,-1.00
10166.00,-7.78,-1.57,-6.17,-0.93,-1.26,0.39,-60.80,6.05,-28.05,-1.00
10178.00,-7.54,-1.82,-6.06,-0.98,-1.50,0.48,-60.80,6.05,-28.05,-1.00
10190.00,-7.45,-1.95,-5.86,-0.91,-1.74,0.60,-63.52,0.89,-26.45,-1.00
10204.00,-7.45,-1.95,-5.86,-0.91,-1.74,0.60,-63.52,0.89,-26.45,-1.00
10216.00,-11.03,-1.14,-2.57,-0.86,-1.83,0.68,-63.52,0.89,-26.45,-1.00
10228.00,-11.03,-1.14,-2.57,-0.86,-1.83,0.68,-63.52,0.89,-26.45,-1.00
10242.00,-9.12,-2.54,-3.20,-0.95,-1.50,0.67,-63.52,0.89,-26.45,-1.00
10254.00,-9.00,-5.53,-5.05,-1.31,-1.45,1.03,-63.52,0.89,-26.45,-1.00
10266.00,-9.00,-5.53,-5.05,-1.31,-1.45,1.03,-63.52,0.89,-26.45,-1.00
10278.00,-8.13,-2.39,-4.66,-1.75,-1.73,2.17,-63.52,0.89,-26.45,-1.00
10292.00,-8.64,0.57,-3.53,-2.10,-1.83,2.72,-63.52,0.89,-26.45,-1.00
10304.00,-8.64,0.57,-3.53,-2.10,-1.83,2.72,-63.52,0.89,-26.45,-1.00
10316.00,-8.66,0.58,-4.70,-1.95,-1.48,2.26,-65.78,4.84,-24.85,-1.00
10328.00,-8.66,0.58,-4.70,-1.95,-1.48,2.26,-65.78,4.84,-24.85,-1.00
10342.00,-8.73,-0.55,-4.26,-1.53,-1.33,1.57,-65.78,4.84,-24.85,-1.00
10354.00,-8.99,-0.66,-4.04,-1.28,-1.19,1.06,-65.78,4.84,-24.85,-1.00
10366.00,-8.99,-0.66,-4.04,-1.28,-1.19,1.06,-65.78,4.84,-24.85,-1.00
10380.00,-9.86,4.49,-5.34,-1.36,-1.10,0.41,-65.78,4.84,-24.85,-1.00
10392.00,-8.51,-2.18,-4.82,-0.77,-1.34,-0.64,-65.78,4.84,-24.85,-1.00
10404.00,-8.51,-2.18,-4.82,-0.77,-1.34,-0.64,-65.78,4.84,-24.85,-1.00
10416.00,-8.38,-2.67,-5.12,-1.12,-1.55,0.03,-65.78,4.84,-24.85,-1.00
10431.00,-8.02,-1.27,-5.16,-1.44,-1.50,0.91,-64.65,4.69,-22.78,-1.00
10442.00,-8.02,-1.27,-5.16,-1.44,-1.50,0.91,-64.65,4.69,-22.78,-1.00
10454.00,-8.51,-0.03,-5.20,-1.13,-1.31,1.33,-64.65,4.69,-22.78,-1.00
10468.00,-8.51,-0.03,-5.20,-1.13,-1.31,1.33,-64.65,4.69,-22.78,-1.00
10480.00,-8.61,-1.59,-4.65,-0.81,-1.09,1.29,-64.65,4.69,-22.78,-1.00
10492.00,-9.60,0.11,-4.39,-0.99,-1.00,1.16,-64.65,4.69,-22.78,-1.00
10504.00,-9.60,0.11,-4.39,-0.99,-1.00,1.16,-64.65,4.69,-22.78,-1.00
10518.00,-10.30,0.90,-3.28,-1.14,-0.98,0.69,-64.65,4.69,-22.78,-1.00
10530.00,-11.91,-2.55,-1.19,-1.33,-0.95,0.03,-64.65,4.69,-22.78,-1.00
10542.00,-11.91,-2.55,-1.19,-1.33,-0.95,0.03,-64.65,4.69,-22.78,-1.00
10554.00,-10.75,-1.96,-1.26,-1.96,-0.52,0.08,-64.65,4.69,-22.78,-1.00
10568.00,-10.75,-1.96,-1.26,-1.96,-0.52,0.08,-64.65,4.69,-22.78,-1.00
10580.00,-10.74,-2.02,-1.44,-2.75,0.13,0.20,-63.29,5.60,-26.29,-1.00
10592.00,-7.71,0.81,-4.57,-3.52,0.68,0.20,-63.29,5.60,-26.29,-1.00
10607.00,-7.71,0.81,-4.57,-3.52,0.68,0.20,-63.29,5.60,-26.29,-1.00
10618.00,-5.29,-0.17,-8.43,-2.98,0.80,0.01,-63.29,5.60,-26.29,-1.00
10630.00,-6.04,0.18,-8.41,-2.29,0.32,0.11,-63.29,5.60,-26.29,-1.00
10642.00,-6.04,0.18,-8.41,-2.29,0.32,0.11,-63.29,5.60,-26.29,-1.00
10656.00,-5.40,-1.10,-8.76,-1.86,-0.01,0.24,-63.29,5.60,-26.29,-1.00
10668.00,-5.40,-1.10,-8.76,-1.86,-0.01,0.24,-63.29,5.60,-26.29,-1.00
10680.00,-4.83,-1.76,-9.31,-1.71,-0.43,0.59,-63.29,5.60,-26.29,-1.00
10692.00,-6.20,-0.06,-8.70,-1.52,-1.02,1.05,-54.22,8.33,-34.28,-1.00
10706.00,-6.20,-0.06,-8.70,-1.52,-1.02,1.05,-54.22,8.33,-34.28,-1.00
10718.00,-7.93,-0.27,-6.99,-1.41,-1.43,1.06,-54.22,8.33,-34.28,-1.00
10730.00,-8.44,1.70,-5.00,-1.99,-1.60,0.92,-54.22,8.33,-34.28,-1.00
10742.00,-8.44,1.70,-5.00,-1.99,-1.60,0.92,-54.22,8.33,-34.28,-1.00
10757.00,-9.63,1.29,-4.95,-2.01,-1.25,0.35,-54.22,8.33,-34.28,-1.00
10768.00,-9.63,1.29,-4.95,-2.01,-1.25,0.35,-54.22,8.33,-34.28,-1.00
10780.00,-5.58,-5.33,-7.71,-1.92,-1.24,0.16,-54.22,8.33,-34.28,-1.00
10794.00,-6.39,-1.74,-7.45,-1.49,-1.44,1.46,-54.22,8.33,-34.28,-1.00
10806.00,-6.39,-1.74,-7.45,-1.49,-1.44,1.46,-54.22,8.33,-34.28,-1.00
10818.00,-6.51,1.31,-8.48,-1.28,-1.67,1.85,-57.62,11.21,-32.20,-1.00
10830.00,-6.03,-0.65,-7.30,-0.54,-2.05,1.65,-57.62,11.21,-32.20,-1.00
10844.00,-6.03,-0.65,-7.30,-0.54,-2.05,1.65,-57.62,11.21,-32.20,-1.00
10856.00,-9.81,0.70,-3.56,-0.59,-2.20,1.66,-57.62,11.21,-32.20,-1.00
10868.00,-9.81,0.70,-3.56,-0.59,-2.20,1.66,-57.62,11.21,-32.20,-1.00
10883.00,-10.75,0.31,-4.06,-1.74,-1.76,1.30,-57.62,11.21,-32.20,-1.00
10894.00,-8.21,2.19,-6.44,-2.85,-1.27,1.11,-57.62,11.21,-32.20,-1.00
10906.00,-8.21,2.19,-6.44,-2.85,-1.27,1.11,-57.62,11.21,-32.20,-1.00
10918.00,-7.45,4.12,-7.14,-1.98,-1.10,0.94,-57.62,11.21,-32.20,-1.00
10932.00,-7.79,1.99,-6.05,-0.87,-1.15,0.22,-57.85,13.49,-31.40,-1.00
10944.00,-7.79,1.99,-6.05,-0.87,-1.15,0.22,-57.85,13.49,-31.40,-1.00
10956.00,-8.61,-0.54,-2.30,-1.21,-1.06,-0.17,-57.85,13.49,-31.40,-1.00
10968.00,-8.61,-0.54,-2.30,-1.21,-1.06,-0.17,-57.85,13.49,-31.40,-1.00
10982.00,-6.13,2.31,-14.17,-2.74,-1.08,-0.38,-57.85,13.49,-31.40,-1.00
10994.00,-7.77,-5.22,-5.83,-0.22,-1.79,-0.20,-57.85,13.49,-31.40,-1.00
11006.00,-7.77,-5.22,-5.83,-0.22,-1.79,-0.20,-57.85,13.49,-31.40,-1.00
11020.00,-7.79,-1.07,-7.91,-1.71,-1.88,1.15,-57.85,13.49,-31.40,-1.00
11032.00,-7.83,3.64,-6.58,-1.99,-2.49,1.44,-57.85,13.49,-31.40,-1.00
11044.00,-7.83,3.64,-6.58,-1.99,-2.49,1.44,-57.85,13.49,-31.40,-1.00
11056.00,-7.99,0.09,-3.91,-1.32,-2.66,0.92,-57.85,13.49,-31.40,-1.00
11071.00,-7.88,-2.24,-3.23,-1.00,-2.17,1.02,-60.80,13.04,-27.73,-1.00
11082.00,-7.88,-2.24,-3.23,-1.00,-2.17,1.02,-60.80,13.04,-27.73,-1.00
11094.00,-8.86,0.55,-4.89,-1.41,-1.59,1.39,-60.80,13.04,-27.73,-1.00
11106.00,-8.86,0.55,-4.89,-1.41,-1.59,1.39,-60.80,13.04,-27.73,-1.00
11120.00,-9.06,1.58,-4.90,-1.66,-1.39,1.11,-60.80,13.04,-27.73,-1.00
11132.00,-7.81,0.79,-5.26,-1.44,-1.14,0.64,-60.80,13.04,-27.73,-1.00
11144.00,-7.81,0.79,-5.26,-1.44,-1.14,0.64,-60.80,13.04,-27.73,-1.00
11158.00,-7.27,-0.88,-6.61,-1.21,-0.98,0.54,-60.80,13.04,-27.73,-1.00
11170.00,-7.91,-0.82,-6.76,-1.22,-1.19,1.08,-60.80,13.04,-27.73,-1.00
11182.00,-7.91,-0.82,-6.76,-1.22,-1.19,1.08,-60.80,13.04,-27.73,-1.00
11194.00,-7.76,0.74,-6.92,-1.34,-1.45,1.59,-59.44,16.07,-29.01,-1.00
11208.00,-7.76,0.74,-6.92,-1.34,-1.45,1.59,-59.44,16.07,-29.01,-1.00
11220.00,-8.72,1.73,-5.53,-1.16,-1.67,1.73,-59.44,16.07,-29.01,-1.00
11232.00,-10.15,1.93,-4.50,-1.12,-1.68,1.55,-59.44,16.07,-29.01,-1.00
11246.00,-10.15,1.93,-4.50,-1.12,-1.68,1.55,-59.44,16.07,-29.01,-1.00
11258.00,-9.18,2.52,-5.94,-1.18,-1.47,1.28,-59.44,16.07,-29.01,-1.00
11270.00,-9.18,2.52,-5.94,-1.18,-1.47,1.28,-59.44,16.07,-29.01,-1.00
11282.00,-8.54,3.11,-6.58,-0.91,-1.56,1.12,-59.44,16.07,-29.01,-1.00
11296.00,-8.39,3.87,-5.94,-0.41,-1.85,0.91,-59.44,16.07,-29.01,-1.00
11308.00,-8.39,3.87,-5.94,-0.41,-1.85,0.91,-59.44,16.07,-29.01,-1.00
11320.00,-9.18,3.65,-5.21,-0.33,-2.09,0.31,-63.74,15.31,-26.93,-1.00
11332.00,-7.87,0.17,-4.74,-0.29,-2.08,-0.24,-63.74,15.31,-26.93,-1.00
11347.00,-7.87,0.17,-4.74,-0.29,-2.08,-0.24,-63.74,15.31,-26.93,-1.00
11358.00,-7.39,-1.37,-3.68,0.13,-1.77,0.03,-63.74,15.31,-26.93,-1.00
11370.00,-7.39,-1.37,-3.68,0.13,-1.77,0.03,-63.74,15.31,-26.93,-1.00
11384.00,-8.44,-0.45,-4.21,0.30,-1.42,0.49,-63.74,15.31,-26.93,-1.00
11396.00,-9.11,-0.30,-3.99,0.09,-1.42,0.32,-63.74,15.31,-26.93,-1.00
11408.00,-9.11,-0.30,-3.99,0.09,-1.42,0.32,-63.74,15.31,-26.93,-1.00
11420.00,-8.24,-2.85,-4.36,0.01,-1.25,0.21,-63.74,15.31,-26.93,-1.00
11434.00,-8.82,-1.61,-4.73,-0.22,-1.18,0.74,-64.65,9.85,-26.93,-1.00
11446.00,-8.82,-1.61,-4.73,-0.22,-1.18,0.74,-64.65,9.85,-26.93,-1.00
11458.00,-10.31,0.20,-4.43,-0.65,-1.28,0.93,-64.65,9.85,-26.93,-1.00
11470.00,-10.31,0.20,-4.43,-0.65,-1.28,0.93,-64.65,9.85,-26.93,-1.00
11484.00,-9.29,-0.15,-4.68,-1.04,-1.31,0.70,-64.65,9.85,-26.93,-1.00
11496.00,-8.13,-1.25,-5.22,-1.20,-1.33,0.72,-64.65,9.85,-26.93,-1.00
11508.00,-8.13,-1.25,-5.22,-1.20,-1.33,0.72,-64.65,9.85,-26.93,-1.00
11523.00,-8.60,-0.49,-4.85,-1.22,-1.38,0.99,-64.65,9.85,-26.93,-1.00
11534.00,-8.68,-0.27,-5.31,-1.19,-1.36,1.08,-64.65,9.85,-26.93,-1.00
11546.00,-8.68,-0.27,-5.31,-1.19,-1.36,1.08,-64.65,9.85,-26.93,-1.00
11558.00,-8.77,0.21,-5.29,-1.15,-1.39,1.06,-64.65,9.85,-26.93,-1.00
11572.00,-9.01,0.15,-4.64,-1.10,-1.42,0.92,-64.42,9.70,-25.49,-1.00
11584.00,-9.01,0.15,-4.64,-1.10,-1.42,0.92,-64.42,9.70,-25.49,-1.00
11596.00,-8.84,-0.16,-4.75,-1.12,-1.38,0.75,-64.42,9.70,-25.49,-1.00
11608.00,-8.84,-0.16,-4.75,-1.12,-1.38,0.75,-64.42,9.70,-25.49,-1.00
11622.00,-8.62,-0.61,-4.90,-1.11,-1.37,0.68,-64.42,9.70,-25.49,-1.00
11634.00,-8.68,-0.05,-5.10,-1.12,-1.41,0.73,-64.42,9.70,-25.49,-1.00
11646.00,-8.68,-0.05,-5.10,-1.12,-1.41,0.73,-64.42,9.70,-25.49,-1.00
11660.00,-8.29,-0.26,-5.40,-1.11,-1.49,0.71,-64.42,9.70,-25.49,-1.00
11672.00,-10.73,-0.03,-2.66,-1.12,-1.63,0.67,-64.42,9.70,-25.49,-1.00
11684.00,-10.73,-0.03,-2.66,-1.12,-1.63,0.67,-64.42,9.70,-25.49,-1.00
11696.00,-9.05,-1.27,-3.59,-1.13,-1.43,0.57,-65.10,8.63,-25.65,-1.00
11710.00,-9.05,-1.27,-3.59,-1.13,-1.43,0.57,-65.10,8.63,-25.65,-1.00
11722.00,-9.03,-0.65,-4.39,-1.23,-1.37,0.68,-65.10,8.63,-25.65,-1.00
11734.00,-8.98,-1.77,-5.82,-1.32,-1.44,0.90,-65.10,8.63,-25.65,-1.00
11746.00,-8.98,-1.77,-5.82,-1.32,-1.44,0.90,-65.10,8.63,-25.65,-1.00
11760.00,-8.25,-0.81,-4.18,-1.38,-1.74,1.46,-65.10,8.63,-25.65,-1.00
11772.00,-9.09,1.37,-3.96,-1.43,-1.67,1.59,-65.10,8.63,-25.65,-1.00
11784.00,-9.09,1.37,-3.96,-1.43,-1.67,1.59,-65.10,8.63,-25.65,-1.00
11798.00,-9.04,-0.64,-4.32,-1.08,-1.40,1.12,-65.10,8.63,-25.65,-1.00
11810.00,-9.04,-0.64,-4.32,-1.08,-1.40,1.12,-65.10,8.63,-25.65,-1.00
11822.00,-9.27,0.28,-4.19,-1.22,-1.38,0.91,-67.60,10.61,-22.94,-1.00
11834.00,-9.98,1.82,-4.20,-1.45,-1.29,0.46,-67.60,10.61,-22.94,-1.00
11848.00,-9.98,1.82,-4.20,-1.45,-1.29,0.46,-67.60,10.61,-22.94,-1.00
11860.00,-9.41,-0.18,-2.95,-1.39,-1.23,-0.02,-67.60,10.61,-22.94,-1.00
11872.00,-9.26,-1.76,-2.86,-1.68,-1.24,0.11,-67.60,10.61,-22.94,-1.00
11884.00,-9.26,-1.76,-2.86,-1.68,-1.24,0.11,-67.60,10.61,-22.94,-1.00
11898.00,-9.41,-1.86,-4.80,-1.89,-1.00,0.62,-67.60,10.61,-22.94,-1.00
11910.00,-9.41,-1.86,-4.80,-1.89,-1.00,0.62,-67.60,10.61,-22.94,-1.00
11924.00,-8.83,1.18,-5.09,-1.94,-0.95,1.05,-67.60,10.61,-22.94,-1.00
11937.00,-7.54,0.06,-6.53,-1.65,-0.97,0.98,-64.65,10.15,-25.33,-1.00
11949.00,-7.54,0.06,-6.53,-1.65,-0.97,0.98,-64.65,10.15,-25.33,-1.00
11961.00,-8.01,0.71,-6.46,-1.44,-1.25,0.99,-64.65,10.15,-25.33,-1.00
11973.00,-7.90,0.08,-5.76,-1.21,-1.47,0.95,-64.65,10.15,-25.33,-1.00
11987.00,-7.90,0.08,-5.76,-1.21,-1.47,0.95,-64.65,10.15,-25.33,-1.00
11999.00,-8.47,0.60,-5.44,-1.09,-1.68,0.85,-64.65,10.15,-25.33,-1.00
12011.00,-9.57,0.36,-4.10,-1.06,-1.62,0.66,-64.65,10.15,-25.33,-1.00
12025.00,-9.57,0.36,-4.10,-1.06,-1.62,0.66,-64.65,10.15,-25.33,-1.00
12037.00,-8.80,-1.19,-3.61,-1.08,-1.37,0.65,-64.65,10.15,-25.33,-1.00
12049.00,-8.80,-1.19,-3.61,-1.08,-1.37,0.65,-64.65,10.15,-25.33,-1.00
12061.00,-9.24,0.45,-4.22,-1.24,-1.34,0.96,-64.65,10.15,-25.33,-1.00
12076.00,-8.70,-1.39,-5.51,-1.25,-1.29,1.19,-66.01,11.06,-24.37,-1.00
12088.00,-8.70,-1.39,-5.51,-1.25,-1.29,1.19,-66.01,11.06,-24.37,-1.00
12100.00,-9.30,0.52,-3.48,-1.40,-1.55,1.46,-66.01,11.06,-24.37,-1.00
12112.00,-9.51,0.69,-4.31,-1.28,-1.47,1.10,-66.01,11.06,-24.37,-1.00
12126.00,-9.51,0.69,-4.31,-1.28,-1.47,1.10,-66.01,11.06,-24.37,-1.00
12138.00,-9.42,2.01,-4.33,-1.20,-1.39,0.67,-66.01,11.06,-24.37,-1.00
12150.00,-9.42,2.01,-4.33,-1.20,-1.39,0.67,-66.01,11.06,-24.37,-1.00
12164.00,-8.30,-0.61,-4.38,-0.92,-1.22,0.20,-66.01,11.06,-24.37,-1.00
12176.00,-8.72,-0.79,-3.40,-0.78,-1.02,0.36,-66.01,11.06,-24.37,-1.00
12188.00,-8.72,-0.79,-3.40,-0.78,-1.02,0.36,-66.01,11.06,-24.37,-1.00
12200.00,-9.85,0.21,-2.78,-0.93,-0.66,0.62,-66.46,9.85,-23.10,-1.00
12214.00,-13.67,-0.74,-1.80,-1.42,-0.41,0.71,-66.46,9.85,-23.10,-1.00
12303.00,-6.75,-0.70,-5.73,-1.91,-1.75,0.46,-66.46,9.85,-23.10,-1.00
12390.00,-9.38,0.99,-4.70,-0.19,-1.60,1.22,-65.10,11.06,-24.69,-1.00
12477.00,-8.73,0.10,-5.18,-1.06,-1.18,0.68,-63.97,10.91,-24.85,-1.00
12491.00,-8.73,0.10,-5.18,-1.06,-1.18,0.68,-63.97,10.91,-24.85,-1.00
12503.00,-8.67,0.08,-5.14,-1.11,-1.27,0.61,-63.97,10.91,-24.85,-1.00
12515.00,-8.59,-0.25,-5.21,-1.13,-1.35,0.58,-63.97,10.91,-24.85,-1.00
12530.00,-8.59,-0.25,-5.21,-1.13,-1.35,0.58,-63.97,10.91,-24.85,-1.00
12541.00,-8.67,-0.34,-5.02,-1.09,-1.38,0.67,-63.97,10.91,-24.85,-1.00
12553.00,-9.13,-0.27,-4.45,-1.12,-1.39,0.75,-63.97,10.91,-24.85,-1.00
12565.00,-9.13,-0.27,-4.45,-1.12,-1.39,0.75,-63.97,10.91,-24.85,-1.00
12579.00,-9.06,-0.21,-4.36,-1.17,-1.34,0.79,-65.78,10.61,-24.85,-1.00
12591.00,-9.06,-0.21,-4.36,-1.17,-1.34,0.79,-65.78,10.61,-24.85,-1.00
12603.00,-8.81,-0.10,-4.67,-1.20,-1.32,0.77,-65.78,10.61,-24.85,-1.00
12617.00,-9.19,-0.02,-4.63,-1.19,-1.35,0.73,-65.78,10.61,-24.85,-1.00
12629.00,-9.19,-0.02,-4.63,-1.19,-1.35,0.73,-65.78,10.61,-24.85,-1.00
12641.00,-8.99,-0.52,-4.68,-1.17,-1.33,0.71,-65.78,10.61,-24.85,-1.00
12653.00,-9.06,0.03,-4.52,-1.23,-1.33,0.77,-65.78,10.61,-24.85,-1.00
12667.00,-9.06,0.03,-4.52,-1.23,-1.33,0.77,-65.78,10.61,-24.85,-1.00
12679.00,-8.93,-0.22,-5.05,-1.33,-1.35,0.78,-65.78,10.61,-24.85,-1.00
12691.00,-8.93,-0.22,-5.05,-1.33,-1.35,0.78,-65.78,10.61,-24.85,-1.00
12703.00,-8.65,-1.74,-5.11,-1.37,-1.48,1.01,-66.01,10.15,-25.65,-1.00
12717.00,-8.92,0.28,-3.99,-1.44,-1.63,1.46,-66.01,10.15,-25.65,-1.00
12729.00,-8.92,0.28,-3.99,-1.44,-1.63,1.46,-66.01,10.15,-25.65,-1.00
12741.00,-9.15,0.91,-4.58,-1.41,-1.50,1.25,-66.01,10.15,-25.65,-1.00
12755.00,-8.85,-0.11,-5.13,-1.28,-1.36,0.89,-66.01,10.15,-25.65,-1.00
12767.00,-8.85,-0.11,-5.13,-1.28,-1.36,0.89,-66.01,10.15,-25.65,-1.00
12779.00,-9.27,0.69,-3.82,-1.34,-1.46,0.76,-66.01,10.15,-25.65,-1.00
12791.00,-9.27,0.69,-3.82,-1.34,-1.46,0.76,-66.01,10.15,-25.65,-1.00
12805.00,-9.00,1.10,-4.02,-1.30,-1.27,0.43,-66.01,10.15,-25.65,-1.00
12817.00,-8.42,-0.80,-5.68,-1.15,-1.07,0.27,-66.92,9.85,-25.01,-1.00
12829.00,-8.42,-0.80,-5.68,-1.15,-1.07,0.27,-66.92,9.85,-25.01,-1.00
12841.00,-9.34,0.45,-4.83,-1.31,-1.27,0.72,-66.92,9.85,-25.01,-1.00
12856.00,-8.81,-2.32,-3.91,-1.24,-1.44,1.10,-66.92,9.85,-25.01,-1.00
12867.00,-8.81,-2.32,-3.91,-1.24,-1.44,1.10,-66.92,9.85,-25.01,-1.00
12879.00,-9.14,1.30,-4.26,-1.52,-1.51,1.34,-66.92,9.85,-25.01,-1.00
12893.00,-8.99,0.74,-4.73,-1.28,-1.40,0.89,-66.92,9.85,-25.01,-1.00
12905.00,-8.99,0.74,-4.73,-1.28,-1.40,0.89,-66.92,9.85,-25.01,-1.00
12917.00,-8.81,0.28,-4.26,-1.24,-1.35,0.52,-66.92,9.85,-25.01,-1.00
12929.00,-8.81,0.28,-4.26,-1.24,-1.35,0.52,-66.92,9.85,-25.01,-1.00
12943.00,-8.94,0.15,-3.45,-1.17,-1.18,0.38,-66.92,9.85,-25.01,-1.00
12955.00,-9.18,-0.56,-3.60,-1.24,-0.96,0.35,-65.33,10.61,-24.53,-1.00
12967.00,-9.18,-0.56,-3.60,-1.24,-0.96,0.35,-65.33,10.61,-24.53,-1.00
12979.00,-9.47,-0.97,-5.34,-1.45,-0.80,0.49,-65.33,10.61,-24.53,-1.00
12993.00,-8.96,0.65,-4.23,-1.59,-0.99,0.80,-65.33,10.61,-24.53,-1.00
13005.00,-8.96,0.65,-4.23,-1.59,-0.99,0.80,-65.33,10.61,-24.53,-1.00
13017.00,-8.25,-0.27,-5.55,-1.43,-1.05,0.76,-65.33,10.61,-24.53,-1.00
13031.00,-8.25,-0.27,-5.55,-1.43,-1.05,0.76,-65.33,10.61,-24.53,-1.00
13043.00,-7.97,0.61,-6.29,-1.37,-1.26,0.74,-65.33,10.61,-24.53,-1.00
13055.00,-7.60,-0.03,-6.42,-1.24,-1.53,0.67,-65.33,10.61,-24.53,-1.00
13067.00,-7.60,-0.03,-6.42,-1.24,-1.53,0.67,-65.33,10.61,-24.53,-1.00
13081.00,-9.99,0.74,-4.40,-1.19,-1.70,0.76,-64.42,11.52,-23.90,-1.00
13093.00,-9.13,-1.01,-4.33,-1.22,-1.57,0.79,-64.42,11.52,-23.90,-1.00
13105.00,-9.13,-1.01,-4.33,-1.22,-1.57,0.79,-64.42,11.52,-23.90,-1.00
13117.00,-8.96,-0.25,-4.99,-1.37,-1.67,1.09,-64.42,11.52,-23.90,-1.00
13132.00,-8.96,-0.25,-4.99,-1.37,-1.67,1.09,-64.42,11.52,-23.90,-1.00
13143.00,-9.17,1.17,-4.17,-1.39,-1.84,1.37,-64.42,11.52,-23.90,-1.00
13155.00,-9.07,0.60,-3.23,-1.25,-1.68,1.25,-64.42,11.52,-23.90,-1.00
13170.00,-9.07,0.60,-3.23,-1.25,-1.68,1.25,-64.42,11.52,-23.90,-1.00
13181.00,-8.95,-0.03,-4.77,-1.10,-1.33,0.94,-64.42,11.52,-23.90,-1.00
13193.00,-9.52,1.35,-3.43,-1.05,-1.26,0.74,-66.24,13.34,-22.94,-1.00
13205.00,-9.52,1.35,-3.43,-1.05,-1.26,0.74,-66.24,13.34,-22.94,-1.00
13219.00,-9.30,1.30,-4.06,-1.06,-1.08,0.21,-66.24,13.34,-22.94,-1.00
13231.00,-9.30,1.30,-4.06,-1.06,-1.08,0.21,-66.24,13.34,-22.94,-1.00
13243.00,-9.32,1.78,-4.31,-1.07,-1.03,-0.38,-66.24,13.34,-22.94,-1.00
13257.00,-7.76,-3.37,-5.85,-0.89,-1.09,-0.53,-66.24,13.34,-22.94,-1.00
13269.00,-7.76,-3.37,-5.85,-0.89,-1.09,-0.53,-66.24,13.34,-22.94,-1.00
13282.00,-8.83,-2.63,-6.31,-1.37,-1.40,0.56,-66.24,13.34,-22.94,-1.00
13293.00,-7.81,-4.69,-4.28,-1.55,-1.87,1.85,-66.24,13.34,-22.94,-1.00
13307.00,-7.81,-4.69,-4.28,-1.55,-1.87,1.85,-66.24,13.34,-22.94,-1.00
13319.00,-9.22,0.41,-1.70,-2.12,-2.25,3.19,-68.05,12.43,-22.62,-1.00
13331.00,-9.22,0.41,-1.70,-2.12,-2.25,3.19,-68.05,12.43,-22.62,-1.00
13343.00,-9.52,3.99,-3.05,-2.11,-1.90,2.99,-68.05,12.43,-22.62,-1.00
13357.00,-11.99,6.18,-1.58,-1.70,-1.34,1.92,-68.05,12.43,-22.62,-1.00
13369.00,-11.99,6.18,-1.58,-1.70,-1.34,1.92,-68.05,12.43,-22.62,-1.00
13381.00,-11.97,0.51,-0.29,-1.47,-0.40,0.58,-68.05,12.43,-22.62,-1.00
13395.00,-8.96,2.21,-3.85,-2.09,0.16,0.12,-68.05,12.43,-22.62,-1.00
13407.00,-8.96,2.21,-3.85,-2.09,0.16,0.12,-68.05,12.43,-22.62,-1.00
13419.00,-8.78,1.13,-4.81,-2.21,-0.20,-0.73,-68.05,12.43,-22.62,-1.00
13431.00,-8.78,1.13,-4.81,-2.21,-0.20,-0.73,-68.05,12.43,-22.62,-1.00
13446.00,-6.65,0.35,-7.37,-1.86,-0.56,-0.87,-68.05,12.43,-22.62,-1.00
13457.00,-7.12,-0.93,-5.86,-1.61,-1.12,-0.49,-66.69,14.55,-23.58,-1.00
13469.00,-7.12,-0.93,-5.86,-1.61,-1.12,-0.49,-66.69,14.55,-23.58,-1.00
13483.00,-5.72,-0.63,-7.49,-1.34,-1.09,0.18,-66.69,14.55,-23.58,-1.00
13495.00,-6.85,0.64,-8.19,-0.96,-1.04,0.84,-66.69,14.55,-23.58,-1.00
13507.00,-6.85,0.64,-8.19,-0.96,-1.04,0.84,-66.69,14.55,-23.58,-1.00
13519.00,-7.73,2.68,-8.07,-0.67,-1.18,1.10,-66.69,14.55,-23.58,-1.00
13533.00,-8.92,0.77,-4.88,-0.40,-1.58,0.78,-66.69,14.55,-23.58,-1.00
13545.00,-8.92,0.77,-4.88,-0.40,-1.58,0.78,-66.69,14.55,-23.58,-1.00
13557.00,-9.68,-0.18,-3.61,-0.49,-1.75,0.64,-66.69,14.55,-23.58,-1.00
13569.00,-9.68,-0.18,-3.61,-0.49,-1.75,0.64,-66.69,14.55,-23.58,-1.00
13583.00,-10.27,-0.51,-2.65,-0.71,-1.70,0.65,-68.05,11.52,-23.90,-1.00
13595.00,-10.02,-0.02,-3.19,-0.97,-1.44,0.67,-68.05,11.52,-23.90,-1.00
13607.00,-10.02,-0.02,-3.19,-0.97,-1.44,0.67,-68.05,11.52,-23.90,-1.00
13622.00,-9.20,-0.12,-4.35,-1.16,-1.26,0.61,-68.05,11.52,-23.90,-1.00
13633.00,-8.46,0.06,-5.24,-1.24,-1.23,0.60,-68.05,11.52,-23.90,-1.00
13645.00,-8.46,0.06,-5.24,-1.24,-1.23,0.60,-68.05,11.52,-23.90,-1.00
13657.00,-8.27,0.09,-5.92,-1.16,-1.31,0.63,-68.05,11.52,-23.90,-1.00
13672.00,-8.27,0.09,-5.92,-1.16,-1.31,0.63,-68.05,11.52,-23.90,-1.00
13684.00,-8.57,0.07,-5.15,-1.09,-1.48,0.68,-68.05,11.52,-23.90,-1.00
13696.00,-9.00,0.01,-4.52,-1.06,-1.57,0.66,-67.37,10.76,-24.37,-1.00
13708.00,-9.00,0.01,-4.52,-1.06,-1.57,0.66,-67.37,10.76,-24.37,-1.00
13722.00,-10.06,-0.12,-3.13,-1.07,-1.55,0.58,-67.37,10.76,-24.37,-1.00
13734.00,-9.16,-0.09,-4.27,-1.04,-1.31,0.47,-67.37,10.76,-24.37,-1.00
13746.00,-9.16,-0.09,-4.27,-1.04,-1.31,0.47,-67.37,10.76,-24.37,-1.00
13760.00,-8.92,0.94,-5.40,-0.83,-1.14,0.31,-67.37,10.76,-24.37,-1.00
13772.00,-8.92,0.94,-5.40,-0.83,-1.14,0.31,-67.37,10.76,-24.37,-1.00
13784.00,-8.58,1.33,-5.04,-0.38,-1.04,0.10,-67.37,10.76,-24.37,-1.00
13796.00,-9.01,-0.41,-4.30,0.16,-1.00,-0.10,-67.37,10.76,-24.37,-1.00
13810.00,-9.01,-0.41,-4.30,0.16,-1.00,-0.10,-67.37,10.76,-24.37,-1.00
13822.00,-8.91,-3.37,-3.97,0.02,-1.16,0.07,-66.24,5.75,-24.53,-1.00
13834.00,-8.26,-7.68,-5.61,-0.87,-1.34,0.88,-66.24,5.75,-24.53,-1.00
13846.00,-8.26,-7.68,-5.61,-0.87,-1.34,0.88,-66.24,5.75,-24.53,-1.00
13860.00,-8.20,-3.53,-4.82,-2.07,-1.77,2.66,-66.24,5.75,-24.53,-1.00
13872.00,-8.20,-3.53,-4.82,-2.07,-1.77,2.66,-66.24,5.75,-24.53,-1.00
13884.00,-8.40,0.46,-3.54,-3.00,-2.29,3.58,-66.24,5.75,-24.53,-1.00
13899.00,-9.74,5.21,-3.52,-3.07,-2.18,3.24,-66.24,5.75,-24.53,-1.00
13910.00,-9.74,5.21,-3.52,-3.07,-2.18,3.24,-66.24,5.75,-24.53,-1.00
13922.00,-9.17,2.61,-3.41,-2.17,-1.72,2.05,-66.24,5.75,-24.53,-1.00
13934.00,-9.66,2.67,-2.15,-1.60,-1.21,1.25,-66.24,5.75,-24.53,-1.00
13948.00,-9.66,2.67,-2.15,-1.60,-1.21,1.25,-66.24,5.75,-24.53,-1.00
13960.00,-10.12,3.38,-3.37,-1.12,-0.40,0.32,-67.60,15.77,-21.34,-1.00
13972.00,-10.12,3.38,-3.37,-1.12,-0.40,0.32,-67.60,15.77,-21.34,-1.00
13984.00,-8.99,0.57,-4.54,-0.62,0.12,-0.46,-67.60,15.77,-21.34,-1.00
13998.00,-6.69,-0.61,-8.41,-0.42,-0.07,-0.35,-67.60,15.77,-21.34,-1.00
14010.00,-6.69,-0.61,-8.41,-0.42,-0.07,-0.35,-67.60,15.77,-21.34,-1.00
14023.00,-6.68,-0.02,-8.43,-0.58,-1.29,0.21,-67.60,15.77,-21.34,-1.00
14036.00,-10.03,0.97,-5.17,-0.89,-1.84,0.51,-67.60,15.77,-21.34,-1.00
14048.00,-10.03,0.97,-5.17,-0.89,-1.84,0.51,-67.60,15.77,-21.34,-1.00
14060.00,-9.52,-1.54,-2.91,-1.01,-1.71,0.46,-67.60,15.77,-21.34,-1.00
14072.00,-9.52,-1.54,-2.91,-1.01,-1.71,0.46,-67.60,15.77,-21.34,-1.00
14086.00,-9.33,-0.81,-3.41,-1.47,-1.71,0.53,-67.82,12.28,-24.69,-1.00
14098.00,-8.48,0.19,-5.53,-1.68,-1.62,0.60,-67.82,12.28,-24.69,-1.00
14110.00,-8.48,0.19,-5.53,-1.68,-1.62,0.60,-67.82,12.28,-24.69,-1.00
14124.00,-8.37,1.27,-5.58,-1.58,-1.56,0.76,-67.82,12.28,-24.69,-1.00
14136.00,-8.87,0.27,-4.53,-1.34,-1.48,0.76,-67.82,12.28,-24.69,-1.00
14148.00,-8.87,0.27,-4.53,-1.34,-1.48,0.76,-67.82,12.28,-24.69,-1.00
14160.00,-8.87,-0.67,-4.07,-1.24,-1.45,0.81,-67.82,12.28,-24.69,-1.00
14175.00,-9.13,0.55,-4.22,-1.25,-1.39,0.98,-67.82,12.28,-24.69,-1.00
14186.00,-9.13,0.55,-4.22,-1.25,-1.39,0.98,-67.82,12.28,-24.69,-1.00
14198.00,-8.99,0.16,-4.44,-1.23,-1.30,0.94,-66.92,12.28,-22.14,-1.00
14210.00,-8.99,0.16,-4.44,-1.23,-1.30,0.94,-66.92,12.28,-22.14,-1.00
14224.00,-8.38,-2.24,-5.83,-1.24,-1.31,1.24,-66.92,12.28,-22.14,-1.00
14236.00,-9.90,2.47,-3.45,-1.70,-1.70,1.78,-66.92,12.28,-22.14,-1.00
14248.00,-9.90,2.47,-3.45,-1.70,-1.70,1.78,-66.92,12.28,-22.14,-1.00
14262.00,-9.63,0.55,-3.07,-1.49,-1.65,1.29,-66.92,12.28,-22.14,-1.00
14274.00,-9.56,2.55,-4.24,-1.43,-1.53,0.89,-66.92,12.28,-22.14,-1.00
14286.00,-9.56,2.55,-4.24,-1.43,-1.53,0.89,-66.92,12.28,-22.14,-1.00
14298.00,-8.85,1.19,-4.55,-1.15,-1.35,0.29,-66.92,12.28,-22.14,-1.00
14312.00,-8.85,1.19,-4.55,-1.15,-1.35,0.29,-66.92,12.28,-22.14,-1.00
14324.00,-8.43,0.29,-4.51,-0.90,-1.19,0.07,-69.64,12.28,-20.86,-1.00
14336.00,-8.56,-0.65,-2.69,-0.62,-0.87,0.18,-69.64,12.28,-20.86,-1.00
14348.00,-8.56,-0.65,-2.69,-0.62,-0.87,0.18,-69.64,12.28,-20.86,-1.00
14362.00,-9.23,-1.82,-4.53,-0.71,-0.69,0.47,-69.64,12.28,-20.86,-1.00
14374.00,-10.14,1.01,-2.72,-1.37,-0.89,0.81,-69.64,12.28,-20.86,-1.00
14386.00,-10.14,1.01,-2.72,-1.37,-0.89,0.81,-69.64,12.28,-20.86,-1.00
14400.00,-12.44,-0.67,-3.01,-1.70,-0.84,0.55,-69.64,12.28,-20.86,-1.00
14412.00,-12.44,-0.67,-3.01,-1.70,-0.84,0.55,-69.64,12.28,-20.86,-1.00
14424.00,-8.57,0.25,-4.06,-2.16,-0.80,0.54,-69.64,12.28,-20.86,-1.00
14436.00,-7.65,0.15,-6.97,-2.22,-0.96,0.59,-69.64,12.28,-20.86,-1.00
14451.00,-7.65,0.15,-6.97,-2.22,-0.96,0.59,-69.64,12.28,-20.86,-1.00
14462.00,-7.73,0.32,-5.57,-2.20,-1.43,0.65,-66.01,13.79,-24.06,-1.00
14474.00,-6.84,0.40,-6.50,-1.88,-1.49,0.76,-66.01,13.79,-24.06,-1.00
14489.00,-6.84,0.40,-6.50,-1.88,-1.49,0.76,-66.01,13.79,-24.06,-1.00
14575.00,-9.47,1.51,-4.71,-1.00,-1.38,0.76,-69.18,12.88,-22.78,-1.00
14665.00,-8.29,-2.35,-5.59,-1.19,-1.49,0.82,-69.18,12.88,-22.78,-1.00
14751.00,-9.90,2.66,-2.76,-1.40,-1.23,1.31,-68.50,15.16,-22.30,-1.00
14766.00,-10.19,2.77,-3.94,-1.11,-0.73,0.59,-68.50,15.16,-22.30,-1.00
14777.00,-8.18,1.19,-4.49,-0.80,-0.51,-0.08,-68.50,15.16,-22.30,-1.00
14789.00,-8.18,1.19,-4.49,-0.80,-0.51,-0.08,-68.50,15.16,-22.30,-1.00
14801.00,-6.37,-0.12,-7.87,-0.59,-0.58,-0.22,-68.50,15.16,-22.30,-1.00
14815.00,-10.01,0.28,-4.94,-0.63,-1.32,0.35,-68.50,15.16,-22.30,-1.00
14827.00,-10.01,0.28,-4.94,-0.63,-1.32,0.35,-68.50,15.16,-22.30,-1.00
14839.00,-9.74,-2.52,-4.04,-1.18,-1.67,0.95,-68.50,15.16,-22.30,-1.00
14853.00,-9.74,-2.52,-4.04,-1.18,-1.67,0.95,-68.50,15.16,-22.30,-1.00
14865.00,-9.61,1.38,-2.88,-1.96,-2.02,1.59,-68.50,15.16,-22.30,-1.00
14877.00,-10.06,2.15,-2.42,-2.03,-1.77,1.32,-68.50,15.16,-22.30,-1.00
14889.00,-10.06,2.15,-2.42,-2.03,-1.77,1.32,-68.50,15.16,-22.30,-1.00
14903.00,-12.88,-0.05,0.36,-1.72,-0.97,0.90,-68.50,15.16,-22.30,-1.00
14915.00,-10.62,-1.27,0.55,-1.93,0.17,1.01,-68.50,15.16,-22.30,-1.00
14927.00,-10.62,-1.27,0.55,-1.93,0.17,1.01,-68.50,15.16,-22.30,-1.00
14941.00,-9.20,2.68,-3.98,-2.37,0.91,1.04,-68.50,15.16,-22.30,-1.00
14953.00,-9.20,2.68,-3.98,-2.37,0.91,1.04,-68.50,15.16,-22.30,-1.00
14965.00,-7.94,3.71,-5.94,-2.56,0.76,0.20,-63.29,16.53,-26.29,-1.00
14977.00,-4.59,0.27,-10.20,-2.27,0.29,-0.44,-63.29,16.53,-26.29,-1.00
14991.00,-4.59,0.27,-10.20,-2.27,0.29,-0.44,-63.29,16.53,-26.29,-1.00
15003.00,-4.88,0.46,-9.02,-1.57,-0.76,0.05,-63.29,16.53,-26.29,-1.00
15015.00,-4.92,-0.83,-8.76,-1.03,-1.67,0.57,-63.29,16.53,-26.29,-1.00
15027.00,-4.92,-0.83,-8.76,-1.03,-1.67,0.57,-63.29,16.53,-26.29,-1.00
15041.00,-8.03,3.39,-7.25,-0.68,-2.25,1.15,-63.29,16.53,-26.29,-1.00
15053.00,-8.03,3.39,-7.25,-0.68,-2.25,1.15,-63.29,16.53,-26.29,-1.00
15065.00,-8.37,1.06,-5.44,-0.28,-2.34,1.18,-63.29,16.53,-26.29,-1.00
15079.00,-8.05,1.68,-5.44,-0.02,-1.91,1.48,-65.33,15.46,-26.13,-1.00
15091.00,-8.05,1.68,-5.44,-0.02,-1.91,1.48,-65.33,15.46,-26.13,-1.00
15103.00,-8.47,2.31,-6.31,0.01,-1.71,1.47,-65.33,15.46,-26.13,-1.00
15115.00,-9.72,3.14,-4.08,-0.08,-1.80,1.01,-65.33,15.46,-26.13,-1.00
15129.00,-9.72,3.14,-4.08,-0.08,-1.80,1.01,-65.33,15.46,-26.13,-1.00
15141.00,-8.96,0.51,-4.53,-0.10,-1.53,0.48,-65.33,15.46,-26.13,-1.00
15153.00,-8.96,0.51,-4.53,-0.10,-1.53,0.48,-65.33,15.46,-26.13,-1.00
15165.00,-9.00,0.53,-4.49,-0.20,-1.36,0.41,-65.33,15.46,-26.13,-1.00
15179.00,-9.06,-0.63,-4.08,-0.23,-1.32,0.39,-65.33,15.46,-26.13,-1.00
15191.00,-9.06,-0.63,-4.08,-0.23,-1.32,0.39,-65.33,15.46,-26.13,-1.00
15203.00,-9.33,-0.04,-4.34,-0.50,-1.36,0.36,-63.97,12.12,-25.49,-1.00
15218.00,-8.84,-1.03,-4.66,-0.70,-1.36,0.38,-63.97,12.12,-25.49,-1.00
15229.00,-8.84,-1.03,-4.66,-0.70,-1.36,0.38,-63.97,12.12,-25.49,-1.00
15241.00,-8.63,-0.59,-4.76,-0.91,-1.36,0.64,-63.97,12.12,-25.49,-1.00
15253.00,-8.63,-0.59,-4.76,-0.91,-1.36,0.64,-63.97,12.12,-25.49,-1.00
15267.00,-8.91,0.18,-5.22,-1.04,-1.45,0.78,-63.97,12.12,-25.49,-1.00
15279.00,-8.95,0.11,-4.81,-1.07,-1.56,0.73,-63.97,12.12,-25.49,-1.00
15291.00,-8.95,0.11,-4.81,-1.07,-1.56,0.73,-63.97,12.12,-25.49,-1.00
15303.00,-8.80,0.00,-4.49,-1.06,-1.54,0.73,-63.97,12.12,-25.49,-1.00
15317.00,-8.71,-0.13,-4.87,-1.02,-1.53,0.71,-63.97,12.12,-25.49,-1.00
15329.00,-8.71,-0.13,-4.87,-1.02,-1.53,0.71,-63.97,12.12,-25.49,-1.00
15341.00,-10.04,0.01,-3.56,-1.01,-1.54,0.73,-68.73,10.15,-25.01,-1.00
15355.00,-9.06,-0.78,-4.42,-1.05,-1.39,0.77,-68.73,10.15,-25.01,-1.00
15367.00,-9.06,-0.78,-4.42,-1.05,-1.39,0.77,-68.73,10.15,-25.01,-1.00
15379.00,-8.92,-1.33,-4.88,-1.11,-1.44,0.97,-68.73,10.15,-25.01,-1.00
15391.00,-8.92,-1.33,-4.88,-1.11,-1.44,0.97,-68.73,10.15,-25.01,-1.00
15406.00,-8.04,-2.01,-6.24,-1.22,-1.74,1.66,-68.73,10.15,-25.01,-1.00
15417.00,-8.52,1.67,-5.21,-1.80,-2.45,2.56,-68.73,10.15,-25.01,-1.00
15429.00,-8.52,1.67,-5.21,-1.80,-2.45,2.56,-68.73,10.15,-25.01,-1.00
15443.00,-9.49,3.53,-2.90,-2.21,-2.73,2.41,-68.73,10.15,-25.01,-1.00
15455.00,-9.36,1.24,-3.08,-1.97,-2.20,1.76,-68.05,15.77,-21.34,-1.00
15467.00,-9.36,1.24,-3.08,-1.97,-2.20,1.76,-68.05,15.77,-21.34,-1.00
15479.00,-9.64,1.72,-2.50,-1.68,-1.75,1.39,-68.05,15.77,-21.34,-1.00
15493.00,-9.64,1.72,-2.50,-1.68,-1.75,1.39,-68.05,15.77,-21.34,-1.00
15505.00,-9.29,1.34,-0.97,-1.04,-1.11,0.97,-68.05,15.77,-21.34,-1.00
15517.00,-10.37,3.80,-1.14,-0.62,-0.04,0.40,-68.05,15.77,-21.34,-1.00
15529.00,-10.37,3.80,-1.14,-0.62,-0.04,0.40,-68.05,15.77,-21.34,-1.00
15543.00,-11.69,2.51,-2.48,-0.42,0.84,-0.98,-68.05,15.77,-21.34,-1.00
15555.00,-10.64,-3.47,-3.40,0.18,0.76,-1.16,-68.05,15.77,-21.34,-1.00
15567.00,-10.64,-3.47,-3.40,0.18,0.76,-1.16,-68.05,15.77,-21.34,-1.00
15581.00,-6.29,-0.16,-7.25,-0.57,0.11,-0.58,-64.42,11.52,-27.41,-1.00
15593.00,-6.29,-0.16,-7.25,-0.57,0.11,-0.58,-64.42,11.52,-27.41,-1.00
15605.00,-4.02,-1.41,-10.57,-0.88,-1.06,-0.41,-64.42,11.52,-27.41,-1.00
15617.00,-6.16,0.19,-9.26,-1.19,-2.14,0.27,-64.42,11.52,-27.41,-1.00
15631.00,-6.16,0.19,-9.26,-1.19,-2.14,0.27,-64.42,11.52,-27.41,-1.00
15643.00,-12.02,0.05,-1.30,-1.09,-2.38,0.66,-64.42,11.52,-27.41,-1.00
15655.00,-9.50,-3.31,-0.04,-1.11,-1.60,0.69,-64.42,11.52,-27.41,-1.00
15667.00,-9.50,-3.31,-0.04,-1.11,-1.60,0.69,-64.42,11.52,-27.41,-1.00
15682.00,-9.78,-1.65,-3.46,-1.60,-1.23,1.08,-64.42,11.52,-27.41,-1.00
15693.00,-9.78,-1.65,-3.46,-1.60,-1.23,1.08,-64.42,11.52,-27.41,-1.00
15706.00,-11.13,1.12,-3.46,-1.85,-1.00,1.21,-66.24,9.70,-25.49,-1.00
15719.00,-7.79,-0.61,-5.88,-1.80,-0.72,1.01,-66.24,9.70,-25.49,-1.00
15731.00,-7.79,-0.61,-5.88,-1.80,-0.72,1.01,-66.24,9.70,-25.49,-1.00
15743.00,-7.15,0.96,-6.97,-1.80,-1.01,1.08,-66.24,9.70,-25.49,-1.00
15755.00,-7.73,0.71,-6.52,-1.57,-1.35,1.02,-66.24,9.70,-25.49,-1.00
15769.00,-7.73,0.71,-6.52,-1.57,-1.35,1.02,-66.24,9.70,-25.49,-1.00
15781.00,-8.34,0.49,-5.70,-1.35,-1.54,0.97,-66.24,9.70,-25.49,-1.00
15793.00,-8.34,0.49,-5.70,-1.35,-1.54,0.97,-66.24,9.70,-25.49,-1.00
15805.00,-8.56,-0.25,-4.90,-1.23,-1.61,0.92,-66.24,9.70,-25.49,-1.00
15819.00,-8.72,-0.36,-4.61,-1.21,-1.58,0.97,-66.24,9.70,-25.49,-1.00
15831.00,-8.72,-0.36,-4.61,-1.21,-1.58,0.97,-66.24,9.70,-25.49,-1.00
15843.00,-9.14,1.13,-4.71,-1.28,-1.54,0.95,-64.88,12.73,-26.45,-1.00
15858.00,-8.62,0.59,-5.20,-1.25,-1.51,0.74,-64.88,12.73,-26.45,-1.00
15870.00,-8.62,0.59,-5.20,-1.25,-1.51,0.74,-64.88,12.73,-26.45,-1.00
15882.00,-8.22,0.51,-5.59,-1.18,-1.59,0.64,-64.88,12.73,-26.45,-1.00
15894.00,-8.22,0.51,-5.59,-1.18,-1.59,0.64,-64.88,12.73,-26.45,-1.00
15908.00,-10.60,0.13,-2.72,-1.13,-1.73,0.62,-64.88,12.73,-26.45,-1.00
15920.00,-9.26,-0.26,-3.61,-1.23,-1.53,0.68,-64.88,12.73,-26.45,-1.00
15932.00,-9.26,-0.26,-3.61,-1.23,-1.53,0.68,-64.88,12.73,-26.45,-1.00
15946.00,-8.91,-1.59,-4.58,-1.40,-1.50,0.91,-64.88,12.73,-26.45,-1.00
15958.00,-9.08,0.08,-4.35,-1.56,-1.70,1.46,-67.60,11.82,-23.58,-1.00
15970.00,-9.08,0.08,-4.35,-1.56,-1.70,1.46,-67.60,11.82,-23.58,-1.00
15982.00,-9.84,2.70,-3.67,-1.61,-1.70,1.50,-67.60,11.82,-23.58,-1.00
15996.00,-9.09,1.78,-5.09,-1.29,-1.42,0.86,-67.60,11.82,-23.58,-1.00
16008.00,-9.09,1.78,-5.09,-1.29,-1.42,0.86,-67.60,11.82,-23.58,-1.00
16020.00,-8.83,1.09,-4.19,-1.09,-1.36,0.43,-67.60,11.82,-23.58,-1.00
16032.00,-8.83,1.09,-4.19,-1.09,-1.36,0.43,-67.60,11.82,-23.58,-1.00
16046.00,-8.76,0.02,-3.66,-0.93,-1.11,0.27,-67.60,11.82,-23.58,-1.00
16058.00,-9.42,-0.29,-3.64,-1.07,-0.86,0.24,-67.60,11.82,-23.58,-1.00
16070.00,-9.42,-0.29,-3.64,-1.07,-0.86,0.24,-67.60,11.82,-23.58,-1.00
16084.00,-8.72,-0.79,-5.69,-1.29,-0.80,0.39,-68.05,11.52,-23.58,-1.00
16096.00,-9.92,0.07,-3.41,-1.45,-1.16,0.80,-68.05,11.52,-23.58,-1.00
16108.00,-9.92,0.07,-3.41,-1.45,-1.16,0.80,-68.05,11.52,-23.58,-1.00
16120.00,-8.61,-0.04,-4.81,-1.48,-1.11,0.85,-68.05,11.52,-23.58,-1.00
16135.00,-8.61,-0.04,-4.81,-1.48,-1.11,0.85,-68.05,11.52,-23.58,-1.00
16222.00,-8.98,0.09,-4.95,-1.48,-1.70,1.18,-66.69,11.82,-23.26,-1.00
16310.00,-9.44,2.28,-3.32,-1.09,-1.07,0.65,-66.69,11.82,-23.26,-1.00
16396.00,-9.07,1.38,-4.57,-1.51,-1.63,1.23,-67.82,11.67,-22.46,-1.00
16410.00,-9.07,1.38,-4.57,-1.51,-1.63,1.23,-67.82,11.67,-22.46,-1.00
16422.00,-9.14,0.96,-3.90,-1.31,-1.51,1.04,-67.82,11.67,-22.46,-1.00
16434.00,-9.14,0.96,-3.90,-1.31,-1.51,1.04,-67.82,11.67,-22.46,-1.00
16448.00,-9.05,0.02,-4.16,-1.17,-1.33,0.81,-67.82,11.67,-22.46,-1.00
16460.00,-9.72,2.12,-3.69,-1.21,-1.21,0.60,-67.37,13.19,-21.18,-1.00
16472.00,-9.72,2.12,-3.69,-1.21,-1.21,0.60,-67.37,13.19,-21.18,-1.00
16484.00,-9.32,0.96,-3.38,-1.15,-1.08,0.13,-67.37,13.19,-21.18,-1.00
16498.00,-8.45,-1.68,-5.70,-1.13,-1.07,-0.11,-67.37,13.19,-21.18,-1.00
16510.00,-8.45,-1.68,-5.70,-1.13,-1.07,-0.11,-67.37,13.19,-21.18,-1.00
16522.00,-9.28,-0.46,-5.38,-1.33,-1.41,0.59,-67.37,13.19,-21.18,-1.00
16534.00,-9.28,-0.46,-5.38,-1.33,-1.41,0.59,-67.37,13.19,-21.18,-1.00
16548.00,-9.14,-0.79,-3.28,-1.49,-1.74,1.30,-67.37,13.19,-21.18,-1.00
16560.00,-9.60,1.15,-3.31,-1.58,-1.59,1.56,-67.37,13.19,-21.18,-1.00
16572.00,-9.60,1.15,-3.31,-1.58,-1.59,1.56,-67.37,13.19,-21.18,-1.00
16587.00,-11.42,1.94,-1.57,-1.48,-1.31,1.31,-71.22,12.43,-20.38,-1.00
16598.00,-12.28,-0.35,1.43,-1.59,-0.57,0.88,-71.22,12.43,-20.38,-1.00
16610.00,-12.28,-0.35,1.43,-1.59,-0.57,0.88,-71.22,12.43,-20.38,-1.00
16622.00,-8.73,1.10,-3.62,-2.00,0.40,0.91,-71.22,12.43,-20.38,-1.00
16636.00,-7.64,2.92,-7.12,-2.37,-0.04,0.44,-71.22,12.43,-20.38,-1.00
16648.00,-7.64,2.92,-7.12,-2.37,-0.04,0.44,-71.22,12.43,-20.38,-1.00
16660.00,-6.06,0.89,-8.06,-1.82,-0.66,-0.02,-71.22,12.43,-20.38,-1.00
16674.00,-6.06,0.89,-8.06,-1.82,-0.66,-0.02,-71.22,12.43,-20.38,-1.00
16686.00,-5.83,-0.24,-7.55,-1.19,-1.18,0.23,-71.22,12.43,-20.38,-1.00
16698.00,-6.94,0.61,-7.12,-0.74,-1.46,0.76,-65.56,14.71,-23.42,-1.00
16710.00,-6.94,0.61,-7.12,-0.74,-1.46,0.76,-65.56,14.71,-23.42,-1.00
16724.00,-7.10,1.48,-8.19,-0.47,-1.44,1.09,-65.56,14.71,-23.42,-1.00
16736.00,-9.21,1.72,-5.09,-0.37,-1.67,1.03,-65.56,14.71,-23.42,-1.00
16748.00,-9.21,1.72,-5.09,-0.37,-1.67,1.03,-65.56,14.71,-23.42,-1.00
16760.00,-9.49,0.14,-3.50,-0.30,-1.56,0.87,-65.56,14.71,-23.42,-1.00
16774.00,-9.49,0.14,-3.50,-0.30,-1.56,0.87,-65.56,14.71,-23.42,-1.00
16786.00,-9.65,0.03,-3.41,-0.47,-1.41,0.82,-65.56,14.71,-23.42,-1.00
16798.00,-9.58,-0.17,-4.01,-0.73,-1.39,0.73,-65.56,14.71,-23.42,-1.00
16812.00,-9.58,-0.17,-4.01,-0.73,-1.39,0.73,-65.56,14.71,-23.42,-1.00
16824.00,-9.46,0.19,-4.10,-0.98,-1.44,0.67,-65.56,14.71,-23.42,-1.00
16836.00,-8.58,0.18,-5.10,-1.02,-1.36,0.67,-67.37,11.97,-25.01,-1.00
16848.00,-8.58,0.18,-5.10,-1.02,-1.36,0.67,-67.37,11.97,-25.01,-1.00
16863.00,-8.27,0.42,-5.63,-1.01,-1.42,0.73,-67.37,11.97,-25.01,-1.00
16874.00,-8.27,0.42,-5.63,-1.01,-1.42,0.73,-67.37,11.97,-25.01,-1.00
16887.00,-8.11,0.10,-5.55,-0.98,-1.65,0.71,-67.37,11.97,-25.01,-1.00
16899.00,-10.67,0.41,-2.52,-0.96,-1.76,0.73,-67.37,11.97,-25.01,-1.00
16913.00,-10.67,0.41,-2.52,-0.96,-1.76,0.73,-67.37,11.97,-25.01,-1.00
16925.00,-9.21,-0.96,-3.69,-1.04,-1.48,0.74,-67.37,11.97,-25.01,-1.00
16937.00,-8.84,-1.83,-5.66,-1.30,-1.60,1.05,-67.37,11.97,-25.01,-1.00
16951.00,-8.84,-1.83,-5.66,-1.30,-1.60,1.05,-67.37,11.97,-25.01,-1.00
16963.00,-8.41,-1.63,-5.13,-1.63,-2.09,1.82,-68.05,11.52,-23.90,-1.00
16975.00,-8.41,-1.63,-5.13,-1.63,-2.09,1.82,-68.05,11.52,-23.90,-1.00
16987.00,-8.95,2.65,-2.94,-2.12,-2.47,2.45,-68.05,11.52,-23.90,-1.00
17001.00,-8.66,1.19,-3.47,-2.03,-2.18,2.08,-68.05,11.52,-23.90,-1.00
17013.00,-8.66,1.19,-3.47,-2.03,-2.18,2.08,-68.05,11.52,-23.90,-1.00
17025.00,-9.64,2.29,-2.96,-1.92,-1.88,1.75,-68.05,11.52,-23.90,-1.00
17040.00,-9.47,1.50,-3.09,-1.52,-1.49,1.29,-68.05,11.52,-23.90,-1.00
17127.00,-9.10,-0.10,-6.25,0.13,-0.11,-1.46,-68.50,16.07,-19.74,-1.00
17217.00,-8.93,0.35,-3.84,-1.13,-1.31,1.32,-67.14,12.73,-21.98,-1.00
17303.00,-9.16,0.16,-3.93,-1.62,-0.81,0.45,-67.14,12.73,-21.98,-1.00
17318.00,-8.30,-0.18,-5.44,-1.75,-0.94,0.47,-67.14,12.73,-21.98,-1.00
17329.00,-8.30,-0.18,-5.44,-1.75,-0.94,0.47,-67.14,12.73,-21.98,-1.00
17341.00,-7.21,0.58,-7.02,-1.87,-1.18,0.47,-67.14,13.64,-23.58,-1.00
17353.00,-7.21,0.58,-7.02,-1.87,-1.18,0.47,-67.14,13.64,-23.58,-1.00
17367.00,-7.05,0.83,-7.08,-1.66,-1.51,0.53,-67.14,13.64,-23.58,-1.00
17379.00,-7.78,0.57,-6.20,-1.29,-1.77,0.69,-67.14,13.64,-23.58,-1.00
17391.00,-7.78,0.57,-6.20,-1.29,-1.77,0.69,-67.14,13.64,-23.58,-1.00
17405.00,-11.77,-0.05,-3.84,-1.10,-1.93,0.76,-67.14,13.64,-23.58,-1.00
17417.00,-9.31,-0.83,-3.04,-1.12,-1.53,0.83,-67.14,13.64,-23.58,-1.00
17429.00,-9.31,-0.83,-3.04,-1.12,-1.53,0.83,-67.14,13.64,-23.58,-1.00
17441.00,-8.91,0.33,-4.41,-1.18,-1.33,1.00,-67.14,13.64,-23.58,-1.00
17455.00,-8.91,0.33,-4.41,-1.18,-1.33,1.00,-67.14,13.64,-23.58,-1.00
17467.00,-9.39,1.38,-4.46,-1.15,-1.33,1.22,-66.92,13.79,-21.82,-1.00
17479.00,-9.28,0.28,-4.04,-1.08,-1.31,1.13,-66.92,13.79,-21.82,-1.00
17491.00,-9.28,0.28,-4.04,-1.08,-1.31,1.13,-66.92,13.79,-21.82,-1.00
17506.00,-9.45,0.51,-4.17,-1.12,-1.31,1.14,-66.92,13.79,-21.82,-1.00
17517.00,-9.71,1.31,-3.38,-1.22,-1.44,1.19,-66.92,13.79,-21.82,-1.00
17529.00,-9.71,1.31,-3.38,-1.22,-1.44,1.19,-66.92,13.79,-21.82,-1.00
17543.00,-8.85,0.79,-4.86,-1.28,-1.50,1.07,-66.92,13.79,-21.82,-1.00
17555.00,-8.85,0.79,-4.86,-1.28,-1.50,1.07,-66.92,13.79,-21.82,-1.00
17567.00,-8.39,1.41,-5.13,-1.33,-1.57,1.03,-66.92,13.79,-21.82,-1.00
17579.00,-8.77,1.44,-5.13,-1.14,-1.50,0.93,-67.37,15.31,-21.82,-1.00
17593.00,-8.77,1.44,-5.13,-1.14,-1.50,0.93,-67.37,15.31,-21.82,-1.00
17605.00,-9.01,0.04,-3.49,-0.77,-1.34,0.89,-67.37,15.31,-21.82,-1.00
17617.00,-9.69,0.77,-3.21,-0.87,-1.10,0.84,-67.37,15.31,-21.82,-1.00
17629.00,-9.69,0.77,-3.21,-0.87,-1.10,0.84,-67.37,15.31,-21.82,-1.00
17643.00,-10.41,1.43,-1.46,-1.17,-0.82,0.41,-67.37,15.31,-21.82,-1.00
17655.00,-10.41,1.43,-1.46,-1.17,-0.82,0.41,-67.37,15.31,-21.82,-1.00
17667.00,-12.61,-3.67,-0.99,-1.31,-0.30,-0.13,-67.37,15.31,-21.82,-1.00
17681.00,-10.55,-1.07,-1.15,-2.07,0.22,0.40,-67.37,15.31,-21.82,-1.00
17693.00,-10.55,-1.07,-1.15,-2.07,0.22,0.40,-67.37,15.31,-21.82,-1.00
17705.00,-9.09,-1.39,-3.09,-2.58,0.61,0.75,-67.37,15.31,-21.82,-1.00
17717.00,-7.37,-0.19,-5.76,-2.81,0.67,1.05,-63.74,13.49,-25.33,-1.00
17731.00,-7.37,-0.19,-5.76,-2.81,0.67,1.05,-63.74,13.49,-25.33,-1.00
17743.00,-5.44,4.29,-11.06,-2.88,0.19,1.05,-63.74,13.49,-25.33,-1.00
17755.00,-5.44,4.29,-11.06,-2.88,0.19,1.05,-63.74,13.49,-25.33,-1.00
17767.00,-3.74,4.12,-12.39,-2.09,-1.19,0.62,-63.74,13.49,-25.33,-1.00
17782.00,-6.17,0.09,-6.53,-0.83,-2.55,0.51,-63.74,13.49,-25.33,-1.00
17793.00,-6.17,0.09,-6.53,-0.83,-2.55,0.51,-63.74,13.49,-25.33,-1.00
17805.00,-7.57,2.61,-7.31,-0.41,-2.68,1.05,-63.74,13.49,-25.33,-1.00
17819.00,-7.82,2.52,-5.38,-0.03,-2.66,1.22,-63.74,13.49,-25.33,-1.00
17831.00,-7.82,2.52,-5.38,-0.03,-2.66,1.22,-63.74,13.49,-25.33,-1.00
17843.00,-8.35,1.64,-4.51,0.26,-2.29,1.27,-65.56,15.92,-24.37,-1.00
17855.00,-8.35,1.64,-4.51,0.26,-2.29,1.27,-65.56,15.92,-24.37,-1.00
17869.00,-8.68,2.64,-5.83,0.17,-1.94,1.21,-65.56,15.92,-24.37,-1.00
17881.00,-9.83,1.60,-3.39,0.10,-1.89,0.86,-65.56,15.92,-24.37,-1.00
17893.00,-9.83,1.60,-3.39,0.10,-1.89,0.86,-65.56,15.92,-24.37,-1.00
17905.00,-9.18,0.74,-4.11,-0.09,-1.58,0.56,-65.56,15.92,-24.37,-1.00
17919.00,-9.49,-0.79,-2.74,-0.15,-1.48,0.51,-65.56,15.92,-24.37,-1.00
17931.00,-9.49,-0.79,-2.74,-0.15,-1.48,0.51,-65.56,15.92,-24.37,-1.00
17943.00,-10.28,-1.51,-2.36,-0.44,-1.33,0.66,-65.56,15.92,-24.37,-1.00
17958.00,-9.77,-0.57,-2.94,-0.97,-1.13,0.77,-65.56,12.58,-24.37,-1.00
17969.00,-9.77,-0.57,-2.94,-0.97,-1.13,0.77,-65.56,12.58,-24.37,-1.00
17981.00,-8.36,0.67,-6.02,-1.26,-0.97,0.79,-65.56,12.58,-24.37,-1.00
17993.00,-8.36,0.67,-6.02,-1.26,-0.97,0.79,-65.56,12.58,-24.37,-1.00
18007.00,-7.90,0.71,-6.11,-1.12,-1.09,0.79,-65.56,12.58,-24.37,-1.00
18019.00,-8.45,0.15,-5.54,-1.01,-1.30,0.79,-65.56,12.58,-24.37,-1.00
18031.00,-8.45,0.15,-5.54,-1.01,-1.30,0.79,-65.56,12.58,-24.37,-1.00
18045.00,-9.42,0.42,-4.38,-1.07,-1.49,0.83,-65.56,12.58,-24.37,-1.00
18057.00,-9.57,-0.24,-3.58,-1.16,-1.46,0.80,-65.56,12.58,-24.37,-1.00
18069.00,-9.57,-0.24,-3.58,-1.16,-1.46,0.80,-65.56,12.58,-24.37,-1.00
18081.00,-9.31,0.26,-4.09,-1.34,-1.32,0.85,-64.20,12.88,-25.01,-1.00
18095.00,-9.31,0.26,-4.09,-1.34,-1.32,0.85,-64.20,12.88,-25.01,-1.00
18107.00,-8.60,0.73,-5.38,-1.38,-1.25,0.85,-64.20,12.88,-25.01,-1.00
18119.00,-8.64,0.84,-5.43,-1.37,-1.38,0.80,-64.20,12.88,-25.01,-1.00
18131.00,-8.64,0.84,-5.43,-1.37,-1.38,0.80,-64.20,12.88,-25.01,-1.00
18145.00,-8.19,0.30,-5.54,-1.37,-1.52,0.74,-64.20,12.88,-25.01,-1.00
18157.00,-8.25,0.75,-5.32,-1.35,-1.68,0.76,-64.20,12.88,-25.01,-1.00
18169.00,-8.25,0.75,-5.32,-1.35,-1.68,0.76,-64.20,12.88,-25.01,-1.00
18183.00,-9.42,0.88,-4.41,-1.32,-1.60,0.69,-64.20,12.88,-25.01,-1.00
18195.00,-9.42,0.88,-4.41,-1.32,-1.60,0.69,-64.20,12.88,-25.01,-1.00
18207.00,-9.00,0.76,-3.88,-1.28,-1.39,0.58,-64.20,12.88,-25.01,-1.00
18219.00,-8.63,0.09,-5.19,-1.15,-1.31,0.57,-68.28,13.19,-23.42,-1.00
18234.00,-8.63,0.09,-5.19,-1.15,-1.31,0.57,-68.28,13.19,-23.42,-1.00
18245.00,-9.11,0.36,-3.57,-1.15,-1.45,0.76,-68.28,13.19,-23.42,-1.00
18257.00,-8.82,-1.02,-4.39,-1.21,-1.22,0.96,-68.28,13.19,-23.42,-1.00
18269.00,-8.82,-1.02,-4.39,-1.21,-1.22,0.96,-68.28,13.19,-23.42,-1.00
18283.00,-8.97,-0.93,-4.31,-1.31,-1.35,1.53,-68.28,13.19,-23.42,-1.00
18295.00,-8.97,-0.93,-4.31,-1.31,-1.35,1.53,-68.28,13.19,-23.42,-1.00
18307.00,-9.95,2.19,-3.45,-1.61,-1.61,1.78,-68.28,13.19,-23.42,-1.00
18321.00,-9.12,1.45,-4.40,-1.47,-1.52,1.22,-68.28,13.19,-23.42,-1.00
18333.00,-9.12,1.45,-4.40,-1.47,-1.52,1.22,-68.28,13.19,-23.42,-1.00
18345.00,-9.30,2.78,-4.95,-1.40,-1.40,0.75,-66.46,14.40,-22.14,-1.00
18357.00,-8.42,1.98,-5.26,-1.16,-1.26,0.18,-66.46,14.40,-22.14,-1.00
18371.00,-8.42,1.98,-5.26,-1.16,-1.26,0.18,-66.46,14.40,-22.14,-1.00
18383.00,-8.75,0.56,-4.10,-0.76,-1.06,0.10,-66.46,14.40,-22.14,-1.00
18395.00,-8.75,0.56,-4.10,-0.76,-1.06,0.10,-66.46,14.40,-22.14,-1.00
18407.00,-9.24,-0.77,-3.94,-0.81,-0.92,0.31,-66.46,14.40,-22.14,-1.00
18421.00,-9.62,-0.39,-2.79,-1.23,-1.00,0.68,-66.46,14.40,-22.14,-1.00
18433.00,-9.62,-0.39,-2.79,-1.23,-1.00,0.68,-66.46,14.40,-22.14,-1.00
18445.00,-10.10,-1.00,-4.21,-1.43,-0.93,0.89,-66.46,14.40,-22.14,-1.00
18459.00,-9.64,1.39,-4.36,-1.69,-1.02,0.94,-65.56,12.88,-24.37,-1.00
18471.00,-9.64,1.39,-4.36,-1.69,-1.02,0.94,-65.56,12.88,-24.37,-1.00
18483.00,-7.97,0.32,-5.87,-1.61,-1.01,0.71,-65.56,12.88,-24.37,-1.00
18495.00,-7.97,0.32,-5.87,-1.61,-1.01,0.71,-65.56,12.88,-24.37,-1.00
18509.00,-7.73,0.92,-6.43,-1.52,-1.18,0.77,-65.56,12.88,-24.37,-1.00
18521.00,-7.84,0.95,-6.02,-1.32,-1.38,0.84,-65.56,12.88,-24.37,-1.00
18533.00,-7.84,0.95,-6.02,-1.32,-1.38,0.84,-65.56,12.88,-24.37,-1.00
18547.00,-8.67,0.57,-4.73,-1.19,-1.54,0.86,-65.56,12.88,-24.37,-1.00
18559.00,-9.03,0.68,-4.33,-1.17,-1.53,0.86,-65.56,12.88,-24.37,-1.00
18571.00,-9.03,0.68,-4.33,-1.17,-1.53,0.86,-65.56,12.88,-24.37,-1.00
18583.00,-8.84,0.87,-4.74,-1.19,-1.51,0.77,-65.78,11.82,-23.58,-1.00
18597.00,-10.57,0.32,-4.19,-1.19,-1.60,0.62,-65.78,11.82,-23.58,-1.00
18609.00,-10.57,0.32,-4.19,-1.19,-1.60,0.62,-65.78,11.82,-23.58,-1.00
18621.00,-9.26,0.32,-3.68,-1.22,-1.51,0.66,-65.78,11.82,-23.58,-1.00
18633.00,-9.26,0.32,-3.68,-1.22,-1.51,0.66,-65.78,11.82,-23.58,-1.00
18647.00,-8.99,0.03,-4.40,-1.25,-1.56,0.75,-65.78,11.82,-23.58,-1.00
18659.00,-8.81,-0.48,-4.64,-1.35,-1.70,0.96,-65.78,11.82,-23.58,-1.00
18671.00,-8.81,-0.48,-4.64,-1.35,-1.70,0.96,-65.78,11.82,-23.58,-1.00
18685.00,-8.65,0.02,-3.61,-1.42,-1.87,1.40,-65.78,11.82,-23.58,-1.00
18773.00,-9.41,-0.02,-3.18,-1.18,-1.25,0.25,-68.96,15.46,-21.02,-1.00
18861.00,-8.00,0.51,-5.76,-1.98,-0.71,0.86,-66.69,13.64,-22.62,-1.00
18949.00,-7.95,0.28,-5.20,-1.03,-1.55,1.09,-66.69,13.64,-22.62,-1.00
18963.00,-9.96,1.68,-4.11,-0.92,-1.59,1.11,-66.69,16.07,-23.26,-1.00
18976.00,-9.96,1.68,-4.11,-0.92,-1.59,1.11,-66.69,16.07,-23.26,-1.00
18988.00,-9.37,0.85,-3.82,-0.87,-1.46,0.92,-66.69,16.07,-23.26,-1.00
19000.00,-8.66,0.93,-4.91,-1.00,-1.43,0.86,-66.69,16.07,-23.26,-1.00
19014.00,-8.66,0.93,-4.91,-1.00,-1.43,0.86,-66.69,16.07,-23.26,-1.00
19026.00,-8.38,0.88,-5.56,-1.07,-1.62,0.82,-66.69,16.07,-23.26,-1.00
19038.00,-11.76,1.20,-1.56,-1.14,-1.83,0.80,-66.69,16.07,-23.26,-1.00
19052.00,-11.76,1.20,-1.56,-1.14,-1.83,0.80,-66.69,16.07,-23.26,-1.00
19064.00,-9.50,-0.13,-2.71,-1.20,-1.56,0.67,-66.69,16.07,-23.26,-1.00
19076.00,-9.50,-0.13,-2.71,-1.20,-1.56,0.67,-66.69,16.07,-23.26,-1.00
19088.00,-9.53,0.99,-4.01,-1.34,-1.45,0.63,-67.37,14.71,-19.90,-1.00
19103.00,-8.87,1.31,-4.35,-1.26,-1.48,0.45,-67.37,14.71,-19.90,-1.00
19114.00,-8.87,1.31,-4.35,-1.26,-1.48,0.45,-67.37,14.71,-19.90,-1.00
19126.00,-8.50,0.65,-4.85,-1.08,-1.40,0.34,-67.37,14.71,-19.90,-1.00
19138.00,-8.77,0.18,-3.59,-0.91,-1.36,0.55,-67.37,14.71,-19.90,-1.00
19152.00,-8.77,0.18,-3.59,-0.91,-1.36,0.55,-67.37,14.71,-19.90,-1.00
19164.00,-8.65,-0.66,-4.70,-1.00,-1.20,0.83,-67.37,14.71,-19.90,-1.00
19176.00,-8.65,-0.66,-4.70,-1.00,-1.20,0.83,-67.37,14.71,-19.90,-1.00
19190.00,-8.70,-0.67,-5.61,-1.22,-1.31,1.36,-67.37,14.71,-19.90,-1.00
19202.00,-10.13,1.01,-2.87,-1.54,-1.70,1.67,-67.37,14.71,-19.90,-1.00
19214.00,-10.13,1.01,-2.87,-1.54,-1.70,1.67,-67.37,14.71,-19.90,-1.00
19226.00,-9.79,1.35,-3.40,-1.55,-1.69,1.39,-69.41,15.16,-21.34,-1.00
19240.00,-9.46,2.23,-3.21,-1.53,-1.52,0.98,-69.41,15.16,-21.34,-1.00
19252.00,-9.46,2.23,-3.21,-1.53,-1.52,0.98,-69.41,15.16,-21.34,-1.00
19264.00,-8.88,2.42,-5.26,-1.37,-1.06,0.43,-69.41,15.16,-21.34,-1.00
19278.00,-8.50,0.58,-4.81,-1.18,-1.05,0.05,-69.41,15.16,-21.34,-1.00
19290.00,-8.50,0.58,-4.81,-1.18,-1.05,0.05,-69.41,15.16,-21.34,-1.00
19302.00,-9.15,0.97,-4.22,-1.14,-1.08,0.10,-69.41,15.16,-21.34,-1.00
19314.00,-9.15,0.97,-4.22,-1.14,-1.08,0.10,-69.41,15.16,-21.34,-1.00
19328.00,-8.87,-0.19,-4.57,-1.14,-1.21,0.30,-69.41,15.16,-21.34,-1.00
19340.00,-9.17,0.77,-4.87,-1.24,-1.43,0.67,-68.50,15.46,-19.74,-1.00
19352.00,-9.17,0.77,-4.87,-1.24,-1.43,0.67,-68.50,15.46,-19.74,-1.00
19364.00,-9.02,-0.10,-4.41,-1.22,-1.71,0.94,-68.50,15.46,-19.74,-1.00
19378.00,-9.34,1.04,-3.49,-1.27,-1.78,1.27,-68.50,15.46,-19.74,-1.00
19390.00,-9.34,1.04,-3.49,-1.27,-1.78,1.27,-68.50,15.46,-19.74,-1.00
19402.00,-9.31,0.71,-3.85,-1.18,-1.51,1.18,-68.50,15.46,-19.74,-1.00
19416.00,-9.31,0.71,-3.85,-1.18,-1.51,1.18,-68.50,15.46,-19.74,-1.00
19428.00,-9.16,0.38,-4.09,-1.19,-1.36,0.97,-68.50,15.46,-19.74,-1.00
19440.00,-9.38,1.54,-4.41,-1.40,-1.44,0.89,-68.50,15.46,-19.74,-1.00
19452.00,-9.38,1.54,-4.41,-1.40,-1.44,0.89,-68.50,15.46,-19.74,-1.00
19466.00,-9.98,1.71,-2.60,-1.65,-1.56,0.63,-69.64,16.22,-18.94,-1.00
19478.00,-9.56,-0.37,-1.97,-1.83,-1.37,0.37,-69.64,16.22,-18.94,-1.00
19490.00,-9.56,-0.37,-1.97,-1.83,-1.37,0.37,-69.64,16.22,-18.94,-1.00
19502.00,-10.11,1.13,-0.80,-2.05,-1.13,0.43,-69.64,16.22,-18.94,-1.00
19516.00,-10.11,1.13,-0.80,-2.05,-1.13,0.43,-69.64,16.22,-18.94,-1.00
19528.00,-13.57,-2.39,1.02,-2.02,-0.61,0.32,-69.64,16.22,-18.94,-1.00
19540.00,-10.69,0.25,0.95,-2.63,0.02,0.73,-69.64,16.22,-18.94,-1.00
19555.00,-10.69,0.25,0.95,-2.63,0.02,0.73,-69.64,16.22,-18.94,-1.00
19567.00,-7.89,1.81,-5.54,-2.92,0.49,0.51,-69.64,16.22,-18.94,-1.00
19579.00,-6.20,1.77,-7.54,-2.53,0.04,0.36,-66.24,17.29,-24.85,-1.00
19591.00,-6.20,1.77,-7.54,-2.53,0.04,0.36,-66.24,17.29,-24.85,-1.00
19605.00,-5.33,1.66,-8.50,-1.81,-0.49,0.57,-66.24,17.29,-24.85,-1.00
19692.00,-9.49,2.08,-5.02,0.36,-1.73,1.28,-66.24,17.29,-24.85,-1.00
19782.00,-8.48,0.17,-5.29,-0.76,-1.43,0.15,-66.69,15.16,-24.53,-1.00
19869.00,-8.96,-0.83,-3.81,-1.36,-1.23,0.70,-65.10,11.97,-24.69,-1.00
19884.00,-8.24,-0.59,-5.17,-1.47,-1.13,0.92,-65.10,11.97,-24.69,-1.00
19895.00,-8.24,-0.59,-5.17,-1.47,-1.13,0.92,-65.10,11.97,-24.69,-1.00
19907.00,-8.65,-0.06,-5.26,-1.42,-1.16,1.21,-65.10,11.97,-24.69,-1.00
19921.00,-8.66,0.18,-4.82,-1.28,-1.16,1.41,-65.10,11.97,-24.69,-1.00
19933.00,-8.66,0.18,-4.82,-1.28,-1.16,1.41,-65.10,11.97,-24.69,-1.00
19945.00,-8.05,-0.60,-5.39,-1.14,-1.16,1.60,-65.10,11.97,-24.69,-1.00
19957.00,-8.05,-0.60,-5.39,-1.14,-1.16,1.60,-65.10,11.97,-24.69,-1.00
19971.00,-8.53,0.59,-5.89,-1.08,-1.30,2.03,-65.10,15.62,-25.33,-1.00
19983.00,-10.60,4.66,-4.11,-0.96,-1.46,2.01,-65.10,15.62,-25.33,-1.00
19995.00,-10.60,4.66,-4.11,-0.96,-1.46,2.01,-65.10,15.62,-25.33,-1.00
20007.00,-9.32,2.43,-4.58,-0.85,-1.36,1.08,-65.10,15.62,-25.33,-1.00
20021.00,-8.04,1.70,-5.68,-1.02,-1.23,0.60,-65.10,15.62,-25.33,-1.00
20033.00,-8.04,1.70,-5.68,-1.02,-1.23,0.60,-65.10,15.62,-25.33,-1.00
20045.00,-8.47,2.94,-6.26,-1.13,-1.24,0.52,-65.10,15.62,-25.33,-1.00
20060.00,-8.67,2.14,-4.84,-1.13,-1.43,0.23,-65.10,15.62,-25.33,-1.00
20071.00,-8.67,2.14,-4.84,-1.13,-1.43,0.23,-65.10,15.62,-25.33,-1.00
20083.00,-9.23,1.27,-4.76,-1.15,-1.54,-0.06,-64.65,14.10,-24.06,-1.00
20095.00,-9.23,1.27,-4.76,-1.15,-1.54,-0.06,-64.65,14.10,-24.06,-1.00
20109.00,-9.14,-0.35,-4.24,-1.06,-1.53,-0.22,-64.65,14.10,-24.06,-1.00
20121.00,-8.69,-1.13,-3.92,-0.92,-1.36,-0.08,-64.65,14.10,-24.06,-1.00
20133.00,-8.69,-1.13,-3.92,-0.92,-1.36,-0.08,-64.65,14.10,-24.06,-1.00
20147.00,-7.68,-1.92,-4.54,-0.91,-1.16,0.24,-64.65,14.10,-24.06,-1.00
20159.00,-8.78,-0.00,-4.93,-0.97,-1.10,0.58,-64.65,14.10,-24.06,-1.00
20171.00,-8.78,-0.00,-4.93,-0.97,-1.10,0.58,-64.65,14.10,-24.06,-1.00
20183.00,-9.00,0.39,-4.90,-0.96,-1.08,0.57,-64.65,14.10,-24.06,-1.00
20197.00,-9.00,0.39,-4.90,-0.96,-1.08,0.57,-64.65,14.10,-24.06,-1.00
20209.00,-7.80,-0.48,-5.56,-0.84,-1.01,0.58,-64.65,14.10,-24.06,-1.00
20221.00,-7.76,-0.13,-5.75,-0.84,-1.18,0.80,-65.78,10.61,-26.45,-1.00
20233.00,-7.76,-0.13,-5.75,-0.84,-1.18,0.80,-65.78,10.61,-26.45,-1.00
20247.00,-9.29,0.51,-5.29,-0.93,-1.45,0.85,-65.78,10.61,-26.45,-1.00
20259.00,-9.13,0.09,-4.71,-1.01,-1.52,0.74,-65.78,10.61,-26.45,-1.00
20271.00,-9.13,0.09,-4.71,-1.01,-1.52,0.74,-65.78,10.61,-26.45,-1.00
20285.00,-8.93,-0.15,-4.62,-1.03,-1.46,0.70,-65.78,10.61,-26.45,-1.00
20297.00,-8.93,-0.15,-4.62,-1.03,-1.46,0.70,-65.78,10.61,-26.45,-1.00
20309.00,-9.35,-0.01,-4.59,-1.08,-1.41,0.67,-65.78,10.61,-26.45,-1.00
20321.00,-8.80,-0.28,-4.88,-1.16,-1.40,0.57,-65.78,10.61,-26.45,-1.00
20337.00,-8.80,-0.28,-4.88,-1.16,-1.40,0.57,-65.78,10.61,-26.45,-1.00
20348.00,-7.85,0.78,-6.23,-1.21,-1.51,0.49,-66.69,10.91,-24.53,-1.00
20362.00,-9.79,0.02,-3.78,-1.02,-1.63,0.39,-66.69,10.91,-24.53,-1.00
20375.00,-9.79,0.02,-3.78,-1.02,-1.63,0.39,-66.69,10.91,-24.53,-1.00
20387.00,-9.03,-0.79,-4.28,-0.99,-1.37,0.43,-66.69,10.91,-24.53,-1.00
20399.00,-9.18,0.66,-4.67,-1.11,-1.34,0.56,-66.69,10.91,-24.53,-1.00
20411.00,-9.18,0.66,-4.67,-1.11,-1.34,0.56,-66.69,10.91,-24.53,-1.00
20425.00,-8.47,-3.83,-6.55,-1.15,-1.46,0.65,-66.69,10.91,-24.53,-1.00
20437.00,-8.47,-3.83,-6.55,-1.15,-1.46,0.65,-66.69,10.91,-24.53,-1.00
20449.00,-7.57,-5.12,-4.34,-1.30,-1.94,1.89,-66.69,10.91,-24.53,-1.00
20461.00,-8.39,-1.30,-1.97,-2.32,-2.19,3.32,-68.73,10.46,-23.74,-1.00
20475.00,-8.39,-1.30,-1.97,-2.32,-2.19,3.32,-68.73,10.46,-23.74,-1.00
20487.00,-10.50,4.88,-2.61,-2.92,-1.86,3.01,-68.73,10.46,-23.74,-1.00
20499.00,-9.61,2.78,-4.46,-2.13,-1.53,1.42,-68.73,10.46,-23.74,-1.00
20514.00,-9.61,2.78,-4.46,-2.13,-1.53,1.42,-68.73,10.46,-23.74,-1.00
20526.00,-9.49,4.76,-3.58,-1.76,-1.34,0.46,-68.73,10.46,-23.74,-1.00
20538.00,-9.49,4.76,-3.58,-1.76,-1.34,0.46,-68.73,10.46,-23.74,-1.00
20550.00,-8.39,1.76,-3.62,-0.97,-0.72,-0.38,-68.73,10.46,-23.74,-1.00
20564.00,-8.88,-0.84,-4.81,-0.52,-0.38,-0.32,-68.73,10.46,-23.74,-1.00
20576.00,-8.88,-0.84,-4.81,-0.52,-0.38,-0.32,-68.73,10.46,-23.74,-1.00
20588.00,-8.16,-0.15,-5.31,-0.55,-0.39,0.11,-68.73,10.46,-23.74,-1.00
20600.00,-7.86,-1.04,-5.37,-0.57,-0.56,0.49,-65.10,12.28,-24.37,-1.00
20614.00,-7.86,-1.04,-5.37,-0.57,-0.56,0.49,-65.10,12.28,-24.37,-1.00
20626.00,-8.47,0.42,-6.09,-0.76,-0.88,0.89,-65.10,12.28,-24.37,-1.00
20638.00,-8.47,0.42,-6.09,-0.76,-0.88,0.89,-65.10,12.28,-24.37,-1.00
20652.00,-7.66,0.08,-6.83,-0.89,-1.32,0.87,-65.10,12.28,-24.37,-1.00
20664.00,-9.64,-0.39,-4.70,-1.11,-1.56,0.73,-65.10,12.28,-24.37,-1.00
20676.00,-9.64,-0.39,-4.70,-1.11,-1.56,0.73,-65.10,12.28,-24.37,-1.00
20688.00,-9.88,0.29,-3.64,-1.38,-1.48,0.55,-65.10,12.28,-24.37,-1.00
20702.00,-9.17,0.23,-4.87,-1.59,-1.52,0.31,-65.10,12.28,-24.37,-1.00
20714.00,-9.17,0.23,-4.87,-1.59,-1.52,0.31,-65.10,12.28,-24.37,-1.00
20726.00,-8.56,0.49,-5.07,-1.60,-1.49,0.31,-67.82,11.97,-23.42,-1.00
20740.00,-8.37,0.10,-4.95,-1.51,-1.46,0.47,-67.82,11.97,-23.42,-1.00
20752.00,-8.37,0.10,-4.95,-1.51,-1.46,0.47,-67.82,11.97,-23.42,-1.00
20764.00,-8.68,-0.01,-5.03,-1.38,-1.41,0.63,-67.82,11.97,-23.42,-1.00
20776.00,-8.68,-0.01,-5.03,-1.38,-1.41,0.63,-67.82,11.97,-23.42,-1.00
20790.00,-8.88,-0.04,-4.52,-1.26,-1.35,0.74,-67.82,11.97,-23.42,-1.00
20802.00,-8.96,0.34,-4.80,-1.20,-1.30,0.77,-67.82,11.97,-23.42,-1.00
20814.00,-8.96,0.34,-4.80,-1.20,-1.30,0.77,-67.82,11.97,-23.42,-1.00
20826.00,-8.87,0.01,-4.93,-1.13,-1.32,0.73,-67.82,11.97,-23.42,-1.00
20840.00,-8.62,-0.92,-4.82,-1.14,-1.43,0.76,-66.92,11.67,-22.78,-1.00
20852.00,-8.62,-0.92,-4.82,-1.14,-1.43,0.76,-66.92,11.67,-22.78,-1.00
20864.00,-9.46,0.28,-4.30,-1.29,-1.55,0.96,-66.92,11.67,-22.78,-1.00
20878.00,-9.46,0.28,-4.30,-1.29,-1.55,0.96,-66.92,11.67,-22.78,-1.00
20890.00,-7.82,-3.88,-7.13,-1.20,-1.58,1.19,-66.92,11.67,-22.78,-1.00
20902.00,-8.46,0.47,-4.21,-1.67,-2.25,2.22,-66.92,11.67,-22.78,-1.00
20914.00,-8.46,0.47,-4.21,-1.67,-2.25,2.22,-66.92,11.67,-22.78,-1.00
20929.00,-9.61,3.02,-2.88,-1.93,-2.28,2.32,-66.92,11.67,-22.78,-1.00
20940.00,-9.07,1.63,-2.81,-1.64,-1.83,1.65,-66.92,11.67,-22.78,-1.00
20952.00,-9.07,1.63,-2.81,-1.64,-1.83,1.65,-66.92,11.67,-22.78,-1.00
20964.00,-9.28,1.08,-4.05,-1.25,-1.35,1.10,-70.32,15.46,-21.34,-1.00
20978.00,-9.28,1.08,-4.05,-1.25,-1.35,1.10,-70.32,15.46,-21.34,-1.00
20990.00,-10.19,4.07,-1.75,-1.09,-1.13,0.65,-70.32,15.46,-21.34,-1.00
21002.00,-9.27,1.35,-4.69,-0.84,-0.65,-0.22,-70.32,15.46,-21.34,-1.00
21016.00,-9.27,1.35,-4.69,-0.84,-0.65,-0.22,-70.32,15.46,-21.34,-1.00
21028.00,-9.56,2.06,-4.16,-0.86,-0.68,-0.81,-70.32,15.46,-21.34,-1.00
21040.00,-7.42,-4.94,-6.34,-0.74,-0.83,-0.82,-70.32,15.46,-21.34,-1.00
21052.00,-7.42,-4.94,-6.34,-0.74,-0.83,-0.82,-70.32,15.46,-21.34,-1.00
21066.00,-8.37,-3.65,-5.67,-1.62,-1.51,0.76,-70.32,15.46,-21.34,-1.00
21078.00,-8.37,-3.65,-5.67,-1.62,-1.51,0.76,-70.32,15.46,-21.34,-1.00
21090.00,-8.60,-0.36,-4.33,-2.07,-1.93,2.08,-70.32,15.46,-21.34,-1.00
21104.00,-8.81,2.31,-4.50,-2.25,-1.99,2.41,-70.09,13.49,-21.18,-1.00
21116.00,-8.81,2.31,-4.50,-2.25,-1.99,2.41,-70.09,13.49,-21.18,-1.00
21128.00,-10.01,3.44,-3.25,-1.94,-1.84,1.90,-70.09,13.49,-21.18,-1.00
21140.00,-11.45,2.87,-1.33,-1.78,-1.43,1.06,-70.09,13.49,-21.18,-1.00
21154.00,-11.45,2.87,-1.33,-1.78,-1.43,1.06,-70.09,13.49,-21.18,-1.00
21166.00,-9.88,-0.07,-1.22,-1.56,-0.69,0.38,-70.09,13.49,-21.18,-1.00
21178.00,-9.88,-0.07,-1.22,-1.56,-0.69,0.38,-70.09,13.49,-21.18,-1.00
21190.00,-8.63,1.92,-4.52,-1.46,-0.20,0.25,-70.09,13.49,-21.18,-1.00
21205.00,-7.58,1.91,-7.43,-1.21,-0.21,0.05,-70.09,13.49,-21.18,-1.00
21293.00,-9.12,0.37,-4.33,-0.98,-1.55,0.96,-67.82,16.83,-21.50,-1.00
21381.00,-8.59,1.21,-4.73,-1.14,-1.50,0.27,-67.37,15.31,-22.46,-1.00
21395.00,-8.59,1.21,-4.73,-1.14,-1.50,0.27,-67.37,15.31,-22.46,-1.00
21406.00,-8.66,-0.11,-3.86,-0.87,-1.36,0.27,-67.37,15.31,-22.46,-1.00
21418.00,-8.66,-0.11,-3.86,-0.87,-1.36,0.27,-67.37,15.31,-22.46,-1.00
21430.00,-8.76,-1.90,-3.48,-0.87,-1.24,0.56,-67.37,15.31,-22.46,-1.00
21444.00,-8.86,-1.99,-5.17,-1.23,-1.30,1.22,-67.37,15.31,-22.46,-1.00
21456.00,-8.86,-1.99,-5.17,-1.23,-1.30,1.22,-67.37,15.31,-22.46,-1.00
21468.00,-9.61,1.25,-3.31,-1.71,-1.71,1.86,-69.18,15.92,-21.18,-1.00
21480.00,-10.62,3.79,-3.14,-1.86,-1.72,1.52,-69.18,15.92,-21.18,-1.00
21494.00,-10.62,3.79,-3.14,-1.86,-1.72,1.52,-69.18,15.92,-21.18,-1.00
21506.00,-13.19,4.22,-0.12,-1.64,-1.38,0.49,-69.18,15.92,-21.18,-1.00
21518.00,-13.19,4.22,-0.12,-1.64,-1.38,0.49,-69.18,15.92,-21.18,-1.00
21532.00,-10.59,-3.44,-0.22,-1.44,-0.25,-0.24,-69.18,15.92,-21.18,-1.00
21544.00,-9.30,0.87,-2.90,-2.22,0.27,0.23,-69.18,15.92,-21.18,-1.00
21556.00,-9.30,0.87,-2.90,-2.22,0.27,0.23,-69.18,15.92,-21.18,-1.00
21568.00,-7.00,0.95,-7.40,-2.16,0.07,0.14,-69.18,15.92,-21.18,-1.00
21582.00,-5.54,0.68,-8.00,-1.78,-0.61,0.24,-69.18,15.92,-21.18,-1.00
21594.00,-5.54,0.68,-8.00,-1.78,-0.61,0.24,-69.18,15.92,-21.18,-1.00
21606.00,-5.45,0.23,-7.26,-1.38,-1.22,0.59,-66.24,14.25,-22.94,-1.00
21618.00,-5.45,0.23,-7.26,-1.38,-1.22,0.59,-66.24,14.25,-22.94,-1.00
21632.00,-6.38,2.66,-9.28,-1.02,-1.35,1.13,-66.24,14.25,-22.94,-1.00
21644.00,-7.27,4.02,-8.84,-0.58,-1.55,1.11,-66.24,14.25,-22.94,-1.00
21656.00,-7.27,4.02,-8.84,-0.58,-1.55,1.11,-66.24,14.25,-22.94,-1.00
21671.00,-8.91,0.09,-4.13,-0.05,-1.78,0.69,-66.24,14.25,-22.94,-1.00
21682.00,-10.44,-0.05,-2.46,-0.19,-1.60,0.54,-66.24,14.25,-22.94,-1.00
21694.00,-10.44,-0.05,-2.46,-0.19,-1.60,0.54,-66.24,14.25,-22.94,-1.00
21706.00,-10.44,-0.62,-2.02,-0.49,-1.38,0.29,-66.24,14.25,-22.94,-1.00
21720.00,-9.62,-0.79,-3.22,-0.76,-1.20,0.21,-67.60,11.52,-23.90,-1.00
21732.00,-9.62,-0.79,-3.22,-0.76,-1.20,0.21,-67.60,11.52,-23.90,-1.00
21744.00,-8.84,0.74,-5.45,-0.97,-1.13,0.30,-67.60,11.52,-23.90,-1.00
21758.00,-8.84,0.74,-5.45,-0.97,-1.13,0.30,-67.60,11.52,-23.90,-1.00
21770.00,-7.75,0.36,-6.55,-0.88,-1.33,0.34,-67.60,11.52,-23.90,-1.00
21782.00,-7.99,-0.49,-5.72,-0.83,-1.68,0.43,-67.60,11.52,-23.90,-1.00
21794.00,-7.99,-0.49,-5.72,-0.83,-1.68,0.43,-67.60,11.52,-23.90,-1.00
21808.00,-10.95,-0.26,-2.06,-0.85,-1.80,0.54,-67.60,11.52,-23.90,-1.00
21820.00,-9.23,-1.59,-3.41,-1.00,-1.55,0.61,-67.60,11.52,-23.90,-1.00
21832.00,-9.23,-1.59,-3.41,-1.00,-1.55,0.61,-67.60,11.52,-23.90,-1.00
21844.00,-8.37,-5.32,-6.01,-1.36,-1.70,1.10,-68.50,10.00,-21.98,-1.00
21858.00,-8.37,-5.32,-6.01,-1.36,-1.70,1.10,-68.50,10.00,-21.98,-1.00
21870.00,-7.93,-1.56,-3.58,-2.02,-2.42,2.46,-68.50,10.00,-21.98,-1.00
21882.00,-9.48,3.30,-1.84,-2.51,-2.45,2.88,-68.50,10.00,-21.98,-1.00
21896.00,-9.48,3.30,-1.84,-2.51,-2.45,2.88,-68.50,10.00,-21.98,-1.00
21908.00,-9.46,2.43,-2.50,-1.96,-1.83,2.10,-68.50,10.00,-21.98,-1.00
21920.00,-9.46,2.43,-2.50,-1.96,-1.83,2.10,-68.50,10.00,-21.98,-1.00
21932.00,-10.40,4.00,-2.14,-1.66,-1.29,1.49,-68.50,10.00,-21.98,-1.00
21946.00,-10.58,2.22,-4.34,-1.32,-0.62,0.44,-68.50,10.00,-21.98,-1.00
21958.00,-10.58,2.22,-4.34,-1.32,-0.62,0.44,-68.50,10.00,-21.98,-1.00
21970.00,-8.62,1.56,-3.82,-1.29,-0.68,0.04,-69.86,14.86,-20.38,-1.00
21984.00,-7.93,-0.15,-5.97,-1.23,-0.78,-0.03,-69.86,14.86,-20.38,-1.00
21997.00,-7.93,-0.15,-5.97,-1.23,-0.78,-0.03,-69.86,14.86,-20.38,-1.00
22008.00,-7.78,1.15,-5.89,-1.23,-1.10,0.20,-69.86,14.86,-20.38,-1.00
22020.00,-7.78,1.15,-5.89,-1.23,-1.10,0.20,-69.86,14.86,-20.38,-1.00
22034.00,-7.64,0.81,-6.30,-1.13,-1.41,0.29,-69.86,14.86,-20.38,-1.00
22046.00,-11.40,-0.41,-2.13,-1.00,-1.71,0.34,-69.86,14.86,-20.38,-1.00
22058.00,-11.40,-0.41,-2.13,-1.00,-1.71,0.34,-69.86,14.86,-20.38,-1.00
22070.00,-9.15,-1.38,-2.78,-0.92,-1.36,0.40,-69.86,14.86,-20.38,-1.00
22084.00,-8.87,-0.79,-4.02,-0.97,-1.33,0.73,-69.86,14.86,-20.38,-1.00
22096.00,-8.87,-0.79,-4.02,-0.97,-1.33,0.73,-69.86,14.86,-20.38,-1.00
22108.00,-9.02,0.30,-4.58,-1.18,-1.35,1.14,-70.32,12.43,-21.02,-1.00
22123.00,-8.67,-1.02,-4.99,-1.29,-1.45,1.51,-70.32,12.43,-21.02,-1.00
22134.00,-8.67,-1.02,-4.99,-1.29,-1.45,1.51,-70.32,12.43,-21.02,-1.00
22146.00,-9.77,1.60,-2.70,-1.68,-1.74,1.76,-70.32,12.43,-21.02,-1.00
22158.00,-9.77,1.60,-2.70,-1.68,-1.74,1.76,-70.32,12.43,-21.02,-1.00
22172.00,-9.52,1.85,-3.78,-1.52,-1.58,1.33,-70.32,12.43,-21.02,-1.00
22184.00,-9.50,2.87,-4.46,-1.36,-1.40,0.86,-70.32,12.43,-21.02,-1.00
22196.00,-9.50,2.87,-4.46,-1.36,-1.40,0.86,-70.32,12.43,-21.02,-1.00
22208.00,-8.91,1.64,-4.04,-1.13,-1.23,0.28,-70.32,12.43,-21.02,-1.00
22222.00,-8.94,1.41,-4.10,-0.99,-1.04,0.03,-70.09,15.31,-20.22,-1.00
22234.00,-8.94,1.41,-4.10,-0.99,-1.04,0.03,-70.09,15.31,-20.22,-1.00
22246.00,-8.53,-2.21,-5.22,-0.84,-0.99,0.05,-70.09,15.31,-20.22,-1.00
22260.00,-8.53,-2.21,-5.22,-0.84,-0.99,0.05,-70.09,15.31,-20.22,-1.00
22272.00,-9.18,-1.84,-4.61,-1.26,-1.38,0.79,-70.09,15.31,-20.22,-1.00
22284.00,-9.52,0.74,-3.12,-1.62,-1.74,1.65,-70.09,15.31,-20.22,-1.00
22296.00,-9.52,0.74,-3.12,-1.62,-1.74,1.65,-70.09,15.31,-20.22,-1.00
22311.00,-10.13,3.06,-3.63,-1.76,-1.72,1.65,-70.09,15.31,-20.22,-1.00
22322.00,-10.89,3.78,-2.23,-1.59,-1.54,0.91,-70.09,15.31,-20.22,-1.00
22334.00,-10.89,3.78,-2.23,-1.59,-1.54,0.91,-70.09,15.31,-20.22,-1.00
22348.00,-11.46,-2.29,0.52,-1.57,-1.06,0.15,-70.09,15.01,-19.58,-1.00
22360.00,-11.46,-2.29,0.52,-1.57,-1.06,0.15,-70.09,15.01,-19.58,-1.00
22372.00,-8.38,2.21,-5.07,-2.14,-0.41,0.38,-70.09,15.01,-19.58,-1.00
22384.00,-8.85,0.71,-3.19,-2.08,-0.67,-0.04,-70.09,15.01,-19.58,-1.00
22398.00,-8.85,0.71,-3.19,-2.08,-0.67,-0.04,-70.09,15.01,-19.58,-1.00
22410.00,-6.95,1.02,-6.91,-1.70,-0.49,-0.02,-70.09,15.01,-19.58,-1.00
22422.00,-6.00,-0.37,-7.53,-1.31,-0.76,0.14,-70.09,15.01,-19.58,-1.00
22434.00,-6.00,-0.37,-7.53,-1.31,-0.76,0.14,-70.09,15.01,-19.58,-1.00
22448.00,-6.23,-0.03,-7.74,-0.95,-1.11,0.67,-70.09,15.01,-19.58,-1.00
22460.00,-6.23,-0.03,-7.74,-0.95,-1.11,0.67,-70.09,15.01,-19.58,-1.00
22472.00,-10.47,1.71,-3.82,-0.79,-1.52,0.96,-69.18,14.10,-21.50,-1.00
22486.00,-9.36,-0.23,-3.51,-0.72,-1.42,0.79,-69.18,14.10,-21.50,-1.00
22498.00,-9.36,-0.23,-3.51,-0.72,-1.42,0.79,-69.18,14.10,-21.50,-1.00
22510.00,-9.38,-0.02,-3.80,-0.87,-1.41,0.87,-69.18,14.10,-21.50,-1.00
22522.00,-8.55,0.88,-5.04,-0.97,-1.43,0.98,-69.18,14.10,-21.50,-1.00
22536.00,-8.55,0.88,-5.04,-0.97,-1.43,0.98,-69.18,14.10,-21.50,-1.00
22548.00,-8.85,1.88,-5.89,-1.00,-1.71,0.88,-69.18,14.10,-21.50,-1.00
22560.00,-8.85,1.88,-5.89,-1.00,-1.71,0.88,-69.18,14.10,-21.50,-1.00
22572.00,-10.42,1.32,-3.54,-1.01,-1.78,0.58,-69.18,14.10,-21.50,-1.00
22587.00,-9.74,-0.96,-2.86,-1.12,-1.51,0.32,-69.18,14.10,-21.50,-1.00
22598.00,-9.74,-0.96,-2.86,-1.12,-1.51,0.32,-69.18,14.10,-21.50,-1.00
22610.00,-8.90,-0.55,-4.32,-1.44,-1.46,0.43,-68.73,11.67,-20.22,-1.00
22624.00,-8.63,0.86,-5.18,-1.46,-1.47,0.80,-68.73,11.67,-20.22,-1.00
22636.00,-8.63,0.86,-5.18,-1.46,-1.47,0.80,-68.73,11.67,-20.22,-1.00
22648.00,-7.59,-1.65,-5.78,-1.25,-1.61,1.21,-68.73,11.67,-20.22,-1.00
22660.00,-7.59,-1.65,-5.78,-1.25,-1.61,1.21,-68.73,11.67,-20.22,-1.00
22674.00,-8.86,1.17,-3.65,-1.40,-1.94,2.03,-68.73,11.67,-20.22,-1.00
22686.00,-9.75,2.03,-2.40,-1.46,-1.87,1.96,-68.73,11.67,-20.22,-1.00
22698.00,-9.75,2.03,-2.40,-1.46,-1.87,1.96,-68.73,11.67,-20.22,-1.00
22712.00,-9.75,0.76,-2.67,-1.34,-1.57,1.42,-68.73,11.67,-20.22,-1.00
22724.00,-9.96,1.30,-3.49,-1.49,-1.45,1.02,-71.45,15.92,-17.67,-1.00
22736.00,-9.96,1.30,-3.49,-1.49,-1.45,1.02,-71.45,15.92,-17.67,-1.00
22748.00,-10.12,1.83,-2.17,-1.55,-1.44,0.58,-71.45,15.92,-17.67,-1.00
22763.00,-9.44,0.18,-1.88,-1.51,-1.19,0.19,-71.45,15.92,-17.67,-1.00
22774.00,-9.44,0.18,-1.88,-1.51,-1.19,0.19,-71.45,15.92,-17.67,-1.00
22786.00,-9.60,0.94,-4.76,-1.49,-0.66,0.20,-71.45,15.92,-17.67,-1.00
22798.00,-9.60,0.94,-4.76,-1.49,-0.66,0.20,-71.45,15.92,-17.67,-1.00
22812.00,-8.58,1.09,-4.12,-1.46,-0.60,0.58,-71.45,15.92,-17.67,-1.00
22824.00,-7.87,0.40,-5.29,-1.28,-0.58,0.82,-71.45,15.92,-17.67,-1.00
22836.00,-7.87,0.40,-5.29,-1.28,-0.58,0.82,-71.45,15.92,-17.67,-1.00
22850.00,-8.36,1.48,-5.47,-1.09,-0.74,0.98,-70.77,16.37,-20.06,-1.00
22862.00,-8.43,1.49,-5.79,-0.96,-0.94,0.99,-70.77,16.37,-20.06,-1.00
22874.00,-8.43,1.49,-5.79,-0.96,-0.94,0.99,-70.77,16.37,-20.06,-1.00
22886.00,-8.45,1.37,-5.37,-0.95,-1.28,0.92,-70.77,16.37,-20.06,-1.00
22900.00,-8.45,1.37,-5.37,-0.95,-1.28,0.92,-70.77,16.37,-20.06,-1.00
22912.00,-8.74,1.26,-5.04,-0.98,-1.67,0.78,-70.77,16.37,-20.06,-1.00
22924.00,-10.36,0.99,-3.18,-1.15,-1.72,0.62,-70.77,16.37,-20.06,-1.00
22936.00,-10.36,0.99,-3.18,-1.15,-1.72,0.62,-70.77,16.37,-20.06,-1.00
22950.00,-10.08,0.22,-2.58,-1.40,-1.54,0.46,-70.77,16.37,-20.06,-1.00
22962.00,-9.30,0.48,-3.19,-1.67,-1.50,0.42,-70.77,16.37,-20.06,-1.00
22974.00,-9.30,0.48,-3.19,-1.67,-1.50,0.42,-70.77,16.37,-20.06,-1.00
22988.00,-9.30,1.43,-4.47,-1.64,-1.35,0.48,-71.45,14.71,-18.62,-1.00
23000.00,-9.30,1.43,-4.47,-1.64,-1.35,0.48,-71.45,14.71,-18.62,-1.00
23012.00,-11.02,1.07,-2.23,-1.53,-1.10,0.58,-71.45,14.71,-18.62,-1.00
23024.00,-8.06,-0.61,-4.13,-1.48,-0.70,0.63,-71.45,14.71,-18.62,-1.00
23038.00,-8.06,-0.61,-4.13,-1.48,-0.70,0.63,-71.45,14.71,-18.62,-1.00
23050.00,-8.09,1.45,-5.58,-1.44,-0.76,0.86,-71.45,14.71,-18.62,-1.00
23062.00,-8.11,2.11,-6.38,-1.28,-1.04,0.85,-71.45,14.71,-18.62,-1.00
23074.00,-8.11,2.11,-6.38,-1.28,-1.04,0.85,-71.45,14.71,-18.62,-1.00
23088.00,-8.26,0.60,-5.25,-1.10,-1.37,0.73,-71.45,14.71,-18.62,-1.00
23100.00,-8.26,0.60,-5.25,-1.10,-1.37,0.73,-71.45,14.71,-18.62,-1.00
23112.00,-8.50,-0.41,-4.06,-1.04,-1.52,0.79,-68.50,15.46,-19.74,-1.00
23126.00,-9.24,0.36,-3.72,-1.12,-1.57,0.89,-68.50,15.46,-19.74,-1.00
23138.00,-9.24,0.36,-3.72,-1.12,-1.57,0.89,-68.50,15.46,-19.74,-1.00
23150.00,-8.49,0.95,-4.87,-1.18,-1.57,0.84,-68.50,15.46,-19.74,-1.00
23164.00,-12.67,1.15,-4.19,-1.13,-1.74,0.78,-68.50,15.46,-19.74,-1.00
23177.00,-12.67,1.15,-4.19,-1.13,-1.74,0.78,-68.50,15.46,-19.74,-1.00
23189.00,-9.68,0.34,-2.52,-1.12,-1.56,0.69,-68.50,15.46,-19.74,-1.00
23201.00,-9.68,0.34,-2.52,-1.12,-1.56,0.69,-68.50,15.46,-19.74,-1.00
23215.00,-9.19,-0.65,-4.42,-1.22,-1.46,0.75,-68.50,15.46,-19.74,-1.00
23227.00,-9.03,0.25,-4.15,-1.49,-1.72,1.18,-70.32,14.25,-19.10,-1.00
23239.00,-9.03,0.25,-4.15,-1.49,-1.72,1.18,-70.32,14.25,-19.10,-1.00
23251.00,-9.76,1.25,-2.72,-1.65,-1.94,1.32,-70.32,14.25,-19.10,-1.00
23265.00,-9.33,1.42,-3.33,-1.53,-1.68,1.04,-70.32,14.25,-19.10,-1.00
23277.00,-9.33,1.42,-3.33,-1.53,-1.68,1.04,-70.32,14.25,-19.10,-1.00
23289.00,-9.64,2.39,-3.64,-1.35,-1.49,0.71,-70.32,14.25,-19.10,-1.00
23301.00,-9.64,2.39,-3.64,-1.35,-1.49,0.71,-70.32,14.25,-19.10,-1.00
23316.00,-9.39,1.58,-2.17,-1.05,-1.32,0.21,-70.32,14.25,-19.10,-1.00
23328.00,-8.85,0.19,-3.69,-0.73,-0.95,-0.04,-70.32,14.25,-19.10,-1.00
23340.00,-8.85,0.19,-3.69,-0.73,-0.95,-0.04,-70.32,14.25,-19.10,-1.00
23354.00,-8.90,-0.17,-5.13,-0.71,-1.02,0.31,-73.04,13.64,-17.83,-1.00
23366.00,-10.31,1.55,-3.90,-1.02,-1.57,0.95,-73.04,13.64,-17.83,-1.00
23378.00,-10.31,1.55,-3.90,-1.02,-1.57,0.95,-73.04,13.64,-17.83,-1.00
23390.00,-8.78,-0.98,-5.20,-1.20,-2.14,1.31,-73.04,13.64,-17.83,-1.00
23404.00,-8.73,1.25,-3.94,-1.83,-2.66,1.72,-73.04,13.64,-17.83,-1.00
23416.00,-8.73,1.25,-3.94,-1.83,-2.66,1.72,-73.04,13.64,-17.83,-1.00
23428.00,-9.00,0.74,-2.02,-2.16,-2.63,1.74,-73.04,13.64,-17.83,-1.00
23440.00,-9.00,0.74,-2.02,-2.16,-2.63,1.74,-73.04,13.64,-17.83,-1.00
23454.00,-8.91,2.64,-2.44,-1.69,-2.32,1.83,-73.04,13.64,-17.83,-1.00
23543.00,-11.65,-3.12,-4.84,-0.34,1.64,-0.63,-71.90,18.04,-12.55,-1.00
23630.00,-4.08,3.62,-11.25,-1.97,-1.01,-0.19,-67.60,15.46,-23.58,-1.00
23645.00,-5.92,-2.19,-4.57,-1.02,-2.19,-0.21,-67.60,15.46,-23.58,-1.00
23656.00,-5.92,-2.19,-4.57,-1.02,-2.19,-0.21,-67.60,15.46,-23.58,-1.00
23668.00,-5.80,-1.00,-5.73,-1.05,-2.11,0.62,-67.60,15.46,-23.58,-1.00
23680.00,-5.80,-1.00,-5.73,-1.05,-2.11,0.62,-67.60,15.46,-23.58,-1.00
23694.00,-7.78,1.64,-6.46,-1.12,-1.89,1.34,-67.60,15.46,-23.58,-1.00
23706.00,-8.72,5.65,-8.83,-0.90,-1.68,1.48,-67.60,15.46,-23.58,-1.00
23718.00,-8.72,5.65,-8.83,-0.90,-1.68,1.48,-67.60,15.46,-23.58,-1.00
23732.00,-8.21,0.39,-4.50,-0.17,-1.90,0.90,-68.28,15.92,-20.54,-1.00
23744.00,-10.91,0.28,-2.81,-0.28,-1.99,0.76,-68.28,15.92,-20.54,-1.00
23756.00,-10.91,0.28,-2.81,-0.28,-1.99,0.76,-68.28,15.92,-20.54,-1.00
23768.00,-11.55,-1.02,-0.19,-0.71,-1.92,0.59,-68.28,15.92,-20.54,-1.00
23782.00,-9.71,-1.20,-2.32,-1.07,-1.43,0.76,-68.28,15.92,-20.54,-1.00
23794.00,-9.71,-1.20,-2.32,-1.07,-1.43,0.76,-68.28,15.92,-20.54,-1.00
23806.00,-9.77,1.01,-3.97,-1.41,-1.24,0.97,-68.28,15.92,-20.54,-1.00
23818.00,-9.77,1.01,-3.97,-1.41,-1.24,0.97,-68.28,15.92,-20.54,-1.00
23832.00,-8.37,1.03,-5.46,-1.47,-1.27,0.88,-68.28,15.92,-20.54,-1.00
23844.00,-7.76,1.37,-6.33,-1.43,-1.56,0.85,-70.09,15.01,-20.22,-1.00
23856.00,-7.76,1.37,-6.33,-1.43,-1.56,0.85,-70.09,15.01,-20.22,-1.00
23870.00,-8.22,1.64,-5.56,-1.29,-1.89,0.77,-70.09,15.01,-20.22,-1.00
23882.00,-9.99,1.31,-3.27,-1.13,-1.75,0.63,-70.09,15.01,-20.22,-1.00
23894.00,-9.99,1.31,-3.27,-1.13,-1.75,0.63,-70.09,15.01,-20.22,-1.00
23906.00,-9.09,-0.37,-3.06,-1.01,-1.36,0.60,-70.09,15.01,-20.22,-1.00
23921.00,-9.09,-0.37,-3.06,-1.01,-1.36,0.60,-70.09,15.01,-20.22,-1.00
23932.00,-8.93,-0.18,-3.34,-1.02,-1.21,0.87,-70.09,15.01,-20.22,-1.00
23944.00,-9.19,-0.12,-4.22,-1.12,-1.12,1.20,-70.09,15.01,-20.22,-1.00
23956.00,-9.19,-0.12,-4.22,-1.12,-1.12,1.20,-70.09,15.01,-20.22,-1.00
23970.00,-9.32,-0.51,-4.72,-1.38,-1.40,1.52,-70.09,15.01,-20.22,-1.00
23982.00,-10.18,1.89,-2.11,-1.70,-1.82,1.72,-70.09,15.01,-20.22,-1.00
23994.00,-10.18,1.89,-2.11,-1.70,-1.82,1.72,-68.96,16.07,-18.78,-1.00
24008.00,-9.61,2.93,-3.88,-1.64,-1.68,1.23,-68.96,16.07,-18.78,-1.00
24020.00,-9.61,2.93,-3.88,-1.64,-1.68,1.23,-68.96,16.07,-18.78,-1.00
24032.00,-9.72,3.70,-3.34,-1.32,-1.44,0.60,-68.96,16.07,-18.78,-1.00
24044.00,-9.03,1.72,-3.61,-0.89,-1.09,-0.18,-68.96,16.07,-18.78,-1.00
24058.00,-9.03,1.72,-3.61,-0.89,-1.09,-0.18,-68.96,16.07,-18.78,-1.00
24070.00,-8.90,2.13,-3.29,-0.53,-0.82,-0.50,-68.96,16.07,-18.78,-1.00
24082.00,-8.90,2.13,-3.29,-0.53,-0.82,-0.50,-68.96,16.07,-18.78,-1.00
24097.00,-8.45,-0.31,-3.72,-0.03,-0.44,-0.74,-68.96,16.07,-18.78,-1.00
24108.00,-9.47,-1.48,-5.40,-0.07,-0.43,-0.50,-70.09,11.97,-20.22,-1.00
24120.00,-9.47,-1.48,-5.40,-0.07,-0.43,-0.50,-70.09,11.97,-20.22,-1.00
24132.00,-9.34,-2.88,-2.99,-0.90,-1.11,0.26,-70.09,11.97,-20.22,-1.00
24146.00,-8.60,-5.62,-5.61,-1.94,-1.59,1.27,-70.09,11.97,-20.22,-1.00
24158.00,-8.60,-5.62,-5.61,-1.94,-1.59,1.27,-70.09,11.97,-20.22,-1.00
24170.00,-9.12,-0.33,-3.46,-2.72,-2.33,2.54,-70.09,11.97,-20.22,-1.00
24182.00,-9.12,-0.33,-3.46,-2.72,-2.33,2.54,-70.09,11.97,-20.22,-1.00
24196.00,-9.57,2.58,-1.66,-2.73,-2.37,2.65,-70.09,11.97,-20.22,-1.00
24208.00,-9.98,4.19,-2.81,-2.19,-1.89,1.98,-70.09,11.97,-20.22,-1.00
24220.00,-9.98,4.19,-2.81,-2.19,-1.89,1.98,-70.09,11.97,-20.22,-1.00
24234.00,-10.94,2.98,-2.67,-1.68,-1.29,1.03,-69.18,17.44,-17.67,-1.00
24247.00,-8.59,1.00,-4.19,-1.48,-0.83,0.46,-69.18,17.44,-17.67,-1.00
24258.00,-8.59,1.00,-4.19,-1.48,-0.83,0.46,-69.18,17.44,-17.67,-1.00
24270.00,-7.95,1.16,-5.01,-1.34,-0.84,0.33,-69.18,17.44,-17.67,-1.00
24284.00,-8.08,1.87,-5.82,-1.14,-1.02,0.30,-69.18,17.44,-17.67,-1.00
24296.00,-8.08,1.87,-5.82,-1.14,-1.02,0.30,-69.18,17.44,-17.67,-1.00
24308.00,-8.33,1.66,-5.46,-0.94,-1.32,0.21,-69.18,17.44,-17.67,-1.00
24320.00,-8.33,1.66,-5.46,-0.94,-1.32,0.21,-69.18,17.44,-17.67,-1.00
24334.00,-9.95,0.90,-3.31,-0.83,-1.47,0.31,-69.18,17.44,-17.67,-1.00
24346.00,-9.19,-0.95,-3.71,-0.92,-1.35,0.60,-70.54,14.40,-17.35,-1.00
24358.00,-9.19,-0.95,-3.71,-0.92,-1.35,0.60,-70.54,14.40,-17.35,-1.00
24373.00,-9.45,-0.36,-2.92,-1.21,-1.47,1.03,-70.54,14.40,-17.35,-1.00
24384.00,-9.48,0.90,-4.12,-1.42,-1.49,1.36,-70.54,14.40,-17.35,-1.00
24396.00,-9.48,0.90,-4.12,-1.42,-1.49,1.36,-70.54,14.40,-17.35,-1.00
24408.00,-9.76,1.93,-3.43,-1.50,-1.63,1.26,-70.54,14.40,-17.35,-1.00
24422.00,-9.76,1.93,-3.43,-1.50,-1.63,1.26,-70.54,14.40,-17.35,-1.00
24434.00,-9.56,2.07,-3.49,-1.37,-1.50,0.87,-70.54,14.40,-17.35,-1.00
24446.00,-9.17,1.96,-3.65,-1.19,-1.30,0.54,-70.54,14.40,-17.35,-1.00
24460.00,-9.17,1.96,-3.65,-1.19,-1.30,0.54,-70.54,14.40,-17.35,-1.00
24472.00,-8.89,-0.04,-3.26,-1.00,-1.07,0.34,-70.54,14.40,-17.35,-1.00
24484.00,-9.10,-0.38,-2.79,-1.01,-0.83,0.47,-72.81,16.22,-18.30,-1.00
24496.00,-9.10,-0.38,-2.79,-1.01,-0.83,0.47,-72.81,16.22,-18.30,-1.00
24510.00,-9.60,-0.06,-3.89,-1.28,-0.73,0.72,-72.81,16.22,-18.30,-1.00
24522.00,-9.60,-0.06,-3.89,-1.28,-0.73,0.72,-72.81,16.22,-18.30,-1.00
24534.00,-12.00,-0.55,-2.76,-1.60,-0.90,1.02,-72.81,16.22,-18.30,-1.00
24546.00,-10.40,3.31,-2.64,-2.11,-0.85,1.31,-72.81,16.22,-18.30,-1.00
24561.00,-10.40,3.31,-2.64,-2.11,-0.85,1.31,-72.81,16.22,-18.30,-1.00
24572.00,-8.69,1.47,-5.31,-1.94,-0.77,0.81,-72.81,16.22,-18.30,-1.00
24584.00,-8.23,1.42,-5.27,-1.92,-1.13,0.42,-72.81,16.22,-18.30,-1.00
24598.00,-8.23,1.42,-5.27,-1.92,-1.13,0.42,-72.81,16.22,-18.30,-1.00
24610.00,-7.65,0.20,-5.10,-1.61,-1.37,0.31,-70.54,15.92,-18.94,-1.00
24622.00,-7.65,0.20,-5.10,-1.61,-1.37,0.31,-70.54,15.92,-18.94,-1.00
24634.00,-6.58,-1.46,-4.34,-1.23,-1.46,0.62,-70.54,15.92,-18.94,-1.00
24648.00,-7.31,1.70,-6.62,-0.97,-1.33,1.22,-70.54,15.92,-18.94,-1.00
24660.00,-7.31,1.70,-6.62,-0.97,-1.33,1.22,-70.54,15.92,-18.94,-1.00
24672.00,-9.33,2.25,-4.98,-0.61,-1.50,1.26,-70.54,15.92,-18.94,-1.00
24684.00,-11.40,2.78,-2.47,-0.53,-1.52,0.93,-70.54,15.92,-18.94,-1.00
24698.00,-11.40,2.78,-2.47,-0.53,-1.52,0.93,-70.54,15.92,-18.94,-1.00
24710.00,-9.09,-0.17,-3.41,-0.69,-1.29,0.57,-70.54,15.92,-18.94,-1.00
24722.00,-9.09,-0.17,-3.41,-0.69,-1.29,0.57,-70.54,15.92,-18.94,-1.00
24736.00,-9.12,0.65,-4.14,-1.01,-1.35,0.69,-69.86,16.07,-18.46,-1.00
24748.00,-8.72,1.77,-4.83,-1.18,-1.48,0.66,-69.86,16.07,-18.46,-1.00
24760.00,-8.72,1.77,-4.83,-1.18,-1.48,0.66,-69.86,16.07,-18.46,-1.00
24772.00,-9.10,1.70,-4.69,-1.15,-1.67,0.45,-69.86,16.07,-18.46,-1.00
24786.00,-9.67,1.03,-3.30,-1.07,-1.54,0.37,-69.86,16.07,-18.46,-1.00
24798.00,-9.67,1.03,-3.30,-1.07,-1.54,0.37,-69.86,16.07,-18.46,-1.00
24810.00,-9.18,0.16,-3.07,-0.99,-1.25,0.48,-69.86,16.07,-18.46,-1.00
24825.00,-9.00,-0.06,-4.16,-1.08,-1.17,0.73,-69.86,16.07,-18.46,-1.00
24836.00,-9.00,-0.06,-4.16,-1.08,-1.17,0.73,-69.86,16.07,-18.46,-1.00
24848.00,-9.10,-0.96,-4.26,-1.24,-1.31,1.10,-69.86,15.77,-18.46,-1.00
24860.00,-9.10,-0.96,-4.26,-1.24,-1.31,1.10,-69.86,15.77,-18.46,-1.00
24874.00,-9.72,1.49,-3.78,-1.57,-1.66,1.58,-69.86,15.77,-18.46,-1.00
24886.00,-9.79,1.79,-2.77,-1.63,-1.75,1.31,-69.86,15.77,-18.46,-1.00
24898.00,-9.79,1.79,-2.77,-1.63,-1.75,1.31,-69.86,15.77,-18.46,-1.00
24910.00,-9.47,1.84,-3.44,-1.40,-1.51,0.88,-69.86,15.77,-18.46,-1.00
24924.00,-9.32,1.94,-3.01,-1.11,-1.35,0.48,-69.86,15.77,-18.46,-1.00
24936.00,-9.32,1.94,-3.01,-1.11,-1.35,0.48,-69.86,15.77,-18.46,-1.00
24948.00,-8.78,-0.03,-3.86,-0.80,-1.07,0.20,-69.86,15.77,-18.46,-1.00
24962.00,-8.78,-0.03,-3.86,-0.80,-1.07,0.20,-69.86,15.77,-18.46,-1.00
24974.00,-8.70,-1.02,-4.71,-0.77,-1.13,0.54,-69.86,15.77,-18.46,-1.00
24986.00,-10.39,1.98,-4.86,-1.22,-1.65,1.21,-71.22,16.07,-18.15,-1.00
