time,ax,ay,az,gx,gy,gz,mx,my,mz,pressure
223.00,-0.27,6.22,-8.00,-1.21,-1.29,0.79,-8.89,25.03,-39.71,-1.00
235.00,-0.27,6.22,-8.00,-1.21,-1.29,0.79,-8.89,25.03,-39.71,-1.00
247.00,-0.30,6.22,-7.98,-1.21,-1.29,0.79,-8.89,25.03,-39.71,-1.00
259.00,-0.31,6.23,-7.98,-1.21,-1.29,0.79,-8.21,25.48,-38.91,-1.00
272.00,-0.31,6.23,-7.98,-1.21,-1.29,0.79,-8.21,25.48,-38.91,-1.00
284.00,-0.30,6.21,-7.99,-1.21,-1.29,0.79,-8.21,25.48,-38.91,-1.00
296.00,-0.30,6.21,-7.99,-1.21,-1.29,0.79,-8.21,25.48,-38.91,-1.00
308.00,-0.27,6.23,-8.00,-1.21,-1.29,0.79,-8.21,25.48,-38.91,-1.00
322.00,-0.24,6.23,-7.99,-1.21,-1.29,0.79,-8.21,25.48,-38.91,-1.00
333.00,-0.24,6.23,-7.99,-1.21,-1.29,0.79,-8.21,25.48,-38.91,-1.00
345.00,-0.26,6.23,-7.98,-1.21,-1.29,0.79,-8.21,25.48,-38.91,-1.00
358.00,-0.29,6.23,-7.99,-1.21,-1.29,0.79,-8.21,25.48,-38.91,-1.00
370.00,-0.29,6.23,-7.99,-1.21,-1.29,0.79,-8.21,25.48,-38.91,-1.00
382.00,-0.31,6.21,-7.99,-1.21,-1.29,0.78,-9.57,24.57,-40.51,-1.00
394.00,-0.31,6.21,-7.99,-1.21,-1.29,0.78,-9.57,24.57,-40.51,-1.00
407.00,-0.31,6.24,-8.01,-1.21,-1.29,0.79,-9.57,24.57,-40.51,-1.00
419.00,-0.28,6.22,-7.99,-1.21,-1.30,0.78,-9.57,24.57,-40.51,-1.00
431.00,-0.28,6.22,-7.99,-1.21,-1.30,0.78,-9.57,24.57,-40.51,-1.00
443.00,-0.24,6.22,-7.99,-1.21,-1.29,0.79,-9.57,24.57,-40.51,-1.00
457.00,-0.24,6.22,-7.99,-1.21,-1.29,0.79,-9.57,24.57,-40.51,-1.00
468.00,-0.25,6.22,-7.99,-1.21,-1.29,0.79,-9.57,24.57,-40.51,-1.00
480.00,-0.28,6.23,-7.99,-1.21,-1.29,0.78,-9.57,24.57,-40.51,-1.00
492.00,-0.28,6.23,-7.99,-1.21,-1.29,0.78,-9.57,24.57,-40.51,-1.00
505.00,-0.31,6.23,-8.00,-1.21,-1.29,0.79,-8.66,25.18,-40.51,-1.00
517.00,-0.31,6.23,-8.00,-1.21,-1.29,0.79,-8.66,25.18,-40.51,-1.00
529.00,-0.31,6.23,-8.01,-1.21,-1.29,0.78,-8.66,25.18,-40.51,-1.00
541.00,-0.28,6.23,-8.00,-1.21,-1.29,0.78,-8.66,25.18,-40.51,-1.00
554.00,-0.28,6.23,-8.00,-1.21,-1.29,0.78,-8.66,25.18,-40.51,-1.00
566.00,-0.25,6.23,-8.00,-1.21,-1.29,0.78,-8.66,25.18,-40.51,-1.00
578.00,-0.25,6.23,-8.00,-1.21,-1.29,0.78,-8.66,25.18,-40.51,-1.00
591.00,-0.25,6.22,-7.99,-1.21,-1.29,0.79,-8.66,25.18,-40.51,-1.00
603.00,-0.29,6.22,-8.00,-1.21,-1.29,0.78,-8.66,25.18,-40.51,-1.00
615.00,-0.29,6.22,-8.00,-1.21,-1.29,0.78,-8.66,25.18,-40.51,-1.00
627.00,-0.29,6.23,-7.99,-1.21,-1.29,0.78,-8.66,25.78,-39.87,-1.00
640.00,-0.30,6.24,-7.99,-1.21,-1.29,0.78,-8.66,25.78,-39.87,-1.00
652.00,-0.30,6.24,-7.99,-1.21,-1.29,0.78,-8.66,25.78,-39.87,-1.00
664.00,-0.27,6.23,-8.00,-1.21,-1.29,0.78,-8.66,25.78,-39.87,-1.00
676.00,-0.27,6.23,-8.00,-1.21,-1.29,0.78,-8.66,25.78,-39.87,-1.00
689.00,-0.26,6.23,-8.01,-1.21,-1.29,0.78,-8.66,25.78,-39.87,-1.00
701.00,-0.28,6.23,-8.00,-1.21,-1.29,0.79,-8.66,25.78,-39.87,-1.00
713.00,-0.28,6.23,-8.00,-1.21,-1.29,0.79,-8.66,25.78,-39.87,-1.00
725.00,-0.27,6.22,-7.99,-1.21,-1.29,0.79,-8.66,25.78,-39.87,-1.00
738.00,-0.27,6.22,-7.99,-1.21,-1.29,0.79,-8.66,25.78,-39.87,-1.00
750.00,-0.31,6.23,-7.99,-1.21,-1.29,0.79,-8.66,25.78,-39.87,-1.00
762.00,-0.31,6.22,-8.01,-1.21,-1.29,0.79,-5.94,24.57,-38.27,-1.00
774.00,-0.31,6.22,-8.01,-1.21,-1.29,0.79,-5.94,24.57,-38.27,-1.00
787.00,-0.28,6.24,-8.00,-1.21,-1.29,0.79,-5.94,24.57,-38.27,-1.00
799.00,-0.27,6.23,-7.99,-1.21,-1.29,0.79,-5.94,24.57,-38.27,-1.00
811.00,-0.27,6.23,-7.99,-1.21,-1.29,0.79,-5.94,24.57,-38.27,-1.00
823.00,-0.26,6.22,-7.99,-1.21,-1.29,0.79,-5.94,24.57,-38.27,-1.00
836.00,-0.26,6.22,-7.99,-1.21,-1.29,0.79,-5.94,24.57,-38.27,-1.00
848.00,-0.26,6.22,-7.98,-1.21,-1.29,0.79,-5.94,24.57,-38.27,-1.00
860.00,-0.28,6.23,-7.97,-1.21,-1.29,0.79,-5.94,24.57,-38.27,-1.00
874.00,-0.28,6.23,-7.97,-1.21,-1.29,0.79,-5.94,24.57,-38.27,-1.00
886.00,-0.32,6.24,-8.00,-1.21,-1.29,0.79,-8.66,25.78,-39.87,-1.00
898.00,-0.32,6.24,-8.00,-1.21,-1.29,0.79,-8.66,25.78,-39.87,-1.00
910.00,-0.30,6.23,-7.99,-1.21,-1.29,0.79,-8.66,25.78,-39.87,-1.00
923.00,-0.28,6.23,-8.00,-1.21,-1.29,0.79,-8.66,25.78,-39.87,-1.00
1010.00,-0.29,6.24,-8.00,-1.21,-1.29,0.78,-7.53,24.42,-39.71,-1.00
1099.00,-0.28,6.24,-7.99,-1.21,-1.29,0.79,-7.53,24.42,-39.71,-1.00
1186.00,-0.27,6.23,-7.99,-1.21,-1.29,0.79,-9.11,23.96,-38.91,-1.00
1200.00,-0.26,6.24,-7.99,-1.21,-1.29,0.79,-9.11,23.96,-38.91,-1.00
1211.00,-0.26,6.24,-7.99,-1.21,-1.29,0.79,-9.11,23.96,-38.91,-1.00
1223.00,-0.28,6.23,-7.98,-1.21,-1.29,0.78,-9.11,23.96,-38.91,-1.00
1235.00,-0.28,6.23,-7.98,-1.21,-1.29,0.78,-9.11,23.96,-38.91,-1.00
1248.00,-0.29,6.22,-7.98,-1.21,-1.29,0.79,-9.11,23.96,-38.91,-1.00
1260.00,-0.28,6.23,-8.00,-1.21,-1.29,0.79,-9.34,25.63,-39.39,-1.00
1272.00,-0.28,6.23,-8.00,-1.21,-1.29,0.79,-9.34,25.63,-39.39,-1.00
1285.00,-0.29,6.24,-7.99,-1.21,-1.29,0.79,-9.34,25.63,-39.39,-1.00
1297.00,-0.29,6.24,-7.99,-1.21,-1.29,0.79,-9.34,25.63,-39.39,-1.00
1309.00,-0.28,6.23,-7.99,-1.21,-1.29,0.79,-9.34,25.63,-39.39,-1.00
1321.00,-0.28,6.23,-7.99,-1.21,-1.29,0.79,-9.34,25.63,-39.39,-1.00
1334.00,-0.28,6.23,-7.99,-1.21,-1.29,0.79,-9.34,25.63,-39.39,-1.00
1346.00,-0.28,6.23,-7.99,-1.21,-1.29,0.79,-9.34,25.63,-39.39,-1.00
1358.00,-0.28,6.23,-7.99,-1.21,-1.29,0.79,-9.34,25.63,-39.39,-1.00
1370.00,-0.28,6.24,-7.97,-1.21,-1.29,0.79,-9.34,25.63,-39.39,-1.00
1384.00,-0.29,6.23,-7.99,-1.21,-1.29,0.79,-8.89,25.33,-40.35,-1.00
1395.00,-0.29,6.23,-7.99,-1.21,-1.29,0.79,-8.89,25.33,-40.35,-1.00
1407.00,-0.29,6.23,-7.99,-1.21,-1.29,0.78,-8.89,25.33,-40.35,-1.00
1419.00,-0.28,6.22,-7.99,-1.21,-1.29,0.79,-8.89,25.33,-40.35,-1.00
1432.00,-0.28,6.22,-7.99,-1.21,-1.29,0.79,-8.89,25.33,-40.35,-1.00
1444.00,-0.28,6.24,-7.98,-1.21,-1.30,0.78,-8.89,25.33,-40.35,-1.00
1456.00,-0.28,6.24,-7.98,-1.21,-1.30,0.78,-8.89,25.33,-40.35,-1.00
1468.00,-0.27,6.23,-7.98,-1.21,-1.29,0.79,-8.89,25.33,-40.35,-1.00
1481.00,-0.28,6.23,-7.99,-1.21,-1.29,0.78,-8.89,25.33,-40.35,-1.00
1493.00,-0.28,6.23,-7.99,-1.21,-1.29,0.78,-8.89,25.33,-40.35,-1.00
1505.00,-0.28,6.22,-8.00,-1.21,-1.29,0.78,-7.98,25.03,-38.11,-1.00
1518.00,-0.28,6.22,-8.00,-1.21,-1.29,0.78,-7.98,25.03,-38.11,-1.00
1530.00,-0.30,6.22,-7.99,-1.21,-1.29,0.78,-7.98,25.03,-38.11,-1.00
1542.00,-0.29,6.23,-7.99,-1.21,-1.29,0.78,-7.98,25.03,-38.11,-1.00
1554.00,-0.29,6.23,-7.99,-1.21,-1.29,0.78,-7.98,25.03,-38.11,-1.00
1567.00,-0.28,6.24,-7.99,-1.21,-1.29,0.78,-7.98,25.03,-38.11,-1.00
1579.00,-0.28,6.24,-7.99,-1.21,-1.29,0.78,-7.98,25.03,-38.11,-1.00
1591.00,-0.27,6.23,-8.00,-1.21,-1.29,0.78,-7.98,25.03,-38.11,-1.00
1603.00,-0.28,6.24,-7.99,-1.21,-1.29,0.78,-7.98,25.03,-38.11,-1.00
1616.00,-0.28,6.24,-7.99,-1.21,-1.29,0.78,-7.98,25.03,-38.11,-1.00
1628.00,-0.28,6.22,-7.99,-1.21,-1.29,0.78,-6.62,24.42,-39.39,-1.00
1640.00,-0.29,6.24,-7.99,-1.21,-1.29,0.79,-6.62,24.42,-39.39,-1.00
1652.00,-0.29,6.24,-7.99,-1.21,-1.29,0.79,-6.62,24.42,-39.39,-1.00
1665.00,-0.33,6.26,-8.02,-1.21,-1.29,0.79,-6.62,24.42,-39.39,-1.00
1677.00,-0.33,6.26,-8.02,-1.21,-1.29,0.79,-6.62,24.42,-39.39,-1.00
1689.00,-0.30,6.24,-7.96,-1.21,-1.29,0.78,-6.62,24.42,-39.39,-1.00
1703.00,-0.21,6.23,-8.01,-1.21,-1.29,0.78,-6.62,24.42,-39.39,-1.00
1715.00,-0.21,6.23,-8.01,-1.21,-1.29,0.78,-6.62,24.42,-39.39,-1.00
1727.00,-0.22,6.22,-8.00,-1.21,-1.29,0.79,-6.62,24.42,-39.39,-1.00
1739.00,-0.22,6.22,-8.00,-1.21,-1.29,0.79,-6.62,24.42,-39.39,-1.00
1752.00,-0.28,6.22,-7.95,-1.21,-1.29,0.78,-6.62,24.42,-39.39,-1.00
1764.00,-0.34,6.25,-8.01,-1.21,-1.29,0.79,-7.30,23.96,-39.23,-1.00
1776.00,-0.34,6.25,-8.01,-1.21,-1.29,0.79,-7.30,23.96,-39.23,-1.00
1788.00,-0.34,6.23,-7.97,-1.21,-1.29,0.78,-7.30,23.96,-39.23,-1.00
1802.00,-0.28,6.24,-7.99,-1.21,-1.29,0.79,-7.30,23.96,-39.23,-1.00
1813.00,-0.28,6.24,-7.99,-1.21,-1.29,0.79,-7.30,23.96,-39.23,-1.00
1825.00,-0.23,6.24,-8.00,-1.21,-1.29,0.78,-7.30,23.96,-39.23,-1.00
1837.00,-0.23,6.24,-8.00,-1.21,-1.29,0.78,-7.30,23.96,-39.23,-1.00
1850.00,-0.21,6.23,-7.98,-1.21,-1.29,0.79,-7.30,23.96,-39.23,-1.00
1862.00,-0.27,6.24,-8.01,-1.21,-1.29,0.78,-7.30,23.96,-39.23,-1.00
1874.00,-0.27,6.24,-8.01,-1.21,-1.29,0.78,-7.30,23.96,-39.23,-1.00
1887.00,-0.33,6.23,-8.01,-1.21,-1.29,0.79,-8.21,25.48,-37.63,-1.00
1899.00,-0.33,6.23,-8.01,-1.21,-1.29,0.79,-8.21,25.48,-37.63,-1.00
1911.00,-0.35,6.23,-7.96,-1.21,-1.29,0.79,-8.21,25.48,-37.63,-1.00
1923.00,-0.31,6.24,-7.98,-1.21,-1.29,0.79,-8.21,25.48,-37.63,-1.00
1936.00,-0.31,6.24,-7.98,-1.21,-1.29,0.79,-8.21,25.48,-37.63,-1.00
1948.00,-0.25,6.21,-7.97,-1.21,-1.29,0.79,-8.21,25.48,-37.63,-1.00
1960.00,-0.22,6.20,-7.98,-1.21,-1.29,0.79,-8.21,25.48,-37.63,-1.00
1972.00,-0.22,6.20,-7.98,-1.21,-1.29,0.79,-8.21,25.48,-37.63,-1.00
1986.00,-0.26,6.23,-8.00,-1.21,-1.29,0.78,-8.21,25.48,-37.63,-1.00
1997.00,-0.26,6.23,-8.00,-1.21,-1.29,0.78,-8.21,25.48,-37.63,-1.00
2009.00,-0.31,6.23,-7.99,-1.21,-1.29,0.78,-10.47,23.96,-39.87,-1.00
2021.00,-0.34,6.25,-8.01,-1.21,-1.30,0.78,-10.47,23.96,-39.87,-1.00
2034.00,-0.34,6.25,-8.01,-1.21,-1.30,0.78,-10.47,23.96,-39.87,-1.00
2046.00,-0.30,6.23,-7.99,-1.21,-1.29,0.78,-10.47,23.96,-39.87,-1.00
2058.00,-0.30,6.23,-7.99,-1.21,-1.29,0.78,-10.47,23.96,-39.87,-1.00
2071.00,-0.25,6.23,-7.99,-1.21,-1.30,0.78,-10.47,23.96,-39.87,-1.00
2083.00,-0.23,6.23,-8.01,-1.21,-1.29,0.78,-10.47,23.96,-39.87,-1.00
2095.00,-0.23,6.23,-8.01,-1.21,-1.29,0.78,-10.47,23.96,-39.87,-1.00
2107.00,-0.25,6.23,-7.99,-1.21,-1.29,0.79,-10.47,23.96,-39.87,-1.00
2120.00,-0.28,6.23,-7.99,-1.21,-1.29,0.78,-6.17,24.72,-38.75,-1.00
2132.00,-0.28,6.23,-7.99,-1.21,-1.29,0.78,-6.17,24.72,-38.75,-1.00
2144.00,-0.32,6.23,-8.02,-1.21,-1.29,0.78,-6.17,24.72,-38.75,-1.00
2156.00,-0.32,6.23,-8.02,-1.21,-1.29,0.78,-6.17,24.72,-38.75,-1.00
2169.00,-0.31,6.23,-7.98,-1.21,-1.29,0.79,-6.17,24.72,-38.75,-1.00
2181.00,-0.27,6.23,-8.00,-1.21,-1.29,0.79,-6.17,24.72,-38.75,-1.00
2193.00,-0.27,6.23,-8.00,-1.21,-1.29,0.79,-6.17,24.72,-38.75,-1.00
2205.00,-0.24,6.23,-8.00,-1.21,-1.29,0.78,-6.17,24.72,-38.75,-1.00
2218.00,-0.24,6.23,-8.00,-1.21,-1.29,0.78,-6.17,24.72,-38.75,-1.00
2230.00,-0.24,6.23,-7.96,-1.21,-1.29,0.78,-6.17,24.72,-38.75,-1.00
2242.00,-0.30,6.24,-7.97,-1.21,-1.29,0.78,-6.17,24.72,-38.75,-1.00
2255.00,-0.30,6.24,-7.97,-1.21,-1.29,0.78,-6.17,24.72,-38.75,-1.00
2267.00,-0.32,6.24,-7.98,-1.21,-1.29,0.79,-7.30,24.57,-38.91,-1.00
2279.00,-0.32,6.24,-7.98,-1.21,-1.29,0.79,-7.30,24.57,-38.91,-1.00
2291.00,-0.32,6.23,-7.99,-1.21,-1.29,0.79,-7.30,24.57,-38.91,-1.00
2305.00,-0.28,6.23,-7.98,-1.21,-1.29,0.79,-7.30,24.57,-38.91,-1.00
2317.00,-0.28,6.23,-7.98,-1.21,-1.29,0.79,-7.30,24.57,-38.91,-1.00
2329.00,-0.25,6.23,-7.99,-1.21,-1.29,0.78,-7.30,24.57,-38.91,-1.00
2341.00,-0.23,6.23,-7.99,-1.21,-1.29,0.79,-7.30,24.57,-38.91,-1.00
2354.00,-0.23,6.23,-7.99,-1.21,-1.29,0.79,-7.30,24.57,-38.91,-1.00
2366.00,-0.27,6.22,-7.98,-1.21,-1.29,0.79,-7.30,24.57,-38.91,-1.00
2378.00,-0.27,6.22,-7.98,-1.21,-1.29,0.79,-7.30,24.57,-38.91,-1.00
2390.00,-0.30,6.22,-8.01,-1.21,-1.29,0.79,-7.98,24.72,-39.07,-1.00
2403.00,-0.32,6.24,-7.98,-1.21,-1.29,0.78,-7.98,24.72,-39.07,-1.00
2415.00,-0.32,6.24,-7.98,-1.21,-1.29,0.78,-7.98,24.72,-39.07,-1.00
2427.00,-0.30,6.23,-7.98,-1.21,-1.29,0.79,-7.98,24.72,-39.07,-1.00
2442.00,-0.25,6.23,-8.01,-1.21,-1.29,0.79,-7.98,24.72,-39.07,-1.00
2453.00,-0.25,6.23,-8.01,-1.21,-1.29,0.79,-7.98,24.72,-39.07,-1.00
2465.00,-0.23,6.22,-8.01,-1.21,-1.29,0.79,-7.98,24.72,-39.07,-1.00
2477.00,-0.23,6.22,-8.01,-1.21,-1.29,0.79,-7.98,24.72,-39.07,-1.00
2490.00,-0.24,6.21,-7.99,-1.21,-1.30,0.79,-7.98,24.72,-39.07,-1.00
2502.00,-0.28,6.23,-7.99,-1.21,-1.29,0.79,-9.11,24.57,-37.95,-1.00
2514.00,-0.28,6.23,-7.99,-1.21,-1.29,0.79,-9.11,24.57,-37.95,-1.00
2526.00,-0.32,6.24,-7.97,-1.21,-1.29,0.79,-9.11,24.57,-37.95,-1.00
2539.00,-0.32,6.24,-7.97,-1.21,-1.29,0.79,-9.11,24.57,-37.95,-1.00
2551.00,-0.30,6.25,-7.98,-1.21,-1.29,0.78,-9.11,24.57,-37.95,-1.00
2563.00,-0.28,6.24,-7.99,-1.21,-1.29,0.79,-9.11,24.57,-37.95,-1.00
2575.00,-0.28,6.24,-7.99,-1.21,-1.29,0.79,-9.11,24.57,-37.95,-1.00
2588.00,-0.25,6.20,-7.97,-1.21,-1.29,0.79,-9.11,24.57,-37.95,-1.00
2675.00,-0.30,6.23,-8.04,-1.21,-1.36,0.86,-9.57,25.78,-39.55,-1.00
2763.00,-0.50,6.23,-8.03,-1.25,-1.17,0.65,-9.11,23.66,-40.19,-1.00
2776.00,-0.50,6.23,-8.03,-1.25,-1.17,0.65,-9.11,23.66,-40.19,-1.00
2788.00,-0.36,6.54,-7.81,-1.31,-1.28,0.77,-9.11,23.66,-40.19,-1.00
2800.00,-0.36,6.54,-7.81,-1.31,-1.28,0.77,-9.11,23.66,-40.19,-1.00
2812.00,-0.23,6.38,-8.95,-1.42,-1.35,0.95,-9.11,23.66,-40.19,-1.00
2825.00,-0.42,6.51,-8.27,-0.71,-1.31,0.89,-9.11,23.66,-40.19,-1.00
2837.00,-0.42,6.51,-8.27,-0.71,-1.31,0.89,-9.11,23.66,-40.19,-1.00
2849.00,-1.30,6.43,-9.77,-0.14,-1.27,0.89,-9.11,23.66,-40.19,-1.00
2861.00,-1.33,5.67,-9.83,1.24,-1.18,1.13,-9.11,23.66,-40.19,-1.00
2874.00,-1.33,5.67,-9.83,1.24,-1.18,1.13,-9.11,23.66,-40.19,-1.00
2886.00,-0.47,4.12,-7.93,2.03,-0.92,1.48,-5.49,20.02,-41.15,-1.00
2898.00,-0.47,4.12,-7.93,2.03,-0.92,1.48,-5.49,20.02,-41.15,-1.00
2910.00,0.54,4.58,-10.41,1.34,-0.57,1.87,-5.49,20.02,-41.15,-1.00
2923.00,1.30,4.17,-9.73,2.08,-0.25,2.30,-5.49,20.02,-41.15,-1.00
2935.00,1.30,4.17,-9.73,2.08,-0.25,2.30,-5.49,20.02,-41.15,-1.00
2947.00,0.22,9.65,-11.12,2.32,0.07,2.09,-5.49,20.02,-41.15,-1.00
2959.00,0.22,9.65,-11.12,2.32,0.07,2.09,-5.49,20.02,-41.15,-1.00
2973.00,-0.19,9.45,-16.95,2.12,-0.35,0.40,-5.49,20.02,-41.15,-1.00
2984.00,0.68,2.48,-14.78,2.62,-1.86,-0.95,-5.49,20.02,-41.15,-1.00
2996.00,0.68,2.48,-14.78,2.62,-1.86,-0.95,-5.49,20.02,-41.15,-1.00
3010.00,1.03,0.30,-8.76,2.44,-2.87,-0.88,1.54,1.04,-44.50,-1.00
3021.00,-0.24,1.06,-9.52,2.26,-2.63,-0.52,1.54,1.04,-44.50,-1.00
3033.00,-0.24,1.06,-9.52,2.26,-2.63,-0.52,1.54,1.04,-44.50,-1.00
3045.00,-2.29,0.97,-17.19,3.10,-2.50,-0.51,1.54,1.04,-44.50,-1.00
3058.00,-2.29,0.97,-17.19,3.10,-2.50,-0.51,1.54,1.04,-44.50,-1.00
3070.00,-2.77,1.35,-21.98,4.38,-3.95,-0.68,1.54,1.04,-44.50,-1.00
3082.00,2.97,4.90,-18.84,5.85,-6.56,-0.83,1.54,1.04,-44.50,-1.00
3094.00,2.97,4.90,-18.84,5.85,-6.56,-0.83,1.54,1.04,-44.50,-1.00
3107.00,6.98,1.67,-10.32,6.85,-9.22,-1.14,1.54,1.04,-44.50,-1.00
3119.00,6.98,1.67,-10.32,6.85,-9.22,-1.14,1.54,1.04,-44.50,-1.00
3131.00,6.78,-3.19,-2.34,6.07,-10.70,-0.97,1.54,1.04,-44.50,-1.00
3143.00,0.86,-5.96,1.13,6.06,-9.90,0.00,-24.07,-30.07,-29.97,-1.00
3157.00,0.86,-5.96,1.13,6.06,-9.90,0.00,-24.07,-30.07,-29.97,-1.00
3168.00,-2.05,-4.25,-0.91,7.00,-8.17,1.09,-24.07,-30.07,-29.97,-1.00
3180.00,-2.05,-4.25,-0.91,7.00,-8.17,1.09,-24.07,-30.07,-29.97,-1.00
3192.00,-1.32,-2.79,-1.42,7.29,-7.29,1.45,-24.07,-30.07,-29.97,-1.00
3205.00,1.28,-4.57,1.60,4.86,-7.38,1.57,-24.07,-30.07,-29.97,-1.00
3217.00,1.28,-4.57,1.60,4.86,-7.38,1.57,-24.07,-30.07,-29.97,-1.00
3229.00,1.07,-6.43,3.26,2.10,-6.99,1.94,-24.07,-30.07,-29.97,-1.00
3242.00,-0.12,-8.20,3.97,2.51,-6.25,2.57,-24.07,-30.07,-29.97,-1.00
3254.00,-0.12,-8.20,3.97,2.51,-6.25,2.57,-24.07,-30.07,-29.97,-1.00
3266.00,-2.70,-7.37,2.87,1.79,-5.97,3.26,-39.49,-37.05,14.12,-1.00
3278.00,-2.70,-7.37,2.87,1.79,-5.97,3.26,-39.49,-37.05,14.12,-1.00
3292.00,-3.96,-5.26,0.80,0.36,-6.15,4.09,-39.49,-37.05,14.12,-1.00
3305.00,-2.66,-4.95,0.64,-0.59,-7.10,5.06,-39.49,-37.05,14.12,-1.00
3317.00,-2.66,-4.95,0.64,-0.59,-7.10,5.06,-39.49,-37.05,14.12,-1.00
3329.00,-1.64,-7.45,10.53,0.67,-7.98,5.95,-39.49,-37.05,14.12,-1.00
3342.00,-2.64,-4.66,16.70,2.29,-6.74,7.10,-39.49,-37.05,14.12,-1.00
3354.00,-2.64,-4.66,16.70,2.29,-6.74,7.10,-39.49,-37.05,14.12,-1.00
3366.00,-2.45,7.27,10.97,-4.61,-6.28,6.63,-39.49,-37.05,14.12,-1.00
3378.00,-2.45,7.27,10.97,-4.61,-6.28,6.63,-39.49,-37.05,14.12,-1.00
3391.00,-6.39,4.94,21.95,-1.75,-4.35,5.38,-43.34,-18.99,36.96,-1.00
3403.00,-9.57,8.47,16.14,-6.69,-1.52,2.24,-43.34,-18.99,36.96,-1.00
3415.00,-9.57,8.47,16.14,-6.69,-1.52,2.24,-43.34,-18.99,36.96,-1.00
3429.00,-6.69,-2.89,13.70,-10.99,0.65,-1.43,-43.34,-18.99,36.96,-1.00
3517.00,-4.70,-9.32,1.51,-1.34,-3.30,0.41,-40.85,-37.66,2.30,-1.00
3604.00,-7.24,-7.52,3.37,0.74,-1.47,0.94,-40.85,-37.66,2.30,-1.00
3692.00,-6.37,-9.57,12.18,1.02,-0.94,0.96,-41.75,-35.53,11.57,-1.00
3706.00,-6.74,-6.52,11.98,-5.38,0.00,0.91,-41.75,-35.53,11.57,-1.00
3718.00,-6.74,-6.52,11.98,-5.38,0.00,0.91,-41.75,-35.53,11.57,-1.00
3730.00,-5.36,-7.25,10.54,-11.61,1.11,0.65,-41.75,-35.53,11.57,-1.00
3742.00,-3.62,-7.69,2.49,-15.59,1.78,1.42,-41.75,-35.53,11.57,-1.00
3756.00,-3.62,-7.69,2.49,-15.59,1.78,1.42,-41.75,-35.53,11.57,-1.00
3767.00,-5.87,-1.27,-0.22,-15.21,1.60,3.22,-46.06,-32.04,-13.51,-1.00
3780.00,-5.87,-1.27,-0.22,-15.21,1.60,3.22,-46.06,-32.04,-13.51,-1.00
3793.00,-4.87,0.64,-7.06,-12.16,1.60,3.79,-46.06,-32.04,-13.51,-1.00
3805.00,-4.38,2.60,-13.65,-7.78,0.40,2.91,-46.06,-32.04,-13.51,-1.00
3817.00,-4.38,2.60,-13.65,-7.78,0.40,2.91,-46.06,-32.04,-13.51,-1.00
3829.00,-6.88,-2.23,-9.92,-2.92,-1.26,1.79,-46.06,-32.04,-13.51,-1.00
3842.00,-8.74,-4.64,-5.25,-0.45,-2.09,1.46,-46.06,-32.04,-13.51,-1.00
3854.00,-8.74,-4.64,-5.25,-0.45,-2.09,1.46,-46.06,-32.04,-13.51,-1.00
3866.00,-8.35,-4.61,-4.76,-0.87,-2.03,1.56,-46.06,-32.04,-13.51,-1.00
3878.00,-8.35,-4.61,-4.76,-0.87,-2.03,1.56,-46.06,-32.04,-13.51,-1.00
3891.00,-7.91,-3.71,-3.96,-1.26,-1.74,1.65,-51.28,-14.28,-27.73,-1.00
3903.00,-6.67,-2.73,-7.02,-1.60,-1.66,1.19,-51.28,-14.28,-27.73,-1.00
3915.00,-6.67,-2.73,-7.02,-1.60,-1.66,1.19,-51.28,-14.28,-27.73,-1.00
3928.00,-7.38,-3.69,-6.08,-1.27,-2.14,0.58,-51.28,-14.28,-27.73,-1.00
3940.00,-7.38,-3.69,-6.08,-1.27,-2.14,0.58,-51.28,-14.28,-27.73,-1.00
3952.00,-7.77,-3.10,-6.35,-0.76,-2.33,0.29,-51.28,-14.28,-27.73,-1.00
3964.00,-7.88,-2.02,-6.60,0.01,-2.49,0.01,-51.28,-14.28,-27.73,-1.00
3977.00,-7.88,-2.02,-6.60,0.01,-2.49,0.01,-51.28,-14.28,-27.73,-1.00
3989.00,-7.01,-2.58,-6.01,1.17,-2.85,-0.46,-51.28,-14.28,-27.73,-1.00
4001.00,-7.01,-2.58,-6.01,1.17,-2.85,-0.46,-51.28,-14.28,-27.73,-1.00
4013.00,-6.71,-5.02,-3.34,2.33,-3.29,-0.74,-53.09,-19.45,-19.10,-1.00
4026.00,-7.27,-6.37,-0.21,2.60,-3.35,-0.53,-53.09,-19.45,-19.10,-1.00
4038.00,-7.27,-6.37,-0.21,2.60,-3.35,-0.53,-53.09,-19.45,-19.10,-1.00
4050.00,-7.84,-6.81,0.51,2.01,-3.14,-0.24,-53.09,-19.45,-19.10,-1.00
4064.00,-9.86,-6.35,0.78,1.29,-2.70,0.11,-53.09,-19.45,-19.10,-1.00
4075.00,-9.86,-6.35,0.78,1.29,-2.70,0.11,-53.09,-19.45,-19.10,-1.00
4087.00,-10.71,-9.75,4.33,-0.58,-2.17,0.06,-53.09,-19.45,-19.10,-1.00
4099.00,-10.71,-9.75,4.33,-0.58,-2.17,0.06,-53.09,-19.45,-19.10,-1.00
4112.00,-4.95,-5.25,-1.54,-6.43,-1.50,0.45,-53.09,-19.45,-19.10,-1.00
4124.00,-10.30,-6.67,-0.79,-4.91,-0.80,1.18,-53.09,-19.45,-19.10,-1.00
4136.00,-10.30,-6.67,-0.79,-4.91,-0.80,1.18,-53.09,-19.45,-19.10,-1.00
4149.00,-9.53,-7.47,-0.04,-3.28,-0.55,1.08,-54.00,-22.48,-15.27,-1.00
4161.00,-9.53,-7.47,-0.04,-3.28,-0.55,1.08,-54.00,-22.48,-15.27,-1.00
4173.00,-6.85,-8.93,-0.24,-4.75,-0.08,1.39,-54.00,-22.48,-15.27,-1.00
4185.00,-4.11,-7.90,-1.65,-6.31,0.33,2.44,-54.00,-22.48,-15.27,-1.00
4198.00,-4.11,-7.90,-1.65,-6.31,0.33,2.44,-54.00,-22.48,-15.27,-1.00
4210.00,-5.27,-1.42,-6.90,-6.75,0.27,3.40,-54.00,-22.48,-15.27,-1.00
4222.00,-8.58,2.33,-6.65,-6.78,-0.53,2.68,-54.00,-22.48,-15.27,-1.00
4234.00,-8.58,2.33,-6.65,-6.78,-0.53,2.68,-54.00,-22.48,-15.27,-1.00
4248.00,-9.54,2.63,-6.86,-5.43,-0.80,1.41,-54.00,-22.48,-15.27,-1.00
4259.00,-9.54,2.63,-6.86,-5.43,-0.80,1.41,-54.00,-22.48,-15.27,-1.00
4271.00,-8.34,-0.57,-4.97,-2.68,-0.68,0.42,-53.54,-3.66,-30.29,-1.00
4284.00,-7.08,-1.91,-7.08,-1.89,-0.52,-0.37,-53.54,-3.66,-30.29,-1.00
4296.00,-7.08,-1.91,-7.08,-1.89,-0.52,-0.37,-53.54,-3.66,-30.29,-1.00
4308.00,-4.04,-5.33,-7.89,-1.49,-0.65,-0.70,-53.54,-3.66,-30.29,-1.00
4320.00,-4.04,-5.33,-7.89,-1.49,-0.65,-0.70,-53.54,-3.66,-30.29,-1.00
4333.00,-5.23,-7.32,-5.43,-0.54,-0.83,0.35,-53.54,-3.66,-30.29,-1.00
4345.00,-7.16,-2.86,-6.00,-1.81,-0.93,1.62,-53.54,-3.66,-30.29,-1.00
4357.00,-7.16,-2.86,-6.00,-1.81,-0.93,1.62,-53.54,-3.66,-30.29,-1.00
4369.00,-6.65,-1.06,-6.79,-1.73,-0.84,1.87,-53.54,-3.66,-30.29,-1.00
4383.00,-6.42,-1.08,-7.03,-1.00,-0.86,1.61,-52.64,-3.36,-33.16,-1.00
4395.00,-6.42,-1.08,-7.03,-1.00,-0.86,1.61,-52.64,-3.36,-33.16,-1.00
4407.00,-7.55,-0.93,-7.22,-0.73,-1.17,1.20,-52.64,-3.36,-33.16,-1.00
4420.00,-7.55,-0.93,-7.22,-0.73,-1.17,1.20,-52.64,-3.36,-33.16,-1.00
4432.00,-7.08,-1.96,-6.78,-0.71,-1.47,0.74,-52.64,-3.36,-33.16,-1.00
4444.00,-9.00,-3.41,-7.22,-0.59,-1.51,0.65,-52.64,-3.36,-33.16,-1.00
4456.00,-9.00,-3.41,-7.22,-0.59,-1.51,0.65,-52.64,-3.36,-33.16,-1.00
4469.00,-8.58,-3.03,-7.81,-0.86,-1.38,0.73,-52.64,-3.36,-33.16,-1.00
4481.00,-8.58,-3.03,-7.81,-0.86,-1.38,0.73,-52.64,-3.36,-33.16,-1.00
4493.00,-7.05,-3.32,-6.87,-1.06,-1.44,0.74,-52.64,-3.36,-33.16,-1.00
4506.00,-6.52,-2.56,-6.52,-1.22,-1.55,0.79,-52.41,-5.63,-32.36,-1.00
4518.00,-6.52,-2.56,-6.52,-1.22,-1.55,0.79,-52.41,-5.63,-32.36,-1.00
4530.00,-8.10,-3.09,-8.83,-0.93,-1.68,0.90,-52.41,-5.63,-32.36,-1.00
4543.00,-7.92,-3.35,-5.24,0.04,-1.86,1.19,-52.41,-5.63,-32.36,-1.00
4557.00,-7.92,-3.35,-5.24,0.04,-1.86,1.19,-52.41,-5.63,-32.36,-1.00
4569.00,-8.31,-2.86,-5.29,-0.83,-1.71,1.24,-52.41,-5.63,-32.36,-1.00
4581.00,-8.31,-2.86,-5.29,-0.83,-1.71,1.24,-52.41,-5.63,-32.36,-1.00
4593.00,-7.45,-3.82,-5.48,-1.26,-1.55,1.28,-52.41,-5.63,-32.36,-1.00
4606.00,-7.41,-1.02,-5.58,-1.65,-1.60,1.43,-52.41,-5.63,-32.36,-1.00
4618.00,-7.41,-1.02,-5.58,-1.65,-1.60,1.43,-52.41,-5.63,-32.36,-1.00
4630.00,-7.68,-1.77,-5.98,-1.45,-1.62,1.04,-52.41,-5.63,-32.36,-1.00
4643.00,-7.92,-1.51,-7.03,-1.09,-1.59,0.76,-54.68,-3.51,-31.72,-1.00
4655.00,-7.92,-1.51,-7.03,-1.09,-1.59,0.76,-54.68,-3.51,-31.72,-1.00
4667.00,-7.78,-1.60,-6.44,-0.56,-1.58,0.57,-54.68,-3.51,-31.72,-1.00
4679.00,-7.78,-1.60,-6.44,-0.56,-1.58,0.57,-54.68,-3.51,-31.72,-1.00
4692.00,-7.08,-3.62,-5.06,0.02,-1.51,0.45,-54.68,-3.51,-31.72,-1.00
4704.00,-7.60,-5.10,-4.10,0.53,-1.45,0.79,-54.68,-3.51,-31.72,-1.00
4716.00,-7.60,-5.10,-4.10,0.53,-1.45,0.79,-54.68,-3.51,-31.72,-1.00
4728.00,-8.76,-3.65,-4.42,-0.23,-1.59,1.13,-54.68,-3.51,-31.72,-1.00
4741.00,-8.76,-3.65,-4.42,-0.23,-1.59,1.13,-54.68,-3.51,-31.72,-1.00
4753.00,-8.83,-3.64,-4.37,-0.92,-1.49,1.25,-54.68,-3.51,-31.72,-1.00
4765.00,-7.60,-3.80,-4.56,-1.40,-1.19,1.37,-55.58,-6.85,-27.57,-1.00
4778.00,-7.60,-3.80,-4.56,-1.40,-1.19,1.37,-55.58,-6.85,-27.57,-1.00
4790.00,-7.07,-3.82,-5.30,-1.82,-1.00,1.61,-55.58,-6.85,-27.57,-1.00
4802.00,-7.07,-3.82,-5.30,-1.82,-1.00,1.61,-55.58,-6.85,-27.57,-1.00
4814.00,-7.48,-2.95,-6.78,-2.72,-1.00,1.97,-55.58,-6.85,-27.57,-1.00
4828.00,-7.71,-1.05,-7.08,-3.12,-1.14,2.12,-55.58,-6.85,-27.57,-1.00
4839.00,-7.71,-1.05,-7.08,-3.12,-1.14,2.12,-55.58,-6.85,-27.57,-1.00
4851.00,-8.28,-0.67,-6.26,-2.60,-1.35,1.94,-55.58,-6.85,-27.57,-1.00
4863.00,-8.72,0.47,-6.06,-1.75,-1.49,1.63,-55.58,-6.85,-27.57,-1.00
4876.00,-8.72,0.47,-6.06,-1.75,-1.49,1.63,-55.58,-6.85,-27.57,-1.00
4888.00,-8.43,-1.04,-5.61,-1.06,-1.58,1.17,-54.90,1.20,-29.01,-1.00
4900.00,-8.43,-1.04,-5.61,-1.06,-1.58,1.17,-54.90,1.20,-29.01,-1.00
4912.00,-8.78,-0.78,-5.26,-0.98,-1.57,1.03,-54.90,1.20,-29.01,-1.00
4925.00,-8.77,-0.82,-5.23,-1.01,-1.47,0.87,-54.90,1.20,-29.01,-1.00
4937.00,-8.77,-0.82,-5.23,-1.01,-1.47,0.87,-54.90,1.20,-29.01,-1.00
4950.00,-8.09,-1.67,-5.45,-1.09,-1.45,0.74,-54.90,1.20,-29.01,-1.00
4963.00,-8.27,-1.28,-5.83,-1.18,-1.46,0.80,-54.90,1.20,-29.01,-1.00
4975.00,-8.27,-1.28,-5.83,-1.18,-1.46,0.80,-54.90,1.20,-29.01,-1.00
4987.00,-8.70,-1.19,-5.59,-1.17,-1.48,0.79,-54.90,1.20,-29.01,-1.00
4999.00,-8.70,-1.19,-5.59,-1.17,-1.48,0.79,-54.90,1.20,-29.01,-1.00
5012.00,-8.35,-1.19,-5.45,-1.17,-1.40,0.74,-58.08,0.29,-27.73,-1.00
5024.00,-7.91,-1.25,-6.15,-1.11,-1.34,0.71,-58.08,0.29,-27.73,-1.00
5036.00,-7.91,-1.25,-6.15,-1.11,-1.34,0.71,-58.08,0.29,-27.73,-1.00
5048.00,-8.12,-1.09,-5.94,-0.98,-1.49,0.69,-58.08,0.29,-27.73,-1.00
5061.00,-8.12,-1.09,-5.94,-0.98,-1.49,0.69,-58.08,0.29,-27.73,-1.00
5150.00,-8.41,-1.76,-5.06,-1.25,-1.29,0.89,-56.49,-0.47,-26.93,-1.00
5237.00,-9.22,-0.55,-5.07,-1.08,-1.28,0.93,-56.49,-0.47,-26.93,-1.00
5250.00,-8.42,-1.60,-4.83,-1.01,-1.25,0.73,-56.49,-0.47,-26.93,-1.00
5262.00,-8.42,-1.60,-4.83,-1.01,-1.25,0.73,-56.49,-0.47,-26.93,-1.00
5274.00,-8.10,-1.79,-5.21,-1.07,-1.32,0.72,-59.21,0.44,-29.17,-1.00
5286.00,-8.61,-1.78,-5.07,-1.11,-1.37,0.77,-59.21,0.44,-29.17,-1.00
5299.00,-8.61,-1.78,-5.07,-1.11,-1.37,0.77,-59.21,0.44,-29.17,-1.00
5311.00,-8.47,-1.83,-5.18,-1.16,-1.34,0.75,-59.21,0.44,-29.17,-1.00
5323.00,-8.47,-1.95,-5.13,-1.17,-1.34,0.78,-59.21,0.44,-29.17,-1.00
5335.00,-8.47,-1.95,-5.13,-1.17,-1.34,0.78,-59.21,0.44,-29.17,-1.00
5348.00,-8.73,-1.63,-5.03,-1.15,-1.34,0.83,-59.21,0.44,-29.17,-1.00
5360.00,-8.73,-1.63,-5.03,-1.15,-1.34,0.83,-59.21,0.44,-29.17,-1.00
5372.00,-8.85,-1.61,-4.80,-1.19,-1.34,0.78,-59.21,0.44,-29.17,-1.00
5386.00,-8.82,-1.50,-4.53,-1.28,-1.27,0.72,-58.53,1.80,-28.05,-1.00
5398.00,-8.82,-1.50,-4.53,-1.28,-1.27,0.72,-58.53,1.80,-28.05,-1.00
5410.00,-9.08,-1.98,-4.48,-1.53,-1.17,0.65,-58.53,1.80,-28.05,-1.00
5422.00,-9.08,-1.98,-4.48,-1.53,-1.17,0.65,-58.53,1.80,-28.05,-1.00
5436.00,-8.69,-1.24,-5.00,-1.82,-1.06,0.64,-58.53,1.80,-28.05,-1.00
5448.00,-8.06,-1.25,-5.69,-1.77,-0.98,0.64,-58.53,1.80,-28.05,-1.00
5460.00,-8.06,-1.25,-5.69,-1.77,-0.98,0.64,-58.53,1.80,-28.05,-1.00
5472.00,-8.43,-0.59,-5.70,-1.62,-0.99,0.60,-58.53,1.80,-28.05,-1.00
5485.00,-8.88,-0.11,-5.08,-1.48,-1.03,0.34,-58.53,1.80,-28.05,-1.00
5497.00,-8.88,-0.11,-5.08,-1.48,-1.03,0.34,-58.53,1.80,-28.05,-1.00
5509.00,-8.47,-1.48,-5.40,-1.43,-1.00,0.03,-56.49,0.44,-28.53,-1.00
5521.00,-8.47,-1.48,-5.40,-1.43,-1.00,0.03,-56.49,0.44,-28.53,-1.00
5534.00,-8.30,-1.34,-5.17,-1.45,-0.92,-0.01,-56.49,0.44,-28.53,-1.00
5546.00,-8.58,-0.96,-5.10,-1.77,-0.88,-0.21,-56.49,0.44,-28.53,-1.00
5558.00,-8.58,-0.96,-5.10,-1.77,-0.88,-0.21,-56.49,0.44,-28.53,-1.00
5572.00,-7.50,-2.49,-6.37,-2.05,-0.87,-0.41,-56.49,0.44,-28.53,-1.00
5583.00,-7.12,-4.02,-6.16,-2.00,-1.01,-0.14,-56.49,0.44,-28.53,-1.00
5595.00,-7.12,-4.02,-6.16,-2.00,-1.01,-0.14,-56.49,0.44,-28.53,-1.00
5607.00,-6.56,-2.49,-6.83,-2.19,-1.05,0.34,-56.49,0.44,-28.53,-1.00
5620.00,-6.56,-2.49,-6.83,-2.19,-1.05,0.34,-56.49,0.44,-28.53,-1.00
5632.00,-8.14,-0.41,-6.51,-1.13,-1.08,0.65,-56.49,0.44,-28.53,-1.00
5644.00,-8.57,-1.71,-5.51,-0.78,-1.08,0.39,-56.26,-0.62,-29.97,-1.00
5656.00,-8.57,-1.71,-5.51,-0.78,-1.08,0.39,-56.26,-0.62,-29.97,-1.00
5669.00,-6.68,-3.79,-3.75,-0.76,-1.00,0.29,-56.26,-0.62,-29.97,-1.00
5681.00,-6.68,-3.79,-3.75,-0.76,-1.00,0.29,-56.26,-0.62,-29.97,-1.00
5693.00,-9.21,-5.10,-4.96,-1.29,-0.78,0.40,-56.26,-0.62,-29.97,-1.00
5707.00,-5.73,-4.76,-7.26,-0.63,-0.45,1.11,-56.26,-0.62,-29.97,-1.00
5719.00,-5.73,-4.76,-7.26,-0.63,-0.45,1.11,-56.26,-0.62,-29.97,-1.00
5731.00,-5.70,0.14,-7.88,0.01,-0.90,1.56,-56.26,-0.62,-29.97,-1.00
5743.00,-9.45,-3.68,-5.08,1.36,-1.40,1.32,-56.26,-0.62,-29.97,-1.00
5758.00,-9.45,-3.68,-5.08,1.36,-1.40,1.32,-56.26,-0.62,-29.97,-1.00
5770.00,-8.50,-3.46,-4.50,0.13,-1.26,1.43,-51.50,-4.42,-31.72,-1.00
5782.00,-8.50,-3.46,-4.50,0.13,-1.26,1.43,-51.50,-4.42,-31.72,-1.00
5794.00,-6.89,-1.45,-8.27,-1.65,-1.17,1.58,-51.50,-4.42,-31.72,-1.00
5808.00,-7.21,-0.85,-8.08,-1.39,-1.63,1.68,-51.50,-4.42,-31.72,-1.00
5820.00,-7.21,-0.85,-8.08,-1.39,-1.63,1.68,-51.50,-4.42,-31.72,-1.00
5832.00,-6.66,-2.90,-7.15,-1.46,-2.19,1.74,-51.50,-4.42,-31.72,-1.00
5847.00,-7.89,-1.58,-4.32,-1.70,-2.43,1.94,-51.50,-4.42,-31.72,-1.00
5934.00,-8.21,-1.68,-4.89,-0.43,-1.47,1.06,-56.72,0.29,-29.97,-1.00
6022.00,-8.66,-2.19,-4.95,-0.74,-1.49,0.71,-56.72,0.29,-29.97,-1.00
6110.00,-8.64,-2.12,-5.06,-1.03,-1.58,0.93,-56.49,-1.69,-28.21,-1.00
6124.00,-8.57,-1.89,-4.87,-1.12,-1.61,1.02,-56.49,-1.69,-28.21,-1.00
6136.00,-8.57,-1.89,-4.87,-1.12,-1.61,1.02,-56.49,-1.69,-28.21,-1.00
6148.00,-8.93,-2.61,-4.34,-1.25,-1.43,0.91,-58.76,-1.08,-25.01,-1.00
6160.00,-8.93,-2.61,-4.34,-1.25,-1.43,0.91,-58.76,-1.08,-25.01,-1.00
6175.00,-8.62,-1.88,-4.59,-1.36,-1.30,0.86,-58.76,-1.08,-25.01,-1.00
6186.00,-8.66,-1.65,-4.84,-1.34,-1.26,0.83,-58.76,-1.08,-25.01,-1.00
6198.00,-8.66,-1.65,-4.84,-1.34,-1.26,0.83,-58.76,-1.08,-25.01,-1.00
6212.00,-8.62,-1.42,-5.44,-1.38,-1.27,0.81,-58.76,-1.08,-25.01,-1.00
6224.00,-8.56,-1.81,-5.32,-1.34,-1.36,0.77,-58.76,-1.08,-25.01,-1.00
6236.00,-8.56,-1.81,-5.32,-1.34,-1.36,0.77,-58.76,-1.08,-25.01,-1.00
6248.00,-8.72,-1.69,-4.37,-1.38,-1.43,0.78,-58.76,-1.08,-25.01,-1.00
6262.00,-8.72,-1.69,-4.37,-1.38,-1.43,0.78,-58.76,-1.08,-25.01,-1.00
6274.00,-8.65,-1.67,-4.74,-1.40,-1.35,0.77,-58.53,-0.32,-26.77,-1.00
6286.00,-8.62,-1.68,-5.03,-1.37,-1.31,0.76,-58.53,-0.32,-26.77,-1.00
6298.00,-8.62,-1.68,-5.03,-1.37,-1.31,0.76,-58.53,-0.32,-26.77,-1.00
6312.00,-8.64,-1.63,-5.01,-1.29,-1.31,0.76,-58.53,-0.32,-26.77,-1.00
6324.00,-8.61,-1.62,-5.06,-1.25,-1.32,0.75,-58.53,-0.32,-26.77,-1.00
6336.00,-8.61,-1.62,-5.06,-1.25,-1.32,0.75,-58.53,-0.32,-26.77,-1.00
6351.00,-8.60,-1.73,-4.97,-1.26,-1.35,0.74,-58.53,-0.32,-26.77,-1.00
6362.00,-8.60,-1.73,-4.97,-1.26,-1.35,0.74,-58.53,-0.32,-26.77,-1.00
6374.00,-8.70,-1.75,-4.79,-1.31,-1.38,0.75,-58.53,-0.32,-26.77,-1.00
6386.00,-8.79,-2.04,-4.46,-1.34,-1.37,0.78,-58.76,-0.47,-25.65,-1.00
6400.00,-8.79,-2.04,-4.46,-1.34,-1.37,0.78,-58.76,-0.47,-25.65,-1.00
6412.00,-8.77,-1.85,-4.74,-1.42,-1.36,0.85,-58.76,-0.47,-25.65,-1.00
6424.00,-8.57,-1.75,-4.90,-1.45,-1.36,0.84,-58.76,-0.47,-25.65,-1.00
6438.00,-8.57,-1.75,-4.90,-1.45,-1.36,0.84,-58.76,-0.47,-25.65,-1.00
6450.00,-8.55,-1.96,-5.32,-1.37,-1.37,0.82,-58.76,-0.47,-25.65,-1.00
6462.00,-8.55,-1.96,-5.32,-1.37,-1.37,0.82,-58.76,-0.47,-25.65,-1.00
6474.00,-8.59,-2.20,-4.92,-1.35,-1.43,0.84,-58.76,-0.47,-25.65,-1.00
6488.00,-8.56,-1.93,-5.25,-1.44,-1.52,0.91,-58.76,-0.47,-25.65,-1.00
6500.00,-8.56,-1.93,-5.25,-1.44,-1.52,0.91,-58.76,-0.47,-25.65,-1.00
6512.00,-8.92,-1.37,-4.46,-1.45,-1.66,0.92,-58.76,-0.47,-25.65,-1.00
6524.00,-9.15,-1.16,-4.25,-1.42,-1.62,0.80,-58.98,1.20,-25.49,-1.00
6538.00,-9.15,-1.16,-4.25,-1.42,-1.62,0.80,-58.98,1.20,-25.49,-1.00
6550.00,-9.35,-1.19,-4.06,-1.45,-1.56,0.66,-58.98,1.20,-25.49,-1.00
6562.00,-9.35,-1.19,-4.06,-1.45,-1.56,0.66,-58.98,1.20,-25.49,-1.00
6574.00,-9.06,-1.19,-3.95,-1.48,-1.52,0.54,-58.98,1.20,-25.49,-1.00
6588.00,-8.73,-2.28,-4.57,-1.48,-1.50,0.45,-58.98,1.20,-25.49,-1.00
6600.00,-8.73,-2.28,-4.57,-1.48,-1.50,0.45,-58.98,1.20,-25.49,-1.00
6612.00,-8.75,-1.67,-4.47,-1.47,-1.44,0.55,-58.98,1.20,-25.49,-1.00
6627.00,-8.79,-1.36,-5.44,-1.40,-1.32,0.56,-58.98,1.20,-25.49,-1.00
6638.00,-8.79,-1.36,-5.44,-1.40,-1.32,0.56,-58.98,1.20,-25.49,-1.00
6650.00,-8.27,-1.02,-5.61,-1.35,-1.30,0.51,-59.66,0.74,-25.33,-1.00
6662.00,-8.27,-1.02,-5.61,-1.35,-1.30,0.51,-59.66,0.74,-25.33,-1.00
6676.00,-8.50,-1.13,-6.46,-1.21,-1.35,0.46,-59.66,0.74,-25.33,-1.00
6688.00,-8.44,-2.09,-5.28,-1.09,-1.43,0.48,-59.66,0.74,-25.33,-1.00
6700.00,-8.44,-2.09,-5.28,-1.09,-1.43,0.48,-59.66,0.74,-25.33,-1.00
6712.00,-8.45,-1.35,-4.53,-1.04,-1.48,0.54,-59.66,0.74,-25.33,-1.00
6726.00,-9.11,-0.73,-5.31,-1.03,-1.42,0.51,-59.66,0.74,-25.33,-1.00
6738.00,-9.11,-0.73,-5.31,-1.03,-1.42,0.51,-59.66,0.74,-25.33,-1.00
6750.00,-8.64,-2.06,-4.51,-0.94,-1.39,0.43,-59.66,0.74,-25.33,-1.00
6764.00,-8.91,-1.56,-4.51,-0.95,-1.34,0.55,-58.98,-1.54,-22.30,-1.00
6777.00,-8.91,-1.56,-4.51,-0.95,-1.34,0.55,-58.98,-1.54,-22.30,-1.00
6788.00,-9.10,-0.75,-4.11,-1.05,-1.30,0.70,-58.98,-1.54,-22.30,-1.00
6800.00,-9.10,-0.75,-4.11,-1.05,-1.30,0.70,-58.98,-1.54,-22.30,-1.00
6815.00,-9.25,-0.69,-4.32,-1.11,-1.24,0.75,-58.98,-1.54,-22.30,-1.00
6826.00,-8.92,-1.45,-3.62,-1.11,-1.23,0.70,-58.98,-1.54,-22.30,-1.00
6838.00,-8.92,-1.45,-3.62,-1.11,-1.23,0.70,-58.98,-1.54,-22.30,-1.00
6850.00,-8.60,-2.97,-3.86,-1.07,-1.08,0.70,-58.98,-1.54,-22.30,-1.00
6864.00,-9.17,-0.90,-5.53,-1.09,-0.97,1.01,-58.98,-1.54,-22.30,-1.00
6876.00,-9.17,-0.90,-5.53,-1.09,-0.97,1.01,-58.98,-1.54,-22.30,-1.00
6888.00,-9.05,-1.14,-4.91,-1.05,-1.12,1.09,-60.34,-0.93,-23.90,-1.00
6902.00,-9.05,-1.14,-4.91,-1.05,-1.12,1.09,-60.34,-0.93,-23.90,-1.00
6914.00,-8.82,-0.85,-4.47,-1.07,-1.14,1.25,-60.34,-0.93,-23.90,-1.00
6926.00,-9.10,-1.39,-4.64,-1.08,-1.12,1.25,-60.34,-0.93,-23.90,-1.00
6938.00,-9.10,-1.39,-4.64,-1.08,-1.12,1.25,-60.34,-0.93,-23.90,-1.00
6952.00,-9.21,-1.12,-5.06,-1.13,-1.15,1.28,-60.34,-0.93,-23.90,-1.00
6964.00,-8.95,-0.79,-4.21,-1.18,-1.17,1.38,-60.34,-0.93,-23.90,-1.00
6976.00,-8.95,-0.79,-4.21,-1.18,-1.17,1.38,-60.34,-0.93,-23.90,-1.00
6988.00,-8.87,-1.58,-3.18,-1.24,-1.19,1.37,-60.34,-0.93,-23.90,-1.00
7002.00,-8.87,-1.58,-3.18,-1.24,-1.19,1.37,-60.34,-0.93,-23.90,-1.00
7014.00,-8.31,-2.47,-3.96,-1.39,-1.15,1.42,-60.34,-0.93,-23.90,-1.00
7026.00,-9.33,-0.06,-4.42,-1.49,-1.05,1.48,-58.76,1.35,-24.37,-1.00
7040.00,-9.33,-0.06,-4.42,-1.49,-1.05,1.48,-58.76,1.35,-24.37,-1.00
7052.00,-9.35,-0.51,-4.27,-1.43,-1.14,1.31,-58.76,1.35,-24.37,-1.00
7064.00,-9.35,-0.51,-4.27,-1.43,-1.14,1.31,-58.76,1.35,-24.37,-1.00
7076.00,-9.04,-1.50,-4.67,-1.43,-1.26,1.20,-58.76,1.35,-24.37,-1.00
7091.00,-8.59,-1.60,-4.13,-1.50,-1.30,1.16,-58.76,1.35,-24.37,-1.00
7102.00,-8.59,-1.60,-4.13,-1.50,-1.30,1.16,-58.76,1.35,-24.37,-1.00
7114.00,-9.05,-2.21,-3.78,-1.52,-1.33,1.02,-58.76,1.35,-24.37,-1.00
7126.00,-8.88,-2.11,-4.95,-1.60,-1.34,1.05,-58.76,1.35,-24.37,-1.00
7140.00,-8.88,-2.11,-4.95,-1.60,-1.34,1.05,-58.76,1.35,-24.37,-1.00
7152.00,-8.62,-2.54,-4.70,-1.68,-1.34,1.00,-60.34,3.63,-26.13,-1.00
7164.00,-8.62,-2.54,-4.70,-1.68,-1.34,1.00,-60.34,3.63,-26.13,-1.00
7178.00,-9.18,-1.17,-4.61,-1.74,-1.33,1.01,-60.34,3.63,-26.13,-1.00
7190.00,-8.97,-0.19,-4.71,-1.68,-1.36,0.82,-60.34,3.63,-26.13,-1.00
7202.00,-8.97,-0.19,-4.71,-1.68,-1.36,0.82,-60.34,3.63,-26.13,-1.00
7214.00,-9.15,-1.40,-4.15,-1.54,-1.44,0.43,-60.34,3.63,-26.13,-1.00
7228.00,-8.51,-1.36,-4.94,-1.47,-1.39,0.39,-60.34,3.63,-26.13,-1.00
7240.00,-8.51,-1.36,-4.94,-1.47,-1.39,0.39,-60.34,3.63,-26.13,-1.00
7252.00,-8.07,-1.62,-5.50,-1.43,-1.37,0.33,-60.34,3.63,-26.13,-1.00
7264.00,-8.07,-1.62,-5.50,-1.43,-1.37,0.33,-60.34,3.63,-26.13,-1.00
7278.00,-8.43,-0.47,-5.68,-1.42,-1.47,0.26,-60.57,4.99,-25.33,-1.00
7290.00,-7.96,-1.46,-5.09,-1.28,-1.46,0.13,-60.57,4.99,-25.33,-1.00
7302.00,-7.96,-1.46,-5.09,-1.28,-1.46,0.13,-60.57,4.99,-25.33,-1.00
7314.00,-8.54,-0.50,-5.66,-1.29,-1.42,0.25,-60.57,4.99,-25.33,-1.00
7328.00,-8.91,-0.65,-5.44,-1.22,-1.42,0.40,-60.57,4.99,-25.33,-1.00
7340.00,-8.91,-0.65,-5.44,-1.22,-1.42,0.40,-60.57,4.99,-25.33,-1.00
7352.00,-7.98,-0.99,-4.80,-1.24,-1.44,0.43,-60.57,4.99,-25.33,-1.00
7367.00,-8.92,-0.69,-5.42,-1.32,-1.43,0.53,-60.57,4.99,-25.33,-1.00
7378.00,-8.92,-0.69,-5.42,-1.32,-1.43,0.53,-60.57,4.99,-25.33,-1.00
7390.00,-8.86,-0.45,-5.48,-1.30,-1.40,0.60,-61.70,3.32,-25.17,-1.00
7402.00,-8.86,-0.45,-5.48,-1.30,-1.40,0.60,-61.70,3.32,-25.17,-1.00
7416.00,-8.89,-0.19,-4.99,-1.21,-1.36,0.74,-61.70,3.32,-25.17,-1.00
7428.00,-8.88,-1.26,-4.44,-1.17,-1.36,0.71,-61.70,3.32,-25.17,-1.00
7440.00,-8.88,-1.26,-4.44,-1.17,-1.36,0.71,-61.70,3.32,-25.17,-1.00
7452.00,-8.94,-0.73,-4.58,-1.19,-1.32,0.73,-61.70,3.32,-25.17,-1.00
7466.00,-8.99,-0.69,-4.66,-1.17,-1.28,0.71,-61.70,3.32,-25.17,-1.00
7478.00,-8.99,-0.69,-4.66,-1.17,-1.28,0.71,-61.70,3.32,-25.17,-1.00
7490.00,-8.88,-0.99,-4.59,-1.15,-1.29,0.70,-61.70,3.32,-25.17,-1.00
7504.00,-8.88,-0.99,-4.59,-1.15,-1.29,0.70,-61.70,3.32,-25.17,-1.00
7591.00,-8.68,-1.65,-4.81,-1.17,-1.26,0.79,-59.89,1.20,-24.85,-1.00
7680.00,-8.72,-1.97,-4.29,-1.09,-1.25,0.90,-60.57,2.56,-24.37,-1.00
7767.00,-9.13,-0.65,-4.65,-1.24,-1.26,0.95,-61.25,2.71,-23.90,-1.00
7781.00,-9.13,-0.65,-4.65,-1.24,-1.26,0.95,-61.25,2.71,-23.90,-1.00
7793.00,-9.45,0.82,-5.13,-1.29,-1.24,0.99,-61.25,2.71,-23.90,-1.00
7805.00,-8.84,-1.08,-4.78,-1.21,-1.26,0.93,-61.25,2.71,-23.90,-1.00
7817.00,-8.84,-1.08,-4.78,-1.21,-1.26,0.93,-61.25,2.71,-23.90,-1.00
7832.00,-8.76,-1.36,-4.54,-1.24,-1.27,0.96,-61.25,2.71,-23.90,-1.00
7843.00,-8.76,-1.36,-4.54,-1.24,-1.27,0.96,-61.25,2.71,-23.90,-1.00
7855.00,-8.59,-1.71,-4.24,-1.24,-1.27,0.95,-61.25,2.71,-23.90,-1.00
7867.00,-8.95,-1.07,-4.50,-1.29,-1.25,0.95,-61.25,2.71,-23.90,-1.00
7881.00,-8.95,-1.07,-4.50,-1.29,-1.25,0.95,-61.25,2.71,-23.90,-1.00
7893.00,-9.23,-0.04,-4.67,-1.30,-1.23,1.01,-61.02,4.38,-24.06,-1.00
7905.00,-8.87,-0.25,-4.60,-1.31,-1.22,1.03,-61.02,4.38,-24.06,-1.00
7919.00,-8.87,-0.25,-4.60,-1.31,-1.22,1.03,-61.02,4.38,-24.06,-1.00
7931.00,-9.17,-0.51,-4.23,-1.35,-1.28,0.98,-61.02,4.38,-24.06,-1.00
7943.00,-9.17,-0.51,-4.23,-1.35,-1.28,0.98,-61.02,4.38,-24.06,-1.00
7955.00,-8.60,-2.36,-4.69,-1.32,-1.30,0.86,-61.02,4.38,-24.06,-1.00
7969.00,-8.88,-1.78,-3.99,-1.38,-1.31,0.94,-61.02,4.38,-24.06,-1.00
7981.00,-8.88,-1.78,-3.99,-1.38,-1.31,0.94,-61.02,4.38,-24.06,-1.00
7993.00,-9.23,-0.97,-4.01,-1.41,-1.29,0.94,-61.02,4.38,-24.06,-1.00
8005.00,-9.10,-0.58,-4.47,-1.50,-1.31,0.98,-61.02,4.38,-24.06,-1.00
8019.00,-9.10,-0.58,-4.47,-1.50,-1.31,0.98,-61.02,4.38,-24.06,-1.00
8031.00,-8.95,-0.86,-4.73,-1.53,-1.36,0.92,-59.66,5.90,-25.65,-1.00
8043.00,-8.95,-0.86,-4.73,-1.53,-1.36,0.92,-59.66,5.90,-25.65,-1.00
8057.00,-8.78,-1.12,-4.54,-1.51,-1.39,0.77,-59.66,5.90,-25.65,-1.00
8069.00,-8.41,-2.05,-4.15,-1.46,-1.36,0.62,-59.66,5.90,-25.65,-1.00
8081.00,-8.41,-2.05,-4.15,-1.46,-1.36,0.62,-59.66,5.90,-25.65,-1.00
8093.00,-8.83,-1.02,-5.11,-1.48,-1.32,0.61,-59.66,5.90,-25.65,-1.00
8108.00,-8.49,-1.00,-5.45,-1.39,-1.35,0.64,-59.66,5.90,-25.65,-1.00
8119.00,-8.49,-1.00,-5.45,-1.39,-1.35,0.64,-59.66,5.90,-25.65,-1.00
8131.00,-8.74,-0.79,-4.38,-1.40,-1.41,0.59,-59.66,5.90,-25.65,-1.00
8143.00,-8.74,-0.79,-4.38,-1.40,-1.41,0.59,-59.66,5.90,-25.65,-1.00
8157.00,-8.87,-0.93,-4.97,-1.37,-1.38,0.57,-61.93,5.29,-23.42,-1.00
8169.00,-8.67,-1.50,-5.02,-1.33,-1.37,0.48,-61.93,5.29,-23.42,-1.00
8181.00,-8.67,-1.50,-5.02,-1.33,-1.37,0.48,-61.93,5.29,-23.42,-1.00
8195.00,-8.92,-0.64,-4.88,-1.35,-1.37,0.55,-61.93,5.29,-23.42,-1.00
8207.00,-8.55,-0.60,-5.13,-1.33,-1.41,0.53,-61.93,5.29,-23.42,-1.00
8219.00,-8.55,-0.60,-5.13,-1.33,-1.41,0.53,-61.93,5.29,-23.42,-1.00
8231.00,-9.10,-1.12,-5.26,-1.31,-1.41,0.50,-61.93,5.29,-23.42,-1.00
8245.00,-9.10,-1.12,-5.26,-1.31,-1.41,0.50,-61.93,5.29,-23.42,-1.00
8257.00,-8.97,-0.48,-5.23,-1.31,-1.37,0.50,-61.93,5.29,-23.42,-1.00
8269.00,-8.77,-0.60,-4.91,-1.21,-1.37,0.54,-62.38,3.47,-23.74,-1.00
8281.00,-8.77,-0.60,-4.91,-1.21,-1.37,0.54,-62.38,3.47,-23.74,-1.00
8296.00,-8.49,-0.85,-4.22,-1.15,-1.38,0.64,-62.38,3.47,-23.74,-1.00
8307.00,-9.12,0.22,-4.85,-1.18,-1.32,0.71,-62.38,3.47,-23.74,-1.00
8319.00,-9.12,0.22,-4.85,-1.18,-1.32,0.71,-62.38,3.47,-23.74,-1.00
8331.00,-8.95,-0.16,-5.19,-1.16,-1.30,0.67,-62.38,3.47,-23.74,-1.00
8345.00,-8.95,-0.16,-5.19,-1.16,-1.30,0.67,-62.38,3.47,-23.74,-1.00
8357.00,-8.96,0.15,-4.64,-1.15,-1.32,0.68,-62.38,3.47,-23.74,-1.00
8369.00,-9.00,-0.51,-4.65,-1.13,-1.31,0.66,-62.38,3.47,-23.74,-1.00
8383.00,-9.00,-0.51,-4.65,-1.13,-1.31,0.66,-62.38,3.47,-23.74,-1.00
8395.00,-9.04,-0.38,-4.34,-1.13,-1.31,0.71,-61.93,4.08,-24.06,-1.00
8407.00,-9.05,-0.53,-4.32,-1.15,-1.29,0.69,-61.93,4.08,-24.06,-1.00
8419.00,-9.05,-0.53,-4.32,-1.15,-1.29,0.69,-61.93,4.08,-24.06,-1.00
8433.00,-8.92,-0.99,-4.41,-1.17,-1.27,0.65,-61.93,4.08,-24.06,-1.00
8445.00,-8.92,-0.99,-4.41,-1.17,-1.27,0.65,-61.93,4.08,-24.06,-1.00
8457.00,-8.87,-1.12,-4.81,-1.19,-1.26,0.65,-61.93,4.08,-24.06,-1.00
8469.00,-8.75,-1.43,-4.75,-1.17,-1.27,0.68,-61.93,4.08,-24.06,-1.00
8483.00,-8.75,-1.43,-4.75,-1.17,-1.27,0.68,-61.93,4.08,-24.06,-1.00
8495.00,-9.07,0.67,-5.23,-1.16,-1.20,0.94,-61.93,4.08,-24.06,-1.00
8507.00,-8.94,1.21,-4.97,-1.07,-1.18,1.09,-61.93,4.08,-24.06,-1.00
8519.00,-8.94,1.21,-4.97,-1.07,-1.18,1.09,-61.93,4.08,-24.06,-1.00
8533.00,-9.10,0.20,-4.73,-1.02,-1.18,1.08,-61.25,3.93,-24.22,-1.00
8545.00,-9.10,0.20,-4.73,-1.02,-1.18,1.08,-61.25,3.93,-24.22,-1.00
8557.00,-9.09,0.06,-4.19,-1.00,-1.20,1.12,-61.25,3.93,-24.22,-1.00
8572.00,-9.28,-0.87,-3.94,-1.00,-1.20,1.10,-61.25,3.93,-24.22,-1.00
8583.00,-9.28,-0.87,-3.94,-1.00,-1.20,1.10,-61.25,3.93,-24.22,-1.00
8595.00,-8.93,-1.36,-4.39,-1.06,-1.17,1.19,-61.25,3.93,-24.22,-1.00
8607.00,-8.72,-1.28,-3.90,-1.14,-1.20,1.17,-61.25,3.93,-24.22,-1.00
8621.00,-8.72,-1.28,-3.90,-1.14,-1.20,1.17,-61.25,3.93,-24.22,-1.00
8633.00,-9.41,-0.63,-3.64,-1.22,-1.19,1.16,-61.25,3.93,-24.22,-1.00
8645.00,-9.41,-0.63,-3.64,-1.22,-1.19,1.16,-61.25,3.93,-24.22,-1.00
8657.00,-9.35,-0.26,-4.31,-1.24,-1.20,1.11,-60.34,5.14,-24.85,-1.00
8671.00,-9.16,-1.17,-4.03,-1.23,-1.27,1.05,-60.34,5.14,-24.85,-1.00
8683.00,-9.16,-1.17,-4.03,-1.23,-1.27,1.05,-60.34,5.14,-24.85,-1.00
8695.00,-9.05,-2.09,-4.50,-1.29,-1.28,1.10,-60.34,5.14,-24.85,-1.00
8709.00,-8.92,-1.24,-3.38,-1.40,-1.31,1.16,-60.34,5.14,-24.85,-1.00
8721.00,-8.92,-1.24,-3.38,-1.40,-1.31,1.16,-60.34,5.14,-24.85,-1.00
8733.00,-9.09,-0.76,-3.75,-1.50,-1.33,1.16,-60.34,5.14,-24.85,-1.00
8745.00,-9.09,-0.76,-3.75,-1.50,-1.33,1.16,-60.34,5.14,-24.85,-1.00
8759.00,-8.97,-1.11,-3.77,-1.53,-1.37,1.09,-60.34,5.14,-24.85,-1.00
8771.00,-8.86,-1.09,-4.77,-1.56,-1.37,0.89,-59.21,6.21,-25.01,-1.00
8783.00,-8.86,-1.09,-4.77,-1.56,-1.37,0.89,-59.21,6.21,-25.01,-1.00
8795.00,-8.95,-1.35,-5.01,-1.56,-1.38,0.67,-59.21,6.21,-25.01,-1.00
8809.00,-8.73,-1.84,-4.76,-1.56,-1.43,0.51,-59.21,6.21,-25.01,-1.00
8821.00,-8.73,-1.84,-4.76,-1.56,-1.43,0.51,-59.21,6.21,-25.01,-1.00
8833.00,-8.21,-1.87,-4.95,-1.50,-1.41,0.52,-59.21,6.21,-25.01,-1.00
8845.00,-8.21,-1.87,-4.95,-1.50,-1.41,0.52,-59.21,6.21,-25.01,-1.00
8859.00,-8.80,0.00,-4.71,-1.55,-1.40,0.53,-59.21,6.21,-25.01,-1.00
8871.00,-8.81,-0.65,-5.61,-1.46,-1.37,0.38,-59.21,6.21,-25.01,-1.00
8883.00,-8.81,-0.65,-5.61,-1.46,-1.37,0.38,-59.21,6.21,-25.01,-1.00
8898.00,-8.65,-1.07,-5.99,-1.43,-1.39,0.31,-59.21,6.21,-25.01,-1.00
8909.00,-8.23,-0.82,-5.66,-1.32,-1.39,0.39,-61.02,6.81,-24.37,-1.00
8921.00,-8.23,-0.82,-5.66,-1.32,-1.39,0.39,-61.02,6.81,-24.37,-1.00
8933.00,-8.71,0.70,-5.27,-1.28,-1.43,0.48,-61.02,6.81,-24.37,-1.00
8947.00,-8.94,-0.63,-4.98,-1.28,-1.41,0.46,-61.02,6.81,-24.37,-1.00
8959.00,-8.94,-0.63,-4.98,-1.28,-1.41,0.46,-61.02,6.81,-24.37,-1.00
8971.00,-8.81,-1.01,-5.25,-1.29,-1.36,0.41,-61.02,6.81,-24.37,-1.00
8983.00,-8.81,-1.01,-5.25,-1.29,-1.36,0.41,-61.02,6.81,-24.37,-1.00
8997.00,-8.58,-0.58,-5.35,-1.22,-1.38,0.52,-61.02,6.81,-24.37,-1.00
9009.00,-9.18,0.50,-4.78,-1.17,-1.35,0.64,-61.02,6.81,-24.37,-1.00
9021.00,-9.18,0.50,-4.78,-1.17,-1.35,0.64,-61.02,6.81,-24.37,-1.00
9035.00,-9.09,0.64,-4.14,-1.13,-1.36,0.70,-61.48,7.12,-23.42,-1.00
9047.00,-9.03,-0.30,-4.32,-1.11,-1.34,0.71,-61.48,7.12,-23.42,-1.00
9059.00,-9.03,-0.30,-4.32,-1.11,-1.34,0.71,-61.48,7.12,-23.42,-1.00
9071.00,-8.96,-0.74,-4.08,-1.12,-1.31,0.75,-61.48,7.12,-23.42,-1.00
9085.00,-8.96,-0.74,-4.08,-1.12,-1.31,0.75,-61.48,7.12,-23.42,-1.00
9097.00,-9.16,-0.35,-3.96,-1.13,-1.29,0.76,-61.48,7.12,-23.42,-1.00
9109.00,-9.09,-0.48,-4.05,-1.16,-1.25,0.73,-61.48,7.12,-23.42,-1.00
9121.00,-9.09,-0.48,-4.05,-1.16,-1.25,0.73,-61.48,7.12,-23.42,-1.00
9135.00,-8.89,-0.77,-4.72,-1.17,-1.20,0.75,-61.48,7.12,-23.42,-1.00
9147.00,-9.02,-0.29,-5.07,-1.18,-1.21,0.86,-59.66,5.29,-23.42,-1.00
9159.00,-9.02,-0.29,-5.07,-1.18,-1.21,0.86,-59.66,5.29,-23.42,-1.00
9171.00,-8.73,-0.48,-5.05,-1.15,-1.25,0.96,-59.66,5.29,-23.42,-1.00
9185.00,-8.73,-0.48,-5.05,-1.15,-1.25,0.96,-59.66,5.29,-23.42,-1.00
9197.00,-8.97,-0.21,-4.60,-1.15,-1.25,1.00,-59.66,5.29,-23.42,-1.00
9209.00,-8.75,-0.17,-4.80,-1.14,-1.23,1.01,-59.66,5.29,-23.42,-1.00
9223.00,-8.75,-0.17,-4.80,-1.14,-1.23,1.01,-59.66,5.29,-23.42,-1.00
9235.00,-8.89,-0.74,-4.68,-1.10,-1.22,1.03,-59.66,5.29,-23.42,-1.00
9247.00,-8.62,-1.89,-3.82,-1.14,-1.25,1.00,-59.66,5.29,-23.42,-1.00
9259.00,-8.62,-1.89,-3.82,-1.14,-1.25,1.00,-59.66,5.29,-23.42,-1.00
9273.00,-9.36,-0.47,-4.81,-1.19,-1.20,1.05,-61.93,7.42,-24.37,-1.00
9285.00,-9.36,-0.47,-4.81,-1.19,-1.20,1.05,-61.93,7.42,-24.37,-1.00
9297.00,-9.13,-0.40,-3.94,-1.23,-1.21,1.06,-61.93,7.42,-24.37,-1.00
9309.00,-9.52,-0.71,-4.66,-1.26,-1.23,1.02,-61.93,7.42,-24.37,-1.00
9324.00,-9.52,-0.71,-4.66,-1.26,-1.23,1.02,-61.93,7.42,-24.37,-1.00
9335.00,-8.77,-1.52,-2.60,-1.26,-1.25,1.03,-61.93,7.42,-24.37,-1.00
9347.00,-9.12,-1.15,-4.74,-1.36,-1.24,1.01,-61.93,7.42,-24.37,-1.00
9361.00,-9.12,-1.15,-4.74,-1.36,-1.24,1.01,-61.93,7.42,-24.37,-1.00
9373.00,-8.53,-1.46,-4.94,-1.34,-1.30,0.91,-61.93,7.42,-24.37,-1.00
9385.00,-8.53,-1.46,-4.94,-1.34,-1.30,0.91,-61.93,7.42,-24.37,-1.00
9397.00,-9.28,-1.47,-4.54,-1.36,-1.32,0.80,-61.93,7.42,-24.37,-1.00
9411.00,-9.08,-1.76,-4.03,-1.38,-1.36,0.81,-61.93,6.81,-25.01,-1.00
9423.00,-9.08,-1.76,-4.03,-1.38,-1.36,0.81,-61.93,6.81,-25.01,-1.00
9435.00,-8.89,-0.96,-4.32,-1.46,-1.34,0.85,-61.93,6.81,-25.01,-1.00
9447.00,-8.90,-0.79,-4.81,-1.53,-1.32,0.85,-61.93,6.81,-25.01,-1.00
9461.00,-8.90,-0.79,-4.81,-1.53,-1.32,0.85,-61.93,6.81,-25.01,-1.00
9473.00,-9.07,-0.53,-4.46,-1.53,-1.31,0.84,-61.93,6.81,-25.01,-1.00
9485.00,-9.07,-0.53,-4.46,-1.53,-1.31,0.84,-61.93,6.81,-25.01,-1.00
9499.00,-8.66,-1.37,-4.33,-1.52,-1.36,0.64,-61.93,6.81,-25.01,-1.00
9511.00,-9.03,-0.23,-4.51,-1.56,-1.36,0.55,-61.93,6.81,-25.01,-1.00
9523.00,-9.03,-0.23,-4.51,-1.56,-1.36,0.55,-61.93,6.81,-25.01,-1.00
9535.00,-8.48,-0.99,-5.24,-1.51,-1.33,0.47,-61.48,8.33,-24.06,-1.00
9549.00,-8.58,-1.08,-5.73,-1.44,-1.32,0.46,-61.48,8.33,-24.06,-1.00
9561.00,-8.58,-1.08,-5.73,-1.44,-1.32,0.46,-61.48,8.33,-24.06,-1.00
9573.00,-8.63,-0.68,-5.84,-1.37,-1.36,0.45,-61.48,8.33,-24.06,-1.00
9585.00,-8.63,-0.68,-5.84,-1.37,-1.36,0.45,-61.48,8.33,-24.06,-1.00
9599.00,-8.65,-0.27,-5.48,-1.31,-1.38,0.41,-61.48,8.33,-24.06,-1.00
9611.00,-8.81,-0.59,-5.92,-1.24,-1.34,0.42,-61.48,8.33,-24.06,-1.00
9623.00,-8.81,-0.59,-5.92,-1.24,-1.34,0.42,-61.48,8.33,-24.06,-1.00
9635.00,-9.06,0.26,-5.56,-1.26,-1.36,0.53,-61.48,8.33,-24.06,-1.00
9649.00,-8.84,0.09,-5.00,-1.18,-1.38,0.52,-62.61,7.27,-24.22,-1.00
9661.00,-8.84,0.09,-5.00,-1.18,-1.38,0.52,-62.61,7.27,-24.22,-1.00
9673.00,-9.40,-0.14,-5.38,-1.17,-1.38,0.51,-62.61,7.27,-24.22,-1.00
9687.00,-8.83,-1.12,-4.00,-1.14,-1.38,0.47,-62.61,7.27,-24.22,-1.00
9699.00,-8.83,-1.12,-4.00,-1.14,-1.38,0.47,-62.61,7.27,-24.22,-1.00
9711.00,-8.55,-1.79,-3.88,-1.16,-1.35,0.60,-62.61,7.27,-24.22,-1.00
9723.00,-8.55,-1.79,-3.88,-1.16,-1.35,0.60,-62.61,7.27,-24.22,-1.00
9738.00,-8.89,-0.36,-3.93,-1.22,-1.32,0.70,-62.61,7.27,-24.22,-1.00
9749.00,-8.94,-0.28,-4.79,-1.18,-1.30,0.70,-62.61,7.27,-24.22,-1.00
9761.00,-8.94,-0.28,-4.79,-1.18,-1.30,0.70,-62.61,7.27,-24.22,-1.00
9773.00,-8.92,-0.02,-4.28,-1.18,-1.31,0.74,-61.48,5.29,-23.42,-1.00
9787.00,-8.95,-0.37,-4.91,-1.17,-1.27,0.73,-61.48,5.29,-23.42,-1.00
9799.00,-8.95,-0.37,-4.91,-1.17,-1.27,0.73,-61.48,5.29,-23.42,-1.00
9811.00,-9.15,-0.18,-4.27,-1.16,-1.30,0.79,-61.48,5.29,-23.42,-1.00
9825.00,-9.15,-0.18,-4.27,-1.16,-1.30,0.79,-61.48,5.29,-23.42,-1.00
9837.00,-9.03,-0.14,-3.82,-1.17,-1.29,0.75,-61.48,5.29,-23.42,-1.00
9849.00,-9.08,-0.45,-4.41,-1.16,-1.21,0.70,-61.48,5.29,-23.42,-1.00
9861.00,-9.08,-0.45,-4.41,-1.16,-1.21,0.70,-61.48,5.29,-23.42,-1.00
9875.00,-8.93,-0.84,-4.50,-1.16,-1.22,0.69,-61.48,5.29,-23.42,-1.00
9964.00,-9.08,0.26,-3.57,-1.03,-1.27,1.09,-61.48,5.90,-23.10,-1.00
10051.00,-9.09,-0.93,-4.74,-1.27,-1.23,1.04,-62.61,6.66,-23.90,-1.00
10139.00,-9.14,-0.82,-4.05,-1.34,-1.33,0.87,-62.61,6.66,-23.90,-1.00
10153.00,-9.25,-1.81,-4.22,-1.37,-1.33,0.81,-61.93,7.42,-23.42,-1.00
10165.00,-9.25,-1.81,-4.22,-1.37,-1.33,0.81,-61.93,7.42,-23.42,-1.00
10177.00,-9.24,-0.94,-3.39,-1.47,-1.33,0.81,-61.93,7.42,-23.42,-1.00
10189.00,-9.21,-1.02,-4.54,-1.50,-1.32,0.76,-61.93,7.42,-23.42,-1.00
10203.00,-9.21,-1.02,-4.54,-1.50,-1.32,0.76,-61.93,7.42,-23.42,-1.00
10215.00,-9.18,-0.83,-4.80,-1.57,-1.36,0.70,-61.93,7.42,-23.42,-1.00
10227.00,-9.18,-0.83,-4.80,-1.57,-1.36,0.70,-61.93,7.42,-23.42,-1.00
10242.00,-9.05,-0.75,-3.80,-1.57,-1.38,0.61,-61.93,7.42,-23.42,-1.00
10253.00,-8.56,-0.67,-4.59,-1.61,-1.35,0.53,-61.93,7.42,-23.42,-1.00
10265.00,-8.56,-0.67,-4.59,-1.61,-1.35,0.53,-61.93,7.42,-23.42,-1.00
10277.00,-8.39,-0.91,-5.35,-1.61,-1.33,0.51,-61.70,7.27,-23.90,-1.00
10291.00,-8.32,-0.85,-4.71,-1.56,-1.36,0.52,-61.70,7.27,-23.90,-1.00
10303.00,-8.32,-0.85,-4.71,-1.56,-1.36,0.52,-61.70,7.27,-23.90,-1.00
10315.00,-8.40,-0.43,-5.72,-1.49,-1.37,0.54,-61.70,7.27,-23.90,-1.00
10329.00,-8.58,0.16,-6.22,-1.43,-1.36,0.53,-61.70,7.27,-23.90,-1.00
10341.00,-8.58,0.16,-6.22,-1.43,-1.36,0.53,-61.70,7.27,-23.90,-1.00
10353.00,-8.59,-0.43,-4.59,-1.31,-1.40,0.53,-61.70,7.27,-23.90,-1.00
10365.00,-8.59,-0.43,-4.59,-1.31,-1.40,0.53,-61.70,7.27,-23.90,-1.00
10379.00,-8.86,-0.65,-5.16,-1.29,-1.37,0.51,-61.70,7.27,-23.90,-1.00
10391.00,-8.71,0.33,-5.11,-1.25,-1.35,0.54,-61.70,7.27,-23.90,-1.00
10403.00,-8.71,0.33,-5.11,-1.25,-1.35,0.54,-61.70,7.27,-23.90,-1.00
10415.00,-8.52,0.21,-4.17,-1.18,-1.36,0.57,-62.16,7.87,-23.58,-1.00
10429.00,-9.29,0.40,-5.06,-1.12,-1.33,0.61,-62.16,7.87,-23.58,-1.00
10441.00,-9.29,0.40,-5.06,-1.12,-1.33,0.61,-62.16,7.87,-23.58,-1.00
10453.00,-8.88,-1.04,-4.80,-1.08,-1.34,0.55,-62.16,7.87,-23.58,-1.00
10465.00,-8.88,-1.04,-4.80,-1.08,-1.34,0.55,-62.16,7.87,-23.58,-1.00
10479.00,-8.95,-0.45,-4.87,-1.09,-1.32,0.61,-62.16,7.87,-23.58,-1.00
10491.00,-8.91,-0.11,-4.83,-1.09,-1.32,0.66,-62.16,7.87,-23.58,-1.00
10503.00,-8.91,-0.11,-4.83,-1.09,-1.32,0.66,-62.16,7.87,-23.58,-1.00
10518.00,-9.20,0.57,-4.20,-1.11,-1.32,0.78,-62.16,7.87,-23.58,-1.00
10529.00,-8.94,-0.77,-4.07,-1.11,-1.33,0.76,-63.97,6.66,-21.98,-1.00
10542.00,-8.94,-0.77,-4.07,-1.11,-1.33,0.76,-63.97,6.66,-21.98,-1.00
10553.00,-9.06,-0.44,-3.90,-1.16,-1.34,0.76,-63.97,6.66,-21.98,-1.00
10567.00,-9.06,-0.44,-3.90,-1.16,-1.34,0.76,-63.97,6.66,-21.98,-1.00
10579.00,-9.31,0.13,-3.91,-1.16,-1.32,0.78,-63.97,6.66,-21.98,-1.00
10591.00,-9.17,0.10,-3.80,-1.19,-1.29,0.72,-63.97,6.66,-21.98,-1.00
10603.00,-9.17,0.10,-3.80,-1.19,-1.29,0.72,-63.97,6.66,-21.98,-1.00
10617.00,-9.01,-0.45,-4.49,-1.19,-1.22,0.62,-63.97,6.66,-21.98,-1.00
10629.00,-8.96,-1.27,-5.15,-1.16,-1.21,0.70,-63.97,6.66,-21.98,-1.00
10641.00,-8.96,-1.27,-5.15,-1.16,-1.21,0.70,-63.97,6.66,-21.98,-1.00
10655.00,-8.70,-0.22,-4.74,-1.14,-1.25,1.02,-63.74,6.21,-22.78,-1.00
10667.00,-8.70,-0.22,-4.74,-1.14,-1.25,1.02,-63.74,6.21,-22.78,-1.00
10679.00,-9.40,0.23,-4.68,-1.10,-1.24,1.05,-63.74,6.21,-22.78,-1.00
10691.00,-9.13,-0.30,-4.40,-1.09,-1.28,1.03,-63.74,6.21,-22.78,-1.00
10706.00,-9.13,-0.30,-4.40,-1.09,-1.28,1.03,-63.74,6.21,-22.78,-1.00
10717.00,-9.31,0.25,-4.09,-1.14,-1.27,1.06,-63.74,6.21,-22.78,-1.00
10729.00,-9.12,-0.92,-3.97,-1.09,-1.24,1.06,-63.74,6.21,-22.78,-1.00
10741.00,-9.12,-0.92,-3.97,-1.09,-1.24,1.06,-63.74,6.21,-22.78,-1.00
10755.00,-8.99,-1.00,-4.32,-1.15,-1.22,1.11,-63.74,6.21,-22.78,-1.00
10767.00,-8.99,-1.00,-4.32,-1.15,-1.22,1.11,-63.74,6.21,-22.78,-1.00
10779.00,-9.33,0.01,-3.08,-1.21,-1.21,1.09,-63.97,7.27,-23.58,-1.00
10793.00,-9.15,-0.39,-4.99,-1.24,-1.20,1.06,-63.97,7.27,-23.58,-1.00
10805.00,-9.15,-0.39,-4.99,-1.24,-1.20,1.06,-63.97,7.27,-23.58,-1.00
10817.00,-9.69,-0.30,-3.33,-1.28,-1.27,1.04,-63.97,7.27,-23.58,-1.00
10829.00,-9.49,-0.24,-4.47,-1.32,-1.26,1.02,-63.97,7.27,-23.58,-1.00
10843.00,-9.49,-0.24,-4.47,-1.32,-1.26,1.02,-63.97,7.27,-23.58,-1.00
10855.00,-9.16,-1.00,-4.40,-1.34,-1.27,1.02,-63.97,7.27,-23.58,-1.00
10867.00,-9.16,-1.00,-4.40,-1.34,-1.27,1.02,-63.97,7.27,-23.58,-1.00
10881.00,-9.38,-0.21,-3.95,-1.41,-1.31,0.98,-63.97,7.27,-23.58,-1.00
10893.00,-8.96,-0.52,-4.73,-1.43,-1.37,0.81,-63.97,7.27,-23.58,-1.00
10905.00,-8.96,-0.52,-4.73,-1.43,-1.37,0.81,-63.97,7.27,-23.58,-1.00
10917.00,-9.61,-0.32,-3.65,-1.42,-1.39,0.69,-62.61,10.61,-24.85,-1.00
10931.00,-9.19,-1.63,-4.07,-1.45,-1.34,0.57,-62.61,10.61,-24.85,-1.00
10943.00,-9.19,-1.63,-4.07,-1.45,-1.34,0.57,-62.61,10.61,-24.85,-1.00
10955.00,-9.12,-0.86,-5.32,-1.56,-1.35,0.57,-62.61,10.61,-24.85,-1.00
10967.00,-9.12,-0.86,-5.32,-1.56,-1.35,0.57,-62.61,10.61,-24.85,-1.00
10982.00,-8.93,0.30,-5.04,-1.57,-1.39,0.52,-62.61,10.61,-24.85,-1.00
10993.00,-8.86,-0.83,-4.53,-1.57,-1.37,0.45,-62.61,10.61,-24.85,-1.00
11005.00,-8.86,-0.83,-4.53,-1.57,-1.37,0.45,-62.61,10.61,-24.85,-1.00
11019.00,-8.65,-0.57,-5.63,-1.61,-1.33,0.48,-62.61,10.61,-24.85,-1.00
11031.00,-8.46,-0.10,-5.73,-1.51,-1.33,0.47,-62.61,7.87,-23.58,-1.00
11043.00,-8.46,-0.10,-5.73,-1.51,-1.33,0.47,-62.61,7.87,-23.58,-1.00
11055.00,-8.86,-0.20,-5.63,-1.42,-1.38,0.47,-62.61,7.87,-23.58,-1.00
11069.00,-8.35,-0.65,-5.03,-1.32,-1.38,0.48,-62.61,7.87,-23.58,-1.00
11081.00,-8.35,-0.65,-5.03,-1.32,-1.38,0.48,-62.61,7.87,-23.58,-1.00
11093.00,-9.05,-0.77,-5.67,-1.33,-1.34,0.50,-62.61,7.87,-23.58,-1.00
11105.00,-9.05,-0.77,-5.67,-1.33,-1.34,0.50,-62.61,7.87,-23.58,-1.00
11119.00,-8.57,-0.12,-4.79,-1.25,-1.37,0.59,-62.61,7.87,-23.58,-1.00
11131.00,-8.70,-0.79,-4.49,-1.19,-1.35,0.62,-62.61,7.87,-23.58,-1.00
11143.00,-8.70,-0.79,-4.49,-1.19,-1.35,0.62,-62.61,7.87,-23.58,-1.00
11158.00,-9.22,0.10,-5.19,-1.20,-1.32,0.66,-65.10,8.63,-23.10,-1.00
11169.00,-8.89,-0.46,-4.64,-1.13,-1.32,0.62,-65.10,8.63,-23.10,-1.00
11181.00,-8.89,-0.46,-4.64,-1.13,-1.32,0.62,-65.10,8.63,-23.10,-1.00
11193.00,-9.23,0.51,-4.94,-1.12,-1.31,0.62,-65.10,8.63,-23.10,-1.00
11207.00,-9.23,0.51,-4.94,-1.12,-1.31,0.62,-65.10,8.63,-23.10,-1.00
11219.00,-9.01,-0.16,-4.05,-1.10,-1.34,0.61,-65.10,8.63,-23.10,-1.00
11231.00,-9.15,0.07,-4.54,-1.11,-1.31,0.66,-65.10,8.63,-23.10,-1.00
11243.00,-9.15,0.07,-4.54,-1.11,-1.31,0.66,-65.10,8.63,-23.10,-1.00
11257.00,-8.95,-1.49,-3.74,-1.05,-1.30,0.67,-65.10,8.63,-23.10,-1.00
11269.00,-8.99,-0.74,-4.00,-1.16,-1.29,0.72,-65.10,8.63,-23.10,-1.00
11281.00,-8.99,-0.74,-4.00,-1.16,-1.29,0.72,-65.10,8.63,-23.10,-1.00
11295.00,-9.19,-0.30,-4.08,-1.17,-1.27,0.70,-65.10,8.63,-23.10,-1.00
11308.00,-9.19,-0.30,-4.08,-1.17,-1.27,0.70,-65.10,8.63,-23.10,-1.00
11320.00,-9.18,-0.31,-3.99,-1.18,-1.26,0.66,-65.10,8.63,-23.10,-1.00
11332.00,-9.12,-0.31,-4.17,-1.18,-1.23,0.64,-65.10,8.63,-23.10,-1.00
11346.00,-9.12,-0.31,-4.17,-1.18,-1.23,0.64,-65.10,8.63,-23.10,-1.00
11358.00,-8.77,-1.43,-4.67,-1.16,-1.19,0.63,-65.10,8.63,-23.10,-1.00
11370.00,-8.94,0.29,-5.34,-1.13,-1.18,0.91,-65.10,8.63,-23.10,-1.00
11382.00,-8.94,0.29,-5.34,-1.13,-1.18,0.91,-65.10,8.63,-23.10,-1.00
11396.00,-8.70,-1.25,-4.73,-1.06,-1.25,0.90,-65.10,8.63,-23.10,-1.00
11408.00,-8.70,-1.25,-4.73,-1.06,-1.25,0.90,-65.10,8.63,-23.10,-1.00
11420.00,-9.33,0.26,-4.76,-1.09,-1.27,1.03,-64.42,6.96,-23.90,-1.00
11435.00,-9.02,-0.54,-4.17,-1.08,-1.29,1.01,-64.42,6.96,-23.90,-1.00
11446.00,-9.02,-0.54,-4.17,-1.08,-1.29,1.01,-64.42,6.96,-23.90,-1.00
11458.00,-9.22,-0.55,-4.12,-1.12,-1.27,1.05,-64.42,6.96,-23.90,-1.00
11470.00,-9.18,-0.48,-4.24,-1.14,-1.23,1.04,-64.42,6.96,-23.90,-1.00
11484.00,-9.18,-0.48,-4.24,-1.14,-1.23,1.04,-64.42,6.96,-23.90,-1.00
11496.00,-9.00,-0.88,-3.55,-1.16,-1.21,1.04,-64.42,6.96,-23.90,-1.00
11508.00,-9.00,-0.88,-3.55,-1.16,-1.21,1.04,-64.42,6.96,-23.90,-1.00
11520.00,-9.09,-0.84,-3.88,-1.19,-1.22,1.08,-64.42,6.96,-23.90,-1.00
11534.00,-9.29,0.24,-3.79,-1.24,-1.25,1.12,-64.88,7.57,-23.26,-1.00
11546.00,-9.29,0.24,-3.79,-1.24,-1.25,1.12,-64.88,7.57,-23.26,-1.00
11558.00,-9.22,-0.47,-4.63,-1.25,-1.24,1.08,-64.88,7.57,-23.26,-1.00
11572.00,-8.74,-0.73,-4.06,-1.29,-1.26,1.13,-64.88,7.57,-23.26,-1.00
11584.00,-8.74,-0.73,-4.06,-1.29,-1.26,1.13,-64.88,7.57,-23.26,-1.00
11596.00,-9.30,-0.37,-4.19,-1.33,-1.30,1.08,-64.88,7.57,-23.26,-1.00
11608.00,-9.30,-0.37,-4.19,-1.33,-1.30,1.08,-64.88,7.57,-23.26,-1.00
11622.00,-9.33,0.22,-5.20,-1.39,-1.38,0.94,-64.88,7.57,-23.26,-1.00
11634.00,-9.38,-0.06,-3.78,-1.34,-1.38,0.86,-64.88,7.57,-23.26,-1.00
11646.00,-9.38,-0.06,-3.78,-1.34,-1.38,0.86,-64.88,7.57,-23.26,-1.00
11658.00,-9.33,-0.31,-3.99,-1.39,-1.34,0.93,-63.06,10.30,-22.62,-1.00
11672.00,-9.27,-0.51,-4.33,-1.45,-1.35,0.90,-63.06,10.30,-22.62,-1.00
11684.00,-9.27,-0.51,-4.33,-1.45,-1.35,0.90,-63.06,10.30,-22.62,-1.00
11696.00,-9.09,-0.67,-4.27,-1.52,-1.45,0.71,-63.06,10.30,-22.62,-1.00
11710.00,-9.02,-0.60,-3.62,-1.55,-1.43,0.62,-63.06,10.30,-22.62,-1.00
11723.00,-9.02,-0.60,-3.62,-1.55,-1.43,0.62,-63.06,10.30,-22.62,-1.00
11734.00,-8.81,-1.31,-4.22,-1.57,-1.34,0.59,-63.06,10.30,-22.62,-1.00
11746.00,-8.81,-1.31,-4.22,-1.57,-1.34,0.59,-63.06,10.30,-22.62,-1.00
11760.00,-8.94,-0.51,-5.51,-1.58,-1.34,0.54,-63.06,10.30,-22.62,-1.00
11772.00,-8.40,-1.21,-4.65,-1.49,-1.36,0.49,-63.06,10.30,-22.62,-1.00
11784.00,-8.40,-1.21,-4.65,-1.49,-1.36,0.49,-63.06,10.30,-22.62,-1.00
11796.00,-8.37,-0.83,-4.82,-1.45,-1.31,0.45,-64.20,8.63,-22.78,-1.00
11810.00,-8.74,-0.77,-5.28,-1.35,-1.32,0.47,-64.20,8.63,-22.78,-1.00
11822.00,-8.74,-0.77,-5.28,-1.35,-1.32,0.47,-64.20,8.63,-22.78,-1.00
11834.00,-8.61,-0.66,-5.55,-1.27,-1.38,0.49,-64.20,8.63,-22.78,-1.00
11848.00,-8.61,-0.66,-5.55,-1.27,-1.38,0.49,-64.20,8.63,-22.78,-1.00
11860.00,-8.58,-0.12,-4.54,-1.23,-1.37,0.58,-64.20,8.63,-22.78,-1.00
11872.00,-9.00,0.47,-5.11,-1.21,-1.36,0.54,-64.20,8.63,-22.78,-1.00
11884.00,-9.00,0.47,-5.11,-1.21,-1.36,0.54,-64.20,8.63,-22.78,-1.00
11898.00,-8.97,-0.29,-4.67,-1.17,-1.37,0.57,-64.20,8.63,-22.78,-1.00
11910.00,-9.12,0.68,-4.84,-1.22,-1.34,0.62,-65.78,9.09,-22.30,-1.00
11922.00,-9.12,0.68,-4.84,-1.22,-1.34,0.62,-65.78,9.09,-22.30,-1.00
11934.00,-9.22,0.68,-4.93,-1.19,-1.35,0.67,-65.78,9.09,-22.30,-1.00
11948.00,-9.22,0.68,-4.93,-1.19,-1.35,0.67,-65.78,9.09,-22.30,-1.00
11960.00,-9.12,0.16,-4.05,-1.14,-1.36,0.73,-65.78,9.09,-22.30,-1.00
11972.00,-9.12,0.34,-3.95,-1.19,-1.35,0.77,-65.78,9.09,-22.30,-1.00
11987.00,-9.12,0.34,-3.95,-1.19,-1.35,0.77,-65.78,9.09,-22.30,-1.00
11998.00,-9.29,0.35,-3.97,-1.19,-1.32,0.79,-65.78,9.09,-22.30,-1.00
12010.00,-9.28,0.46,-4.02,-1.21,-1.30,0.79,-65.78,9.09,-22.30,-1.00
12022.00,-9.28,0.46,-4.02,-1.21,-1.30,0.79,-65.78,9.09,-22.30,-1.00
12037.00,-9.30,0.49,-3.69,-1.20,-1.28,0.71,-64.20,7.12,-22.46,-1.00
12049.00,-9.17,-0.06,-4.07,-1.20,-1.21,0.60,-64.20,7.12,-22.46,-1.00
12061.00,-9.17,-0.06,-4.07,-1.20,-1.21,0.60,-64.20,7.12,-22.46,-1.00
12073.00,-9.00,-1.20,-4.73,-1.20,-1.18,0.59,-64.20,7.12,-22.46,-1.00
12087.00,-9.00,-1.20,-4.73,-1.20,-1.18,0.59,-64.20,7.12,-22.46,-1.00
12099.00,-8.30,-1.85,-4.81,-1.14,-1.21,0.91,-64.20,7.12,-22.46,-1.00
12111.00,-8.84,-0.76,-4.35,-1.21,-1.24,1.11,-64.20,7.12,-22.46,-1.00
12125.00,-8.84,-0.76,-4.35,-1.21,-1.24,1.11,-64.20,7.12,-22.46,-1.00
12138.00,-9.06,-0.01,-4.83,-1.13,-1.26,1.08,-64.20,7.12,-22.46,-1.00
12150.00,-9.24,0.06,-4.48,-1.10,-1.27,1.11,-67.37,7.72,-22.78,-1.00
12162.00,-9.24,0.06,-4.48,-1.10,-1.27,1.11,-67.37,7.72,-22.78,-1.00
12177.00,-9.21,-0.80,-3.99,-1.10,-1.30,1.03,-67.37,7.72,-22.78,-1.00
12263.00,-9.48,-0.11,-4.38,-1.32,-1.22,1.10,-67.37,7.72,-22.78,-1.00
12352.00,-8.88,0.15,-4.17,-1.55,-1.33,0.91,-66.92,10.15,-21.82,-1.00
12439.00,-8.92,-0.66,-4.84,-1.53,-1.37,0.43,-66.92,9.85,-22.78,-1.00
12454.00,-9.08,-0.89,-4.94,-1.55,-1.42,0.35,-66.92,9.85,-22.78,-1.00
12465.00,-9.08,-0.89,-4.94,-1.55,-1.42,0.35,-66.92,9.85,-22.78,-1.00
12477.00,-8.80,-0.14,-5.53,-1.57,-1.36,0.36,-66.92,9.85,-22.78,-1.00
12492.00,-9.04,-0.43,-5.75,-1.50,-1.34,0.36,-66.92,9.85,-22.78,-1.00
12503.00,-9.04,-0.43,-5.75,-1.50,-1.34,0.36,-66.92,9.85,-22.78,-1.00
12515.00,-8.88,-0.88,-5.03,-1.42,-1.36,0.44,-66.92,9.85,-22.78,-1.00
12527.00,-8.88,-0.88,-5.03,-1.42,-1.36,0.44,-66.92,9.85,-22.78,-1.00
12541.00,-8.59,-1.17,-4.90,-1.35,-1.35,0.50,-66.01,9.85,-22.14,-1.00
12553.00,-8.52,-0.65,-4.97,-1.31,-1.31,0.58,-66.01,9.85,-22.14,-1.00
12565.00,-8.52,-0.65,-4.97,-1.31,-1.31,0.58,-66.01,9.85,-22.14,-1.00
12577.00,-8.89,-0.43,-5.42,-1.30,-1.35,0.57,-66.01,9.85,-22.14,-1.00
12591.00,-9.12,0.95,-4.97,-1.25,-1.35,0.62,-66.01,9.85,-22.14,-1.00
12603.00,-9.12,0.95,-4.97,-1.25,-1.35,0.62,-66.01,9.85,-22.14,-1.00
12615.00,-9.46,1.15,-4.55,-1.16,-1.34,0.60,-66.01,9.85,-22.14,-1.00
12629.00,-9.46,1.15,-4.55,-1.16,-1.34,0.60,-66.01,9.85,-22.14,-1.00
12641.00,-9.00,0.36,-5.11,-1.13,-1.33,0.66,-66.01,9.85,-22.14,-1.00
12653.00,-8.95,-0.43,-3.69,-1.09,-1.35,0.70,-68.05,8.18,-20.70,-1.00
12665.00,-8.95,-0.43,-3.69,-1.09,-1.35,0.70,-68.05,8.18,-20.70,-1.00
12679.00,-9.10,-0.56,-4.19,-1.12,-1.34,0.74,-68.05,8.18,-20.70,-1.00
12691.00,-9.29,0.32,-3.62,-1.14,-1.34,0.79,-68.05,8.18,-20.70,-1.00
12703.00,-9.29,0.32,-3.62,-1.14,-1.34,0.79,-68.05,8.18,-20.70,-1.00
12715.00,-9.34,0.53,-3.56,-1.15,-1.30,0.73,-68.05,8.18,-20.70,-1.00
12729.00,-9.34,0.53,-3.56,-1.15,-1.30,0.73,-68.05,8.18,-20.70,-1.00
12741.00,-9.37,0.40,-3.47,-1.17,-1.24,0.64,-68.05,8.18,-20.70,-1.00
12753.00,-8.73,-1.80,-4.53,-1.17,-1.16,0.63,-68.05,8.18,-20.70,-1.00
12768.00,-8.73,-1.80,-4.53,-1.17,-1.16,0.63,-68.05,8.18,-20.70,-1.00
12779.00,-8.82,-0.29,-4.79,-1.21,-1.18,0.96,-68.05,8.18,-20.70,-1.00
12791.00,-8.89,-0.40,-3.90,-1.16,-1.24,1.02,-66.01,7.12,-21.82,-1.00
12803.00,-8.89,-0.40,-3.90,-1.16,-1.24,1.02,-66.01,7.12,-21.82,-1.00
12817.00,-9.09,0.72,-4.66,-1.18,-1.23,1.09,-66.01,7.12,-21.82,-1.00
12829.00,-9.09,0.72,-4.66,-1.18,-1.23,1.09,-66.01,7.12,-21.82,-1.00
12841.00,-9.29,-0.88,-4.07,-1.14,-1.23,1.08,-66.01,7.12,-21.82,-1.00
12853.00,-9.19,-0.28,-3.74,-1.20,-1.24,1.13,-66.01,7.12,-21.82,-1.00
12867.00,-9.19,-0.28,-3.74,-1.20,-1.24,1.13,-66.01,7.12,-21.82,-1.00
12879.00,-9.51,0.43,-3.41,-1.29,-1.26,1.18,-66.01,7.12,-21.82,-1.00
12891.00,-9.46,-0.68,-4.07,-1.31,-1.27,1.16,-66.01,7.12,-21.82,-1.00
12905.00,-9.46,-0.68,-4.07,-1.31,-1.27,1.16,-66.01,7.12,-21.82,-1.00
12917.00,-9.80,0.57,-2.61,-1.39,-1.28,1.25,-64.88,9.39,-22.94,-1.00
12929.00,-9.80,0.57,-2.61,-1.39,-1.28,1.25,-64.88,9.39,-22.94,-1.00
12941.00,-9.69,0.41,-3.37,-1.38,-1.30,1.16,-64.88,9.39,-22.94,-1.00
12955.00,-9.18,-0.34,-4.69,-1.39,-1.33,0.98,-64.88,9.39,-22.94,-1.00
12967.00,-9.18,-0.34,-4.69,-1.39,-1.33,0.98,-64.88,9.39,-22.94,-1.00
12979.00,-9.27,-0.90,-4.24,-1.35,-1.38,0.74,-64.88,9.39,-22.94,-1.00
12991.00,-9.17,-1.62,-3.47,-1.35,-1.43,0.59,-64.88,9.39,-22.94,-1.00
13005.00,-9.17,-1.62,-3.47,-1.35,-1.43,0.59,-64.88,9.39,-22.94,-1.00
13017.00,-8.81,-1.27,-5.00,-1.43,-1.46,0.60,-64.88,9.39,-22.94,-1.00
13029.00,-8.81,-1.27,-5.00,-1.43,-1.46,0.60,-64.88,9.39,-22.94,-1.00
13043.00,-8.89,-1.04,-3.90,-1.52,-1.48,0.56,-67.60,11.52,-21.34,-1.00
13055.00,-8.89,-0.24,-4.63,-1.56,-1.41,0.53,-67.60,11.52,-21.34,-1.00
13067.00,-8.89,-0.24,-4.63,-1.56,-1.41,0.53,-67.60,11.52,-21.34,-1.00
13079.00,-9.14,-0.40,-4.75,-1.57,-1.38,0.51,-67.60,11.52,-21.34,-1.00
13094.00,-8.60,-0.08,-4.93,-1.52,-1.34,0.49,-67.60,11.52,-21.34,-1.00
13105.00,-8.60,-0.08,-4.93,-1.52,-1.34,0.49,-67.60,11.52,-21.34,-1.00
13117.00,-8.91,-0.44,-4.93,-1.43,-1.36,0.43,-67.60,11.52,-21.34,-1.00
13129.00,-8.91,-0.44,-4.93,-1.43,-1.36,0.43,-67.60,11.52,-21.34,-1.00
13143.00,-9.02,-0.69,-4.52,-1.32,-1.40,0.36,-67.60,11.52,-21.34,-1.00
13155.00,-8.44,0.26,-4.46,-1.29,-1.41,0.44,-67.37,9.54,-22.14,-1.00
13167.00,-8.44,0.26,-4.46,-1.29,-1.41,0.44,-67.37,9.54,-22.14,-1.00
13181.00,-8.70,-0.87,-4.92,-1.23,-1.41,0.50,-67.37,9.54,-22.14,-1.00
13193.00,-9.08,-1.11,-4.83,-1.17,-1.40,0.64,-67.37,9.54,-22.14,-1.00
13205.00,-9.08,-1.11,-4.83,-1.17,-1.40,0.64,-67.37,9.54,-22.14,-1.00
13217.00,-8.91,0.94,-4.37,-1.21,-1.45,0.65,-67.37,9.54,-22.14,-1.00
13231.00,-9.11,0.80,-4.34,-1.13,-1.45,0.64,-67.37,9.54,-22.14,-1.00
13243.00,-9.11,0.80,-4.34,-1.13,-1.45,0.64,-67.37,9.54,-22.14,-1.00
13255.00,-9.18,-0.95,-4.05,-1.04,-1.43,0.67,-67.37,9.54,-22.14,-1.00
13267.00,-9.18,-0.95,-4.05,-1.04,-1.43,0.67,-67.37,9.54,-22.14,-1.00
13281.00,-9.26,-0.78,-3.78,-1.11,-1.38,0.69,-67.37,9.54,-22.14,-1.00
13293.00,-9.17,-0.46,-3.78,-1.09,-1.36,0.69,-67.14,8.48,-20.38,-1.00
13305.00,-9.17,-0.46,-3.78,-1.09,-1.36,0.69,-67.14,8.48,-20.38,-1.00
13319.00,-9.50,0.66,-3.68,-1.12,-1.32,0.76,-67.14,8.48,-20.38,-1.00
13331.00,-9.43,0.69,-3.17,-1.17,-1.25,0.79,-67.14,8.48,-20.38,-1.00
13343.00,-9.43,0.69,-3.17,-1.17,-1.25,0.79,-67.14,8.48,-20.38,-1.00
13355.00,-9.47,0.53,-3.25,-1.20,-1.17,0.71,-67.14,8.48,-20.38,-1.00
13370.00,-9.47,0.53,-3.25,-1.20,-1.17,0.71,-67.14,8.48,-20.38,-1.00
13381.00,-9.15,-0.71,-3.34,-1.21,-1.10,0.63,-67.14,8.48,-20.38,-1.00
13393.00,-9.29,0.79,-4.17,-1.25,-1.01,0.90,-67.14,8.48,-20.38,-1.00
13405.00,-9.29,0.79,-4.17,-1.25,-1.01,0.90,-67.14,8.48,-20.38,-1.00
13419.00,-9.21,0.07,-4.71,-1.20,-1.04,1.06,-67.37,8.94,-21.82,-1.00
13431.00,-9.10,0.00,-4.51,-1.15,-1.17,1.09,-67.37,8.94,-21.82,-1.00
13443.00,-9.10,0.00,-4.51,-1.15,-1.17,1.09,-67.37,8.94,-21.82,-1.00
13457.00,-10.03,-0.20,-3.62,-1.11,-1.27,1.09,-67.37,8.94,-21.82,-1.00
13469.00,-10.03,-0.20,-3.62,-1.11,-1.27,1.09,-67.37,8.94,-21.82,-1.00
13481.00,-9.69,0.95,-2.99,-1.19,-1.30,1.09,-67.37,8.94,-21.82,-1.00
13493.00,-9.30,-0.80,-3.39,-1.16,-1.27,1.08,-67.37,8.94,-21.82,-1.00
13507.00,-9.30,-0.80,-3.39,-1.16,-1.27,1.08,-67.37,8.94,-21.82,-1.00
13519.00,-9.24,-0.04,-3.29,-1.29,-1.25,1.12,-67.37,8.94,-21.82,-1.00
13531.00,-9.17,-0.13,-4.91,-1.31,-1.24,1.15,-67.37,10.46,-22.14,-1.00
13543.00,-9.17,-0.13,-4.91,-1.31,-1.24,1.15,-67.37,10.46,-22.14,-1.00
13558.00,-9.45,0.66,-3.98,-1.34,-1.31,1.10,-67.37,10.46,-22.14,-1.00
13569.00,-9.45,0.66,-3.98,-1.34,-1.31,1.10,-67.37,10.46,-22.14,-1.00
13581.00,-9.40,0.17,-3.70,-1.37,-1.45,0.98,-67.37,10.46,-22.14,-1.00
13595.00,-9.38,-0.27,-3.34,-1.40,-1.57,0.82,-67.37,10.46,-22.14,-1.00
13607.00,-9.38,-0.27,-3.34,-1.40,-1.57,0.82,-67.37,10.46,-22.14,-1.00
13619.00,-9.43,-1.63,-3.14,-1.42,-1.67,0.67,-67.37,10.46,-22.14,-1.00
13631.00,-9.26,-0.67,-3.51,-1.52,-1.68,0.73,-67.37,10.46,-22.14,-1.00
13645.00,-9.26,-0.67,-3.51,-1.52,-1.68,0.73,-67.37,10.46,-22.14,-1.00
13657.00,-9.13,-0.03,-3.06,-1.59,-1.54,0.80,-68.05,10.91,-20.38,-1.00
13669.00,-9.13,-0.03,-3.06,-1.59,-1.54,0.80,-68.05,10.91,-20.38,-1.00
13681.00,-8.69,0.17,-4.42,-1.61,-1.39,0.74,-68.05,10.91,-20.38,-1.00
13695.00,-8.95,0.28,-5.09,-1.56,-1.27,0.72,-68.05,10.91,-20.38,-1.00
13707.00,-8.95,0.28,-5.09,-1.56,-1.27,0.72,-68.05,10.91,-20.38,-1.00
13719.00,-8.86,0.02,-5.08,-1.48,-1.16,0.72,-68.05,10.91,-20.38,-1.00
13733.00,-9.07,0.69,-4.50,-1.36,-1.08,0.74,-68.05,10.91,-20.38,-1.00
13745.00,-9.07,0.69,-4.50,-1.36,-1.08,0.74,-68.05,10.91,-20.38,-1.00
13757.00,-9.09,0.36,-4.15,-1.17,-1.00,0.69,-68.05,10.91,-20.38,-1.00
13769.00,-9.09,0.36,-4.15,-1.17,-1.00,0.69,-68.05,10.91,-20.38,-1.00
13783.00,-10.00,0.92,-1.62,-1.06,-0.68,0.75,-68.05,10.91,-20.38,-1.00
13795.00,-12.50,0.12,0.25,-1.28,0.21,0.79,-68.50,11.82,-22.30,-1.00
13807.00,-12.50,0.12,0.25,-1.28,0.21,0.79,-68.50,11.82,-22.30,-1.00
13821.00,-9.29,1.18,-5.94,-1.77,1.17,0.78,-68.50,11.82,-22.30,-1.00
13908.00,-7.29,0.03,-6.75,-1.38,-0.25,0.51,-68.50,11.82,-22.30,-1.00
13997.00,-7.54,0.07,-5.64,-1.27,-1.33,0.76,-61.25,11.21,-29.65,-1.00
14083.00,-7.75,0.12,-5.89,-1.30,-1.30,0.74,-60.34,11.21,-29.33,-1.00
14097.00,-7.84,0.06,-5.85,-1.30,-1.29,0.74,-60.34,11.21,-29.33,-1.00
14109.00,-7.84,0.06,-5.85,-1.30,-1.29,0.74,-60.34,11.21,-29.33,-1.00
14121.00,-8.03,0.11,-5.88,-1.28,-1.26,0.77,-60.34,11.21,-29.33,-1.00
14133.00,-8.11,-0.11,-5.86,-1.25,-1.20,0.77,-60.34,11.21,-29.33,-1.00
14147.00,-8.11,-0.11,-5.86,-1.25,-1.20,0.77,-60.34,11.21,-29.33,-1.00
14159.00,-7.98,-0.15,-6.12,-1.26,-1.19,0.78,-60.34,11.21,-29.33,-1.00
14171.00,-8.20,-0.16,-6.05,-1.26,-1.24,0.77,-60.34,11.21,-29.33,-1.00
14185.00,-8.20,-0.16,-6.05,-1.26,-1.24,0.77,-60.34,11.21,-29.33,-1.00
14197.00,-8.21,-0.21,-6.10,-1.27,-1.27,0.74,-60.34,11.21,-29.33,-1.00
14209.00,-8.21,-0.21,-6.10,-1.27,-1.27,0.74,-60.34,11.21,-29.33,-1.00
14221.00,-8.27,-0.43,-6.03,-1.27,-1.29,0.74,-60.34,11.21,-29.33,-1.00
14235.00,-8.54,0.04,-5.85,-1.28,-1.26,0.76,-60.34,11.21,-29.33,-1.00
14247.00,-8.54,0.04,-5.85,-1.28,-1.26,0.76,-60.34,11.21,-29.33,-1.00
14259.00,-8.27,-0.54,-6.18,-1.27,-1.19,0.71,-60.34,11.21,-29.33,-1.00
14271.00,-8.21,0.12,-6.43,-1.30,-1.18,0.76,-60.34,11.21,-29.33,-1.00
14286.00,-8.21,0.12,-6.43,-1.30,-1.18,0.76,-60.34,11.21,-29.33,-1.00
14297.00,-8.09,-0.28,-6.34,-1.25,-1.19,0.74,-59.66,11.67,-30.44,-1.00
14309.00,-8.09,-0.28,-6.34,-1.25,-1.19,0.74,-59.66,11.67,-30.44,-1.00
14323.00,-8.10,0.37,-6.28,-1.25,-1.19,0.77,-59.66,11.67,-30.44,-1.00
14335.00,-7.88,-0.43,-6.28,-1.21,-1.20,0.71,-59.66,11.67,-30.44,-1.00
14347.00,-7.88,-0.43,-6.28,-1.21,-1.20,0.71,-59.66,11.67,-30.44,-1.00
14359.00,-8.03,0.12,-6.07,-1.22,-1.22,0.77,-59.66,11.67,-30.44,-1.00
14373.00,-7.79,-0.60,-6.24,-1.20,-1.22,0.75,-59.66,11.67,-30.44,-1.00
14385.00,-7.79,-0.60,-6.24,-1.20,-1.22,0.75,-59.66,11.67,-30.44,-1.00
14397.00,-8.18,0.24,-6.07,-1.23,-1.25,0.82,-59.66,11.67,-30.44,-1.00
14409.00,-8.18,0.24,-6.07,-1.23,-1.25,0.82,-59.66,11.67,-30.44,-1.00
14423.00,-8.02,-0.30,-6.40,-1.20,-1.23,0.76,-61.70,10.30,-30.92,-1.00
14435.00,-8.30,0.14,-6.31,-1.22,-1.26,0.77,-61.70,10.30,-30.92,-1.00
14447.00,-8.30,0.14,-6.31,-1.22,-1.26,0.77,-61.70,10.30,-30.92,-1.00
14461.00,-8.24,0.01,-6.25,-1.21,-1.24,0.75,-61.70,10.30,-30.92,-1.00
14473.00,-8.15,-0.02,-6.26,-1.21,-1.22,0.75,-61.70,10.30,-30.92,-1.00
14485.00,-8.15,-0.02,-6.26,-1.21,-1.22,0.75,-61.70,10.30,-30.92,-1.00
14497.00,-8.03,0.03,-6.26,-1.21,-1.20,0.76,-61.70,10.30,-30.92,-1.00
14511.00,-7.93,-0.04,-6.46,-1.21,-1.21,0.75,-61.70,10.30,-30.92,-1.00
14523.00,-7.93,-0.04,-6.46,-1.21,-1.21,0.75,-61.70,10.30,-30.92,-1.00
14535.00,-8.02,0.06,-6.29,-1.18,-1.24,0.77,-61.25,10.91,-31.24,-1.00
14550.00,-8.02,0.06,-6.29,-1.18,-1.24,0.77,-61.25,10.91,-31.24,-1.00
14561.00,-7.98,-0.22,-6.15,-1.15,-1.25,0.78,-61.25,10.91,-31.24,-1.00
14573.00,-8.10,0.14,-6.02,-1.18,-1.26,0.80,-61.25,10.91,-31.24,-1.00
14585.00,-8.10,0.14,-6.02,-1.18,-1.26,0.80,-61.25,10.91,-31.24,-1.00
14599.00,-7.99,-0.15,-6.21,-1.18,-1.26,0.76,-61.25,10.91,-31.24,-1.00
14611.00,-7.99,-0.15,-6.21,-1.18,-1.26,0.76,-61.25,10.91,-31.24,-1.00
14623.00,-8.10,0.04,-6.08,-1.20,-1.28,0.77,-61.25,10.91,-31.24,-1.00
14635.00,-8.02,-0.11,-6.11,-1.20,-1.27,0.76,-61.25,10.91,-31.24,-1.00
14649.00,-8.02,-0.11,-6.11,-1.20,-1.27,0.76,-61.25,10.91,-31.24,-1.00
14661.00,-7.97,0.05,-6.11,-1.21,-1.26,0.78,-61.25,10.91,-31.24,-1.00
14673.00,-7.98,0.05,-6.30,-1.21,-1.26,0.77,-60.57,10.15,-31.72,-1.00
14687.00,-7.98,0.05,-6.30,-1.21,-1.26,0.77,-60.57,10.15,-31.72,-1.00
14699.00,-7.95,0.11,-6.31,-1.21,-1.24,0.77,-60.57,10.15,-31.72,-1.00
14711.00,-7.95,0.11,-6.31,-1.21,-1.24,0.77,-60.57,10.15,-31.72,-1.00
14723.00,-7.76,-0.19,-6.40,-1.20,-1.25,0.76,-60.57,10.15,-31.72,-1.00
14738.00,-7.94,0.07,-6.17,-1.21,-1.28,0.78,-60.57,10.15,-31.72,-1.00
14824.00,-7.95,-0.38,-6.22,-1.22,-1.29,0.75,-59.66,9.85,-30.76,-1.00
14914.00,-7.95,0.07,-6.37,-1.23,-1.29,0.80,-60.12,11.37,-31.72,-1.00
15000.00,-8.05,-0.12,-6.19,-1.21,-1.31,0.78,-60.12,11.37,-31.72,-1.00
15015.00,-7.99,-0.12,-6.25,-1.22,-1.29,0.78,-60.12,11.37,-31.72,-1.00
15026.00,-7.99,-0.12,-6.25,-1.22,-1.29,0.78,-60.12,11.37,-31.72,-1.00
15038.00,-7.92,0.01,-6.42,-1.23,-1.26,0.79,-59.66,10.76,-30.76,-1.00
15053.00,-7.85,0.01,-6.45,-1.21,-1.27,0.78,-59.66,10.76,-30.76,-1.00
15064.00,-7.85,0.01,-6.45,-1.21,-1.27,0.78,-59.66,10.76,-30.76,-1.00
15076.00,-7.92,-0.01,-6.32,-1.21,-1.28,0.78,-59.66,10.76,-30.76,-1.00
15088.00,-7.92,-0.01,-6.32,-1.21,-1.28,0.78,-59.66,10.76,-30.76,-1.00
15102.00,-7.86,-0.07,-6.30,-1.20,-1.28,0.78,-59.66,10.76,-30.76,-1.00
15114.00,-7.86,-0.02,-6.31,-1.21,-1.28,0.78,-59.66,10.76,-30.76,-1.00
15126.00,-7.86,-0.02,-6.31,-1.21,-1.28,0.78,-59.66,10.76,-30.76,-1.00
15140.00,-7.83,-0.01,-6.22,-1.21,-1.30,0.78,-59.66,10.76,-30.76,-1.00
15152.00,-7.85,0.01,-6.29,-1.22,-1.29,0.79,-59.66,10.76,-30.76,-1.00
15164.00,-7.85,0.01,-6.29,-1.22,-1.29,0.79,-59.66,10.76,-30.76,-1.00
15176.00,-7.86,0.00,-6.26,-1.22,-1.28,0.78,-58.98,10.00,-31.88,-1.00
15190.00,-7.86,0.00,-6.26,-1.22,-1.28,0.78,-58.98,10.00,-31.88,-1.00
15202.00,-7.81,-0.10,-6.33,-1.22,-1.28,0.79,-58.98,10.00,-31.88,-1.00
15214.00,-7.92,0.06,-6.29,-1.22,-1.30,0.81,-58.98,10.00,-31.88,-1.00
15226.00,-7.92,0.06,-6.29,-1.22,-1.30,0.81,-58.98,10.00,-31.88,-1.00
15240.00,-7.97,-0.08,-6.25,-1.21,-1.29,0.80,-58.98,10.00,-31.88,-1.00
15252.00,-8.00,0.13,-6.27,-1.22,-1.28,0.80,-58.98,10.00,-31.88,-1.00
15264.00,-8.00,0.13,-6.27,-1.22,-1.28,0.80,-58.98,10.00,-31.88,-1.00
15278.00,-7.94,-0.20,-6.26,-1.21,-1.28,0.78,-58.98,10.00,-31.88,-1.00
15290.00,-7.94,-0.20,-6.26,-1.21,-1.28,0.78,-58.98,10.00,-31.88,-1.00
15302.00,-8.05,0.02,-6.25,-1.22,-1.27,0.79,-58.76,11.37,-31.40,-1.00
15314.00,-7.87,-0.15,-6.38,-1.22,-1.26,0.78,-58.76,11.37,-31.40,-1.00
15329.00,-7.87,-0.15,-6.38,-1.22,-1.26,0.78,-58.76,11.37,-31.40,-1.00
15340.00,-8.01,0.14,-6.31,-1.23,-1.27,0.79,-58.76,11.37,-31.40,-1.00
15352.00,-7.82,-0.25,-6.32,-1.22,-1.27,0.77,-58.76,11.37,-31.40,-1.00
15364.00,-7.82,-0.25,-6.32,-1.22,-1.27,0.77,-58.76,11.37,-31.40,-1.00
15378.00,-7.88,0.16,-6.37,-1.24,-1.27,0.81,-58.76,11.37,-31.40,-1.00
15390.00,-7.88,0.16,-6.37,-1.24,-1.27,0.81,-58.76,11.37,-31.40,-1.00
15402.00,-7.84,0.07,-6.33,-1.22,-1.27,0.80,-58.76,11.37,-31.40,-1.00
15416.00,-7.81,-0.11,-6.44,-1.21,-1.27,0.80,-59.44,10.30,-32.52,-1.00
15428.00,-7.81,-0.11,-6.44,-1.21,-1.27,0.80,-59.44,10.30,-32.52,-1.00
15440.00,-8.02,0.27,-6.40,-1.21,-1.28,0.82,-59.44,10.30,-32.52,-1.00
15452.00,-7.84,0.04,-6.31,-1.20,-1.28,0.79,-59.44,10.30,-32.52,-1.00
15466.00,-7.84,0.04,-6.31,-1.20,-1.28,0.79,-59.44,10.30,-32.52,-1.00
15478.00,-7.82,-0.08,-6.24,-1.21,-1.28,0.78,-59.44,10.30,-32.52,-1.00
15490.00,-7.82,-0.08,-6.24,-1.21,-1.28,0.78,-59.44,10.30,-32.52,-1.00
15502.00,-7.79,0.02,-6.30,-1.23,-1.27,0.80,-59.44,10.30,-32.52,-1.00
15516.00,-7.78,-0.07,-6.49,-1.23,-1.27,0.80,-59.44,10.30,-32.52,-1.00
15528.00,-7.78,-0.07,-6.49,-1.23,-1.27,0.80,-59.44,10.30,-32.52,-1.00
15540.00,-8.01,0.18,-6.35,-1.22,-1.28,0.80,-59.44,9.70,-30.60,-1.00
15554.00,-7.93,-0.18,-6.37,-1.21,-1.28,0.77,-59.44,9.70,-30.60,-1.00
15566.00,-7.93,-0.18,-6.37,-1.21,-1.28,0.77,-59.44,9.70,-30.60,-1.00
15578.00,-7.95,0.07,-6.40,-1.22,-1.26,0.80,-59.44,9.70,-30.60,-1.00
15590.00,-7.95,0.07,-6.40,-1.22,-1.26,0.80,-59.44,9.70,-30.60,-1.00
15604.00,-7.78,0.02,-6.56,-1.22,-1.25,0.80,-59.44,9.70,-30.60,-1.00
15616.00,-7.74,0.03,-6.54,-1.21,-1.28,0.81,-59.44,9.70,-30.60,-1.00
15628.00,-7.74,0.03,-6.54,-1.21,-1.28,0.81,-59.44,9.70,-30.60,-1.00
15640.00,-7.86,0.14,-6.43,-1.20,-1.30,0.83,-59.44,9.70,-30.60,-1.00
15655.00,-7.87,0.21,-6.44,-1.19,-1.28,0.82,-59.44,9.70,-30.60,-1.00
15666.00,-7.87,0.21,-6.44,-1.19,-1.28,0.82,-59.44,9.70,-30.60,-1.00
15678.00,-7.82,-0.04,-6.45,-1.18,-1.28,0.79,-58.30,10.76,-30.44,-1.00
15692.00,-7.87,0.04,-6.27,-1.18,-1.30,0.81,-58.30,10.76,-30.44,-1.00
15704.00,-7.87,0.04,-6.27,-1.18,-1.30,0.81,-58.30,10.76,-30.44,-1.00
15716.00,-7.94,-0.00,-6.20,-1.19,-1.30,0.81,-58.30,10.76,-30.44,-1.00
15728.00,-7.94,-0.00,-6.20,-1.19,-1.30,0.81,-58.30,10.76,-30.44,-1.00
15742.00,-7.78,0.06,-6.32,-1.20,-1.27,0.81,-58.30,10.76,-30.44,-1.00
15754.00,-7.77,-0.06,-6.38,-1.21,-1.28,0.82,-58.30,10.76,-30.44,-1.00
15766.00,-7.77,-0.06,-6.38,-1.21,-1.28,0.82,-58.30,10.76,-30.44,-1.00
15781.00,-7.78,0.20,-6.45,-1.21,-1.28,0.83,-58.30,10.76,-30.44,-1.00
15792.00,-7.78,0.20,-6.45,-1.21,-1.28,0.83,-58.30,10.76,-30.44,-1.00
15804.00,-7.85,0.05,-6.53,-1.20,-1.29,0.82,-57.85,10.15,-30.76,-1.00
15816.00,-8.01,0.12,-6.29,-1.18,-1.31,0.81,-57.85,10.15,-30.76,-1.00
15830.00,-8.01,0.12,-6.29,-1.18,-1.31,0.81,-57.85,10.15,-30.76,-1.00
15842.00,-7.97,-0.06,-6.25,-1.19,-1.29,0.80,-57.85,10.15,-30.76,-1.00
15854.00,-7.85,0.00,-6.40,-1.20,-1.27,0.80,-57.85,10.15,-30.76,-1.00
15866.00,-7.85,0.00,-6.40,-1.20,-1.27,0.80,-57.85,10.15,-30.76,-1.00
15880.00,-7.89,-0.02,-6.37,-1.21,-1.28,0.80,-57.85,10.15,-30.76,-1.00
15892.00,-7.89,-0.02,-6.37,-1.21,-1.28,0.80,-57.85,10.15,-30.76,-1.00
15904.00,-7.98,0.20,-6.32,-1.22,-1.28,0.81,-57.85,10.15,-30.76,-1.00
15918.00,-7.72,-0.10,-6.42,-1.21,-1.27,0.78,-60.57,11.06,-32.68,-1.00
15930.00,-7.72,-0.10,-6.42,-1.21,-1.27,0.78,-60.57,11.06,-32.68,-1.00
15942.00,-7.84,0.14,-6.37,-1.22,-1.28,0.81,-60.57,11.06,-32.68,-1.00
15954.00,-7.75,0.13,-6.46,-1.21,-1.27,0.80,-60.57,11.06,-32.68,-1.00
15969.00,-7.75,0.13,-6.46,-1.21,-1.27,0.80,-60.57,11.06,-32.68,-1.00
15980.00,-7.77,0.03,-6.50,-1.21,-1.30,0.79,-60.57,11.06,-32.68,-1.00
15992.00,-7.77,0.03,-6.50,-1.21,-1.30,0.79,-60.57,11.06,-32.68,-1.00
16004.00,-7.91,0.18,-6.39,-1.20,-1.30,0.81,-60.57,11.06,-32.68,-1.00
16018.00,-7.81,-0.07,-6.45,-1.19,-1.30,0.80,-60.57,11.06,-32.68,-1.00
16030.00,-7.81,-0.07,-6.45,-1.19,-1.30,0.80,-60.57,11.06,-32.68,-1.00
16042.00,-7.96,0.20,-6.23,-1.20,-1.32,0.80,-60.34,10.61,-31.56,-1.00
16056.00,-7.77,-0.15,-6.34,-1.21,-1.29,0.78,-60.34,10.61,-31.56,-1.00
16068.00,-7.77,-0.15,-6.34,-1.21,-1.29,0.78,-60.34,10.61,-31.56,-1.00
16080.00,-7.83,0.24,-6.51,-1.23,-1.29,0.82,-60.34,10.61,-31.56,-1.00
16092.00,-7.83,0.24,-6.51,-1.23,-1.29,0.82,-60.34,10.61,-31.56,-1.00
16106.00,-7.80,0.14,-6.58,-1.21,-1.29,0.82,-60.34,10.61,-31.56,-1.00
16118.00,-7.99,0.13,-6.39,-1.19,-1.32,0.80,-60.34,10.61,-31.56,-1.00
16130.00,-7.99,0.13,-6.39,-1.19,-1.32,0.80,-60.34,10.61,-31.56,-1.00
16142.00,-7.97,0.07,-6.35,-1.19,-1.30,0.79,-60.34,10.61,-31.56,-1.00
16156.00,-7.81,-0.02,-6.54,-1.19,-1.29,0.79,-60.34,10.61,-31.56,-1.00
16168.00,-7.81,-0.02,-6.54,-1.19,-1.29,0.79,-60.34,10.61,-31.56,-1.00
16180.00,-7.93,0.17,-6.40,-1.20,-1.30,0.80,-59.44,11.21,-32.20,-1.00
16194.00,-7.82,-0.01,-6.46,-1.19,-1.29,0.78,-59.44,11.21,-32.20,-1.00
16206.00,-7.82,-0.01,-6.46,-1.19,-1.29,0.78,-59.44,11.21,-32.20,-1.00
16218.00,-7.89,0.16,-6.39,-1.20,-1.30,0.79,-59.44,11.21,-32.20,-1.00
16230.00,-7.89,0.16,-6.39,-1.20,-1.30,0.79,-59.44,11.21,-32.20,-1.00
16244.00,-7.80,0.07,-6.52,-1.20,-1.28,0.79,-59.44,11.21,-32.20,-1.00
16256.00,-7.71,0.18,-6.57,-1.19,-1.28,0.81,-59.44,11.21,-32.20,-1.00
16268.00,-7.71,0.18,-6.57,-1.19,-1.28,0.81,-59.44,11.21,-32.20,-1.00
16282.00,-7.61,0.13,-6.54,-1.18,-1.28,0.82,-59.44,11.21,-32.20,-1.00
16294.00,-7.57,0.12,-6.66,-1.18,-1.26,0.85,-59.89,9.70,-32.20,-1.00
16306.00,-7.57,0.12,-6.66,-1.18,-1.26,0.85,-59.89,9.70,-32.20,-1.00
16318.00,-7.65,0.19,-6.85,-1.16,-1.25,0.90,-59.89,9.70,-32.20,-1.00
16332.00,-7.65,0.19,-6.85,-1.16,-1.25,0.90,-59.89,9.70,-32.20,-1.00
16344.00,-7.91,-0.06,-6.72,-1.15,-1.21,0.95,-59.89,9.70,-32.20,-1.00
16356.00,-7.88,0.29,-6.73,-1.05,-1.05,1.08,-59.89,9.70,-32.20,-1.00
16368.00,-7.88,0.29,-6.73,-1.05,-1.05,1.08,-59.89,9.70,-32.20,-1.00
16382.00,-7.29,-0.37,-7.96,-0.83,-0.84,1.28,-59.89,9.70,-32.20,-1.00
16469.00,-7.38,2.26,-7.21,-3.45,-1.79,3.11,-56.72,11.21,-33.48,-1.00
16558.00,-5.10,4.05,-9.01,-2.97,-1.54,3.83,-56.94,23.81,-31.08,-1.00
16645.00,-7.06,2.78,-1.75,-1.50,-6.83,2.84,-56.94,23.81,-31.08,-1.00
16660.00,-8.07,1.35,5.57,1.22,-5.05,3.91,-56.94,23.81,-31.08,-1.00
16671.00,-8.07,1.35,5.57,1.22,-5.05,3.91,-56.94,23.81,-31.08,-1.00
16683.00,-6.92,1.02,8.93,4.15,-1.63,5.42,-59.66,31.40,-20.22,-1.00
16697.00,-4.19,5.99,-1.75,-6.24,-0.71,5.85,-59.66,31.40,-20.22,-1.00
16709.00,-4.19,5.99,-1.75,-6.24,-0.71,5.85,-59.66,31.40,-20.22,-1.00
16721.00,0.66,5.94,-8.03,-8.85,-1.81,6.10,-59.66,31.40,-20.22,-1.00
16733.00,-6.02,7.53,12.61,-3.56,-2.77,6.68,-59.66,31.40,-20.22,-1.00
16747.00,-6.02,7.53,12.61,-3.56,-2.77,6.68,-59.66,31.40,-20.22,-1.00
16759.00,-1.00,17.09,-4.25,-16.49,-3.76,5.33,-59.66,31.40,-20.22,-1.00
16771.00,-1.00,17.09,-4.25,-16.49,-3.76,5.33,-59.66,31.40,-20.22,-1.00
16783.00,-5.98,15.80,4.55,-11.30,-4.30,4.41,-59.66,31.40,-20.22,-1.00
16797.00,-2.55,11.85,5.78,-3.08,-3.72,2.30,-27.02,44.76,18.11,-1.00
16809.00,-2.55,11.85,5.78,-3.08,-3.72,2.30,-27.02,44.76,18.11,-1.00
16821.00,-3.58,7.24,9.32,1.72,-2.50,1.31,-27.02,44.76,18.11,-1.00
16836.00,-3.39,8.28,3.21,-1.35,-2.16,1.26,-27.02,44.76,18.11,-1.00
16847.00,-3.39,8.28,3.21,-1.35,-2.16,1.26,-27.02,44.76,18.11,-1.00
16859.00,-4.04,10.67,3.75,-2.23,-2.11,1.43,-27.02,44.76,18.11,-1.00
16871.00,-4.04,10.67,3.75,-2.23,-2.11,1.43,-27.02,44.76,18.11,-1.00
16885.00,-4.19,9.34,4.93,-2.18,-2.34,0.99,-27.02,44.76,18.11,-1.00
16897.00,-3.96,9.75,5.15,-2.33,-2.35,0.81,-27.02,44.76,18.11,-1.00
16909.00,-3.96,9.75,5.15,-2.33,-2.35,0.81,-27.02,44.76,18.11,-1.00
16921.00,-3.76,9.91,4.20,-2.00,-2.18,0.74,-23.17,44.91,19.55,-1.00
16935.00,-3.46,8.95,3.92,-1.28,-2.16,0.66,-23.17,44.91,19.55,-1.00
16947.00,-3.46,8.95,3.92,-1.28,-2.16,0.66,-23.17,44.91,19.55,-1.00
16959.00,-2.46,9.21,4.85,-0.70,-2.38,0.66,-23.17,44.91,19.55,-1.00
16973.00,-2.46,9.21,4.85,-0.70,-2.38,0.66,-23.17,44.91,19.55,-1.00
16985.00,-2.74,9.66,4.25,0.91,-2.19,0.84,-23.17,44.91,19.55,-1.00
16997.00,-3.35,10.11,1.83,1.95,-2.05,0.98,-23.17,44.91,19.55,-1.00
17009.00,-3.35,10.11,1.83,1.95,-2.05,0.98,-23.17,44.91,19.55,-1.00
17023.00,-1.91,8.63,3.45,1.83,-2.69,0.74,-23.17,44.91,19.55,-1.00
17035.00,-2.06,6.99,5.26,0.54,-2.91,0.69,-20.45,48.55,11.25,-1.00
17047.00,-2.06,6.99,5.26,0.54,-2.91,0.69,-20.45,48.55,11.25,-1.00
17059.00,-3.28,8.90,5.19,-1.21,-2.80,0.72,-20.45,48.55,11.25,-1.00
17073.00,-3.28,8.90,5.19,-1.21,-2.80,0.72,-20.45,48.55,11.25,-1.00
17085.00,-2.75,9.70,3.84,-2.05,-2.31,0.59,-20.45,48.55,11.25,-1.00
17097.00,-2.59,8.87,3.46,-2.15,-2.06,0.48,-20.45,48.55,11.25,-1.00
17109.00,-2.59,8.87,3.46,-2.15,-2.06,0.48,-20.45,48.55,11.25,-1.00
17123.00,-2.23,9.51,1.48,-2.46,-1.95,0.59,-20.45,48.55,11.25,-1.00
17135.00,-2.26,9.40,3.80,-1.94,-2.20,0.62,-20.45,48.55,11.25,-1.00
17147.00,-2.26,9.40,3.80,-1.94,-2.20,0.62,-20.45,48.55,11.25,-1.00
17159.00,-3.14,8.79,5.35,-1.25,-1.86,0.54,-20.45,48.55,11.25,-1.00
17173.00,-3.14,8.79,5.35,-1.25,-1.86,0.54,-20.45,48.55,11.25,-1.00
17185.00,-3.39,8.03,6.29,-1.09,-1.09,0.71,-20.90,47.64,13.80,-1.00
17197.00,-3.18,9.11,6.17,-1.90,-0.30,0.85,-20.90,47.64,13.80,-1.00
17211.00,-3.18,9.11,6.17,-1.90,-0.30,0.85,-20.90,47.64,13.80,-1.00
17223.00,-2.13,9.10,3.22,-1.91,0.24,0.81,-20.90,47.64,13.80,-1.00
17235.00,-1.80,8.35,1.13,-0.50,0.15,0.85,-20.90,47.64,13.80,-1.00
17247.00,-1.80,8.35,1.13,-0.50,0.15,0.85,-20.90,47.64,13.80,-1.00
17262.00,-1.42,6.77,-1.35,1.32,-0.50,1.02,-20.90,47.64,13.80,-1.00
17273.00,-1.42,6.77,-1.35,1.32,-0.50,1.02,-20.90,47.64,13.80,-1.00
17285.00,-1.29,8.13,-0.52,4.17,-1.05,1.91,-20.90,47.64,13.80,-1.00
17297.00,-2.15,9.40,1.92,5.40,-1.34,2.39,-19.09,49.77,4.22,-1.00
17311.00,-2.15,9.40,1.92,5.40,-1.34,2.39,-19.09,49.77,4.22,-1.00
17398.00,1.87,5.37,-5.04,7.30,-0.48,1.96,-19.09,49.77,4.22,-1.00
17487.00,0.68,4.99,-3.53,9.15,-0.57,0.90,-10.02,39.14,-28.05,-1.00
17575.00,1.22,2.57,-10.35,2.59,-1.50,0.82,-3.90,15.01,-44.18,-1.00
17589.00,1.22,2.57,-10.35,2.59,-1.50,0.82,-3.90,15.01,-44.18,-1.00
17602.00,0.14,1.71,-6.63,1.69,-1.91,1.14,-3.90,15.01,-44.18,-1.00
17614.00,1.11,2.77,-9.55,-0.61,-1.53,0.99,-3.90,15.01,-44.18,-1.00
17626.00,1.11,2.77,-9.55,-0.61,-1.53,0.99,-3.90,15.01,-44.18,-1.00
17640.00,-1.30,1.81,-9.36,-0.77,-1.34,0.83,-3.90,15.01,-44.18,-1.00
17652.00,-1.30,1.81,-9.36,-0.77,-1.34,0.83,-3.90,15.01,-44.18,-1.00
17664.00,-0.02,2.47,-11.53,-1.88,-1.35,0.76,-3.90,15.01,-44.18,-1.00
17678.00,0.48,1.67,-9.48,-1.93,-1.53,0.79,-2.99,8.33,-45.46,-1.00
17690.00,0.48,1.67,-9.48,-1.93,-1.53,0.79,-2.99,8.33,-45.46,-1.00
17702.00,-0.57,3.87,-8.59,-1.24,-1.34,1.00,-2.99,8.33,-45.46,-1.00
17714.00,-0.91,4.44,-10.54,-0.30,-0.94,1.02,-2.99,8.33,-45.46,-1.00
17729.00,-0.91,4.44,-10.54,-0.30,-0.94,1.02,-2.99,8.33,-45.46,-1.00
17740.00,-0.27,3.55,-10.52,-0.82,-1.17,0.76,-2.99,8.33,-45.46,-1.00
17752.00,-0.27,3.55,-10.52,-0.82,-1.17,0.76,-2.99,8.33,-45.46,-1.00
17764.00,0.05,2.32,-9.75,-0.57,-1.22,0.58,-2.99,8.33,-45.46,-1.00
17778.00,0.60,2.84,-10.58,-0.73,-1.36,0.56,-2.99,8.33,-45.46,-1.00
17790.00,0.60,2.84,-10.58,-0.73,-1.36,0.56,-2.99,8.33,-45.46,-1.00
17802.00,-0.09,1.01,-9.54,-0.11,-1.54,0.63,-1.86,4.84,-46.26,-1.00
17816.00,-0.30,1.01,-9.17,-0.48,-1.56,0.99,-1.86,4.84,-46.26,-1.00
17828.00,-0.30,1.01,-9.17,-0.48,-1.56,0.99,-1.86,4.84,-46.26,-1.00
17840.00,-0.54,1.76,-8.63,-0.86,-1.43,1.21,-1.86,4.84,-46.26,-1.00
17852.00,-0.54,1.76,-8.63,-0.86,-1.43,1.21,-1.86,4.84,-46.26,-1.00
17866.00,-0.42,1.37,-8.70,-1.55,-1.34,1.12,-1.86,4.84,-46.26,-1.00
17878.00,-0.68,2.65,-11.42,-2.38,-1.26,0.98,-1.86,4.84,-46.26,-1.00
17890.00,-0.68,2.65,-11.42,-2.38,-1.26,0.98,-1.86,4.84,-46.26,-1.00
17902.00,-0.66,2.96,-10.17,-1.72,-1.36,0.89,-1.86,4.84,-46.26,-1.00
17917.00,-0.87,3.58,-10.61,-0.67,-1.26,0.66,-4.35,4.99,-44.82,-1.00
17928.00,-0.87,3.58,-10.61,-0.67,-1.26,0.66,-4.35,4.99,-44.82,-1.00
17940.00,-0.08,0.90,-10.39,0.44,-1.17,0.46,-4.35,4.99,-44.82,-1.00
17952.00,-0.08,0.90,-10.39,0.44,-1.17,0.46,-4.35,4.99,-44.82,-1.00
17966.00,-0.56,1.98,-10.42,0.03,-1.26,0.67,-4.35,4.99,-44.82,-1.00
17978.00,-0.38,1.74,-10.49,-0.21,-1.27,0.58,-4.35,4.99,-44.82,-1.00
17990.00,-0.38,1.74,-10.49,-0.21,-1.27,0.58,-4.35,4.99,-44.82,-1.00
18004.00,-0.15,0.33,-9.96,-0.76,-1.41,0.47,-4.35,4.99,-44.82,-1.00
18016.00,-0.54,1.33,-9.78,-1.44,-1.44,0.60,-4.35,4.99,-44.82,-1.00
18028.00,-0.54,1.33,-9.78,-1.44,-1.44,0.60,-4.35,4.99,-44.82,-1.00
18040.00,-1.08,2.07,-11.21,-1.24,-1.30,0.57,-4.35,4.99,-44.82,-1.00
18054.00,-1.08,2.07,-11.21,-1.24,-1.30,0.57,-4.35,4.99,-44.82,-1.00
18066.00,-0.67,1.01,-9.92,-0.13,-1.29,0.51,-2.54,1.35,-46.10,-1.00
18078.00,0.43,-0.19,-8.95,-0.11,-1.29,0.54,-2.54,1.35,-46.10,-1.00
18090.00,0.43,-0.19,-8.95,-0.11,-1.29,0.54,-2.54,1.35,-46.10,-1.00
18104.00,0.02,0.43,-9.63,-1.33,-1.34,0.80,-2.54,1.35,-46.10,-1.00
18116.00,-0.31,1.33,-9.86,-1.94,-1.35,0.91,-2.54,1.35,-46.10,-1.00
18128.00,-0.31,1.33,-9.86,-1.94,-1.35,0.91,-2.54,1.35,-46.10,-1.00
18140.00,-0.52,1.60,-10.58,-1.75,-1.28,0.85,-2.54,1.35,-46.10,-1.00
18154.00,-0.52,1.60,-10.58,-1.75,-1.28,0.85,-2.54,1.35,-46.10,-1.00
18166.00,-0.47,1.64,-9.91,-0.97,-1.27,0.82,-2.54,1.35,-46.10,-1.00
18178.00,-0.71,0.87,-8.94,-0.66,-1.23,0.83,-3.22,-0.02,-44.66,-1.00
18193.00,-0.71,0.87,-8.94,-0.66,-1.23,0.83,-3.22,-0.02,-44.66,-1.00
18204.00,-0.56,1.59,-12.65,-1.28,-1.16,0.89,-3.22,-0.02,-44.66,-1.00
18216.00,0.03,0.81,-9.63,-0.33,-1.35,0.94,-3.22,-0.02,-44.66,-1.00
18228.00,0.03,0.81,-9.63,-0.33,-1.35,0.94,-3.22,-0.02,-44.66,-1.00
18242.00,0.15,1.02,-9.86,-0.98,-1.28,0.85,-3.22,-0.02,-44.66,-1.00
18254.00,0.15,1.02,-9.86,-0.98,-1.28,0.85,-3.22,-0.02,-44.66,-1.00
18266.00,-0.16,0.88,-10.23,-1.31,-1.18,0.74,-3.22,-0.02,-44.66,-1.00
18278.00,-0.64,0.50,-9.67,-1.29,-1.23,0.69,-3.22,-0.02,-44.66,-1.00
18292.00,-0.64,0.50,-9.67,-1.29,-1.23,0.69,-3.22,-0.02,-44.66,-1.00
18304.00,-0.09,0.62,-9.95,-1.70,-1.26,0.63,-2.09,-0.47,-44.82,-1.00
18316.00,-0.18,1.23,-10.31,-1.54,-1.18,0.84,-2.09,-0.47,-44.82,-1.00
18328.00,-0.18,1.23,-10.31,-1.54,-1.18,0.84,-2.09,-0.47,-44.82,-1.00
18343.00,-0.95,1.26,-10.65,-1.01,-1.10,0.95,-2.09,-0.47,-44.82,-1.00
18354.00,-0.95,1.26,-10.65,-1.01,-1.10,0.95,-2.09,-0.47,-44.82,-1.00
18366.00,1.33,1.85,-12.77,-0.56,-1.16,1.02,-2.09,-0.47,-44.82,-1.00
18380.00,-0.10,1.25,-10.15,-0.37,-1.52,0.99,-2.09,-0.47,-44.82,-1.00
18392.00,-0.10,1.25,-10.15,-0.37,-1.52,0.99,-2.09,-0.47,-44.82,-1.00
18404.00,-0.04,0.53,-9.69,-0.52,-1.60,0.83,-2.09,-0.47,-44.82,-1.00
18416.00,-0.57,-0.09,-9.44,-1.13,-1.43,0.77,-4.13,-4.27,-45.62,-1.00
18430.00,-0.57,-0.09,-9.44,-1.13,-1.43,0.77,-4.13,-4.27,-45.62,-1.00
18442.00,-0.28,0.76,-10.22,-1.99,-1.32,0.76,-4.13,-4.27,-45.62,-1.00
18454.00,-0.28,0.76,-10.22,-1.99,-1.32,0.76,-4.13,-4.27,-45.62,-1.00
18466.00,-0.18,0.61,-10.24,-2.03,-1.32,0.85,-4.13,-4.27,-45.62,-1.00
18480.00,-0.38,1.13,-10.25,-1.99,-1.33,1.02,-4.13,-4.27,-45.62,-1.00
18492.00,-0.38,1.13,-10.25,-1.99,-1.33,1.02,-4.13,-4.27,-45.62,-1.00
18504.00,-0.20,2.47,-10.98,-1.59,-1.32,0.93,-4.13,-4.27,-45.62,-1.00
18518.00,-0.75,0.59,-9.78,-0.71,-1.29,0.78,-4.13,-4.27,-45.62,-1.00
18530.00,-0.75,0.59,-9.78,-0.71,-1.29,0.78,-4.13,-4.27,-45.62,-1.00
18542.00,-0.06,0.89,-10.03,-0.96,-1.29,0.82,-4.13,-4.27,-45.62,-1.00
18554.00,-0.06,0.89,-10.03,-0.96,-1.29,0.82,-4.13,-4.27,-45.62,-1.00
18568.00,-0.06,0.87,-10.10,-1.13,-1.30,0.83,-4.35,-1.38,-44.50,-1.00
18580.00,-0.40,0.40,-8.65,-1.56,-1.30,0.73,-4.35,-1.38,-44.50,-1.00
18592.00,-0.40,0.40,-8.65,-1.56,-1.30,0.73,-4.35,-1.38,-44.50,-1.00
18604.00,0.12,0.85,-10.16,-3.06,-1.30,0.58,-4.35,-1.38,-44.50,-1.00
18619.00,-0.46,1.57,-10.32,-3.14,-1.31,0.70,-4.35,-1.38,-44.50,-1.00
18630.00,-0.46,1.57,-10.32,-3.14,-1.31,0.70,-4.35,-1.38,-44.50,-1.00
18642.00,-0.35,2.77,-10.43,-2.62,-1.31,0.81,-4.35,-1.38,-44.50,-1.00
18656.00,-0.36,2.81,-10.31,-1.80,-1.31,0.85,-4.35,-1.38,-44.50,-1.00
18668.00,-0.36,2.81,-10.31,-1.80,-1.31,0.85,-4.35,-1.38,-44.50,-1.00
18680.00,-0.49,2.55,-10.23,-1.19,-1.31,0.86,-3.22,4.23,-46.58,-1.00
18692.00,-0.49,2.55,-10.23,-1.19,-1.31,0.86,-3.22,4.23,-46.58,-1.00
18706.00,-0.21,0.87,-9.32,-1.13,-1.31,0.79,-3.22,4.23,-46.58,-1.00
18718.00,-0.30,2.02,-9.70,-2.10,-1.30,0.80,-3.22,4.23,-46.58,-1.00
18730.00,-0.30,2.02,-9.70,-2.10,-1.30,0.80,-3.22,4.23,-46.58,-1.00
18742.00,-0.31,2.77,-9.97,-2.41,-1.30,0.81,-3.22,4.23,-46.58,-1.00
18756.00,-0.32,3.40,-10.19,-2.17,-1.30,0.81,-3.22,4.23,-46.58,-1.00
18770.00,-0.32,3.40,-10.19,-2.17,-1.30,0.81,-3.22,4.23,-46.58,-1.00
18781.00,-0.32,3.33,-10.09,-1.53,-1.30,0.79,-3.22,4.23,-46.58,-1.00
18796.00,-0.31,2.65,-9.75,-1.01,-1.29,0.78,-4.58,6.96,-45.30,-1.00
18808.00,-0.31,2.65,-9.75,-1.01,-1.29,0.78,-4.58,6.96,-45.30,-1.00
18820.00,-0.27,1.56,-9.10,-1.18,-1.29,0.78,-4.58,6.96,-45.30,-1.00
18832.00,-0.27,1.56,-9.10,-1.18,-1.29,0.78,-4.58,6.96,-45.30,-1.00
18846.00,-0.27,1.11,-8.56,-2.32,-1.30,0.80,-4.58,6.96,-45.30,-1.00
18858.00,-0.22,2.23,-8.39,-4.14,-1.29,0.84,-4.58,6.96,-45.30,-1.00
18870.00,-0.22,2.23,-8.39,-4.14,-1.29,0.84,-4.58,6.96,-45.30,-1.00
18882.00,0.07,5.27,-9.19,-5.29,-1.30,0.94,-4.58,6.96,-45.30,-1.00
18897.00,-0.20,4.66,-7.37,-5.17,-1.50,1.32,-4.58,6.96,-45.30,-1.00
18908.00,-0.20,4.66,-7.37,-5.17,-1.50,1.32,-4.58,6.96,-45.30,-1.00
18921.00,-0.61,3.94,-7.06,-6.74,-1.62,1.54,-6.62,23.51,-40.35,-1.00
18933.00,-0.61,3.94,-7.06,-6.74,-1.62,1.54,-6.62,23.51,-40.35,-1.00
18947.00,-0.27,9.23,-8.97,-4.04,-1.52,1.33,-6.62,23.51,-40.35,-1.00
19034.00,-0.49,6.51,-7.78,-1.14,-1.29,0.75,-6.62,23.51,-40.35,-1.00
19122.00,-0.35,6.38,-7.84,-1.21,-1.30,0.78,-7.98,25.03,-38.43,-1.00
19136.00,-0.20,6.32,-7.95,-1.21,-1.31,0.80,-7.98,25.03,-38.43,-1.00
19148.00,-0.20,6.32,-7.95,-1.21,-1.31,0.80,-7.98,25.03,-38.43,-1.00
19160.00,-0.16,6.22,-8.00,-1.20,-1.34,0.84,-7.98,25.03,-38.43,-1.00
19172.00,-0.16,6.22,-8.00,-1.20,-1.34,0.84,-7.98,25.03,-38.43,-1.00
19186.00,-0.23,6.27,-8.00,-1.21,-1.33,0.83,-8.43,25.33,-38.11,-1.00
19199.00,-0.16,6.20,-8.03,-1.20,-1.32,0.82,-8.43,25.33,-38.11,-1.00
19211.00,-0.16,6.20,-8.03,-1.20,-1.32,0.82,-8.43,25.33,-38.11,-1.00
19223.00,-0.19,6.28,-7.94,-1.21,-1.30,0.79,-8.43,25.33,-38.11,-1.00
19238.00,-0.18,6.32,-7.94,-1.21,-1.29,0.79,-8.43,25.33,-38.11,-1.00
19249.00,-0.18,6.32,-7.94,-1.21,-1.29,0.79,-8.43,25.33,-38.11,-1.00
19261.00,-0.21,6.30,-7.94,-1.21,-1.29,0.79,-8.43,25.33,-38.11,-1.00
19273.00,-0.21,6.30,-7.94,-1.21,-1.29,0.79,-8.43,25.33,-38.11,-1.00
19287.00,-0.22,6.27,-7.95,-1.21,-1.30,0.78,-8.43,25.33,-38.11,-1.00
19299.00,-0.24,6.28,-7.97,-1.21,-1.30,0.79,-7.07,24.72,-37.79,-1.00
19311.00,-0.24,6.28,-7.97,-1.21,-1.30,0.79,-7.07,24.72,-37.79,-1.00
19325.00,-0.24,6.29,-7.93,-1.21,-1.29,0.79,-7.07,24.72,-37.79,-1.00
19337.00,-0.22,6.31,-7.93,-1.21,-1.29,0.79,-7.07,24.72,-37.79,-1.00
19349.00,-0.22,6.31,-7.93,-1.21,-1.29,0.79,-7.07,24.72,-37.79,-1.00
19361.00,-0.20,6.29,-7.93,-1.21,-1.29,0.79,-7.07,24.72,-37.79,-1.00
19375.00,-0.20,6.29,-7.93,-1.21,-1.29,0.79,-7.07,24.72,-37.79,-1.00
19387.00,-0.21,6.29,-7.96,-1.21,-1.29,0.79,-7.07,24.72,-37.79,-1.00
19399.00,-0.24,6.26,-7.95,-1.21,-1.29,0.79,-7.07,24.72,-37.79,-1.00
19411.00,-0.24,6.26,-7.95,-1.21,-1.29,0.79,-7.07,24.72,-37.79,-1.00
19425.00,-0.22,6.29,-7.96,-1.21,-1.30,0.78,-6.17,24.42,-38.43,-1.00
19437.00,-0.22,6.29,-7.95,-1.21,-1.29,0.78,-6.17,24.42,-38.43,-1.00
19449.00,-0.22,6.29,-7.95,-1.21,-1.29,0.78,-6.17,24.42,-38.43,-1.00
19463.00,-0.22,6.29,-7.94,-1.21,-1.29,0.79,-6.17,24.42,-38.43,-1.00
19475.00,-0.22,6.29,-7.94,-1.21,-1.29,0.79,-6.17,24.42,-38.43,-1.00
19487.00,-0.21,6.29,-7.94,-1.21,-1.29,0.78,-6.17,24.42,-38.43,-1.00
19499.00,-0.22,6.29,-7.95,-1.21,-1.29,0.79,-6.17,24.42,-38.43,-1.00
19514.00,-0.22,6.29,-7.95,-1.21,-1.29,0.79,-6.17,24.42,-38.43,-1.00
19525.00,-0.22,6.28,-7.93,-1.21,-1.29,0.78,-6.17,24.42,-38.43,-1.00
19537.00,-0.21,6.29,-7.96,-1.21,-1.29,0.79,-6.17,24.42,-38.43,-1.00
19549.00,-0.21,6.29,-7.96,-1.21,-1.29,0.79,-6.17,24.42,-38.43,-1.00
19563.00,-0.23,6.30,-7.97,-1.21,-1.29,0.79,-7.07,25.03,-39.07,-1.00
19575.00,-0.23,6.30,-7.97,-1.21,-1.29,0.79,-7.07,25.03,-39.07,-1.00
19587.00,-0.20,6.29,-7.95,-1.21,-1.29,0.79,-7.07,25.03,-39.07,-1.00
19601.00,-0.20,6.30,-7.93,-1.21,-1.29,0.78,-7.07,25.03,-39.07,-1.00
19613.00,-0.20,6.30,-7.93,-1.21,-1.29,0.78,-7.07,25.03,-39.07,-1.00
19625.00,-0.23,6.30,-7.93,-1.21,-1.30,0.79,-7.07,25.03,-39.07,-1.00
19637.00,-0.23,6.29,-7.95,-1.21,-1.30,0.79,-7.07,25.03,-39.07,-1.00
19651.00,-0.23,6.29,-7.95,-1.21,-1.30,0.79,-7.07,25.03,-39.07,-1.00
19663.00,-0.22,6.28,-7.93,-1.21,-1.29,0.79,-7.07,25.03,-39.07,-1.00
19675.00,-0.22,6.28,-7.93,-1.21,-1.29,0.79,-7.07,25.03,-39.07,-1.00
19687.00,-0.20,6.31,-7.96,-1.21,-1.29,0.79,-6.17,24.12,-38.75,-1.00
19701.00,-0.20,6.29,-7.96,-1.21,-1.29,0.79,-6.17,24.12,-38.75,-1.00
19713.00,-0.20,6.29,-7.96,-1.21,-1.29,0.79,-6.17,24.12,-38.75,-1.00
19725.00,-0.21,6.29,-7.95,-1.21,-1.29,0.78,-6.17,24.12,-38.75,-1.00
19737.00,-0.22,6.30,-7.92,-1.21,-1.29,0.79,-6.17,24.12,-38.75,-1.00
19751.00,-0.22,6.30,-7.92,-1.21,-1.29,0.79,-6.17,24.12,-38.75,-1.00
19763.00,-0.23,6.29,-7.94,-1.21,-1.30,0.79,-6.17,24.12,-38.75,-1.00
19775.00,-0.23,6.29,-7.94,-1.21,-1.30,0.79,-6.17,24.12,-38.75,-1.00
19789.00,-0.22,6.31,-7.93,-1.21,-1.29,0.79,-6.17,24.12,-38.75,-1.00
19879.00,-0.22,6.28,-7.93,-1.21,-1.29,0.79,-4.81,23.81,-37.79,-1.00
19965.00,-0.20,6.28,-7.95,-1.21,-1.29,0.78,-5.94,24.87,-39.87,-1.00
20053.00,-0.23,6.30,-7.94,-1.21,-1.30,0.79,-5.94,24.87,-39.87,-1.00
20067.00,-0.22,6.29,-7.96,-1.21,-1.29,0.79,-6.17,24.72,-39.39,-1.00
20079.00,-0.23,6.29,-7.94,-1.21,-1.29,0.78,-6.17,24.72,-39.39,-1.00
20091.00,-0.23,6.29,-7.94,-1.21,-1.29,0.78,-6.17,24.72,-39.39,-1.00
20103.00,-0.22,6.29,-7.95,-1.21,-1.29,0.79,-6.17,24.72,-39.39,-1.00
20117.00,-0.22,6.28,-7.94,-1.21,-1.30,0.79,-6.17,24.72,-39.39,-1.00
20130.00,-0.22,6.28,-7.94,-1.21,-1.30,0.79,-6.17,24.72,-39.39,-1.00
20142.00,-0.23,6.29,-7.94,-1.21,-1.29,0.79,-6.17,24.72,-39.39,-1.00
20156.00,-0.22,6.30,-7.94,-1.21,-1.29,0.78,-6.17,24.72,-39.39,-1.00
20168.00,-0.22,6.30,-7.94,-1.21,-1.29,0.78,-6.17,24.72,-39.39,-1.00
20180.00,-0.22,6.28,-7.94,-1.21,-1.29,0.79,-7.07,24.42,-38.11,-1.00
20192.00,-0.22,6.28,-7.94,-1.21,-1.29,0.79,-7.07,24.42,-38.11,-1.00
20206.00,-0.22,6.29,-7.94,-1.21,-1.29,0.79,-7.07,24.42,-38.11,-1.00
20218.00,-0.19,6.29,-7.95,-1.21,-1.29,0.79,-7.07,24.42,-38.11,-1.00
20230.00,-0.19,6.29,-7.95,-1.21,-1.29,0.79,-7.07,24.42,-38.11,-1.00
20242.00,-0.24,6.29,-7.95,-1.21,-1.29,0.78,-7.07,24.42,-38.11,-1.00
20256.00,-0.24,6.29,-7.95,-1.21,-1.29,0.78,-7.07,24.42,-38.11,-1.00
20268.00,-0.23,6.29,-7.93,-1.21,-1.29,0.79,-7.07,24.42,-38.11,-1.00
20280.00,-0.22,6.29,-7.93,-1.21,-1.29,0.79,-7.07,24.42,-38.11,-1.00
20292.00,-0.22,6.29,-7.93,-1.21,-1.29,0.79,-7.07,24.42,-38.11,-1.00
20306.00,-0.21,6.29,-7.94,-1.21,-1.29,0.78,-5.49,23.05,-39.23,-1.00
20318.00,-0.19,6.28,-7.96,-1.21,-1.29,0.78,-5.49,23.05,-39.23,-1.00
20330.00,-0.19,6.28,-7.96,-1.21,-1.29,0.78,-5.49,23.05,-39.23,-1.00
20344.00,-0.21,6.30,-7.94,-1.21,-1.29,0.79,-5.49,23.05,-39.23,-1.00
20356.00,-0.21,6.30,-7.94,-1.21,-1.29,0.79,-5.49,23.05,-39.23,-1.00
20368.00,-0.22,6.28,-7.95,-1.21,-1.30,0.79,-5.49,23.05,-39.23,-1.00
20380.00,-0.23,6.28,-7.95,-1.21,-1.29,0.78,-5.49,23.05,-39.23,-1.00
20394.00,-0.23,6.28,-7.95,-1.21,-1.29,0.78,-5.49,23.05,-39.23,-1.00
20406.00,-0.24,6.29,-7.93,-1.21,-1.29,0.79,-5.49,23.05,-39.23,-1.00
20418.00,-0.23,6.30,-7.95,-1.21,-1.29,0.78,-5.49,23.05,-39.23,-1.00
20430.00,-0.23,6.30,-7.95,-1.21,-1.29,0.78,-5.49,23.05,-39.23,-1.00
20445.00,-0.21,6.29,-7.96,-1.21,-1.29,0.78,-6.17,25.94,-40.03,-1.00
20456.00,-0.21,6.29,-7.96,-1.21,-1.29,0.78,-6.17,25.94,-40.03,-1.00
20468.00,-0.22,6.30,-7.93,-1.21,-1.29,0.78,-6.17,25.94,-40.03,-1.00
20482.00,-0.22,6.28,-7.94,-1.21,-1.29,0.78,-6.17,25.94,-40.03,-1.00
20494.00,-0.22,6.28,-7.94,-1.21,-1.29,0.78,-6.17,25.94,-40.03,-1.00
20506.00,-0.27,6.35,-7.90,-1.21,-1.29,0.78,-6.17,25.94,-40.03,-1.00
20518.00,-0.21,6.29,-7.96,-1.21,-1.29,0.78,-6.17,25.94,-40.03,-1.00
20532.00,-0.21,6.29,-7.96,-1.21,-1.29,0.78,-6.17,25.94,-40.03,-1.00
20544.00,-0.22,6.28,-7.93,-1.21,-1.29,0.78,-6.17,25.94,-40.03,-1.00
20556.00,-0.22,6.28,-7.93,-1.21,-1.29,0.78,-6.17,25.94,-40.03,-1.00
20568.00,-0.24,6.30,-7.94,-1.21,-1.29,0.78,-5.49,25.48,-39.55,-1.00
20582.00,-0.22,6.30,-7.94,-1.21,-1.29,0.79,-5.49,25.48,-39.55,-1.00
20594.00,-0.22,6.30,-7.94,-1.21,-1.29,0.79,-5.49,25.48,-39.55,-1.00
20606.00,-0.23,6.29,-7.93,-1.21,-1.29,0.79,-5.49,25.48,-39.55,-1.00
20618.00,-0.22,6.30,-7.95,-1.21,-1.29,0.78,-5.49,25.48,-39.55,-1.00
20632.00,-0.22,6.30,-7.95,-1.21,-1.29,0.78,-5.49,25.48,-39.55,-1.00
20644.00,-0.21,6.29,-7.94,-1.21,-1.29,0.79,-5.49,25.48,-39.55,-1.00
20656.00,-0.21,6.29,-7.94,-1.21,-1.29,0.79,-5.49,25.48,-39.55,-1.00
20670.00,-0.22,6.29,-7.95,-1.21,-1.30,0.79,-5.49,25.48,-39.55,-1.00
20682.00,-0.23,6.29,-7.95,-1.21,-1.30,0.79,-7.75,24.57,-39.23,-1.00
20694.00,-0.23,6.29,-7.95,-1.21,-1.30,0.79,-7.75,24.57,-39.23,-1.00
20706.00,-0.22,6.29,-7.95,-1.21,-1.29,0.78,-7.75,24.57,-39.23,-1.00
20721.00,-0.22,6.29,-7.95,-1.21,-1.29,0.78,-7.75,24.57,-39.23,-1.00
20732.00,-0.22,6.29,-7.95,-1.21,-1.29,0.78,-7.75,24.57,-39.23,-1.00
20744.00,-0.24,6.29,-7.93,-1.21,-1.29,0.79,-7.75,24.57,-39.23,-1.00
20756.00,-0.24,6.29,-7.93,-1.21,-1.29,0.79,-7.75,24.57,-39.23,-1.00
20770.00,-0.22,6.29,-7.94,-1.21,-1.29,0.79,-7.75,24.57,-39.23,-1.00
20782.00,-0.23,6.29,-7.93,-1.21,-1.29,0.79,-7.75,24.57,-39.23,-1.00
20794.00,-0.23,6.29,-7.93,-1.21,-1.29,0.79,-7.75,24.57,-39.23,-1.00
20808.00,-0.21,6.28,-7.94,-1.21,-1.29,0.79,-6.62,24.42,-40.03,-1.00
20820.00,-0.20,6.28,-7.95,-1.21,-1.29,0.79,-6.62,24.42,-40.03,-1.00
20832.00,-0.20,6.28,-7.95,-1.21,-1.29,0.79,-6.62,24.42,-40.03,-1.00
20844.00,-0.20,6.29,-7.95,-1.21,-1.30,0.78,-6.62,24.42,-40.03,-1.00
20858.00,-0.21,6.28,-7.94,-1.21,-1.29,0.78,-6.62,24.42,-40.03,-1.00
20870.00,-0.21,6.28,-7.94,-1.21,-1.29,0.78,-6.62,24.42,-40.03,-1.00
20882.00,-0.23,6.29,-7.91,-1.21,-1.29,0.78,-6.62,24.42,-40.03,-1.00
20894.00,-0.23,6.29,-7.91,-1.21,-1.29,0.78,-6.62,24.42,-40.03,-1.00
20908.00,-0.23,6.31,-7.91,-1.21,-1.30,0.78,-6.62,24.42,-40.03,-1.00
20920.00,-0.22,6.29,-7.93,-1.21,-1.29,0.78,-6.62,24.42,-40.03,-1.00
20932.00,-0.22,6.29,-7.93,-1.21,-1.29,0.78,-6.62,24.42,-40.03,-1.00
20946.00,-0.21,6.29,-7.94,-1.21,-1.30,0.79,-6.62,24.72,-38.11,-1.00
20958.00,-0.20,6.29,-7.93,-1.21,-1.30,0.78,-6.62,24.72,-38.11,-1.00
20970.00,-0.20,6.29,-7.93,-1.21,-1.30,0.78,-6.62,24.72,-38.11,-1.00
20982.00,-0.21,6.29,-7.93,-1.21,-1.29,0.78,-6.62,24.72,-38.11,-1.00
20997.00,-0.21,6.29,-7.93,-1.21,-1.29,0.78,-6.62,24.72,-38.11,-1.00
21008.00,-0.23,6.28,-7.95,-1.21,-1.30,0.78,-6.62,24.72,-38.11,-1.00
21020.00,-0.24,6.28,-7.96,-1.21,-1.30,0.78,-6.62,24.72,-38.11,-1.00
21032.00,-0.24,6.28,-7.96,-1.21,-1.30,0.78,-6.62,24.72,-38.11,-1.00
21046.00,-0.24,6.29,-7.94,-1.21,-1.30,0.79,-6.62,24.72,-38.11,-1.00
21058.00,-0.21,6.29,-7.99,-1.21,-1.29,0.79,-7.07,24.12,-37.47,-1.00
21070.00,-0.21,6.29,-7.99,-1.21,-1.29,0.79,-7.07,24.12,-37.47,-1.00
21082.00,-0.19,6.28,-7.95,-1.21,-1.29,0.79,-7.07,24.12,-37.47,-1.00
21096.00,-0.19,6.28,-7.95,-1.21,-1.29,0.79,-7.07,24.12,-37.47,-1.00
21108.00,-0.22,6.29,-7.94,-1.21,-1.29,0.79,-7.07,24.12,-37.47,-1.00
21120.00,-0.23,6.29,-7.96,-1.21,-1.29,0.78,-7.07,24.12,-37.47,-1.00
21134.00,-0.23,6.29,-7.96,-1.21,-1.29,0.78,-7.07,24.12,-37.47,-1.00
21146.00,-0.23,6.29,-7.94,-1.21,-1.30,0.79,-7.07,24.12,-37.47,-1.00
21158.00,-0.23,6.29,-7.93,-1.21,-1.29,0.79,-7.07,24.12,-37.47,-1.00
21170.00,-0.23,6.29,-7.93,-1.21,-1.29,0.79,-7.07,24.12,-37.47,-1.00
21185.00,-0.24,6.35,-8.03,-1.21,-1.29,0.78,-7.53,25.63,-39.07,-1.00
21196.00,-0.24,6.35,-8.03,-1.21,-1.29,0.78,-7.53,25.63,-39.07,-1.00
21208.00,-0.23,6.24,-7.88,-1.21,-1.29,0.79,-7.53,25.63,-39.07,-1.00
21220.00,-0.21,6.34,-8.00,-1.21,-1.30,0.79,-7.53,25.63,-39.07,-1.00
21234.00,-0.21,6.34,-8.00,-1.21,-1.30,0.79,-7.53,25.63,-39.07,-1.00
21246.00,-0.20,6.26,-7.91,-1.21,-1.29,0.79,-7.53,25.63,-39.07,-1.00
21258.00,-0.19,6.23,-7.86,-1.21,-1.29,0.79,-7.53,25.63,-39.07,-1.00
21272.00,-0.19,6.23,-7.86,-1.21,-1.29,0.79,-7.53,25.63,-39.07,-1.00
21284.00,-0.22,6.31,-7.96,-1.21,-1.29,0.78,-7.53,25.63,-39.07,-1.00
21296.00,-0.22,6.31,-7.96,-1.21,-1.29,0.78,-7.53,25.63,-39.07,-1.00
21308.00,-0.23,6.24,-7.87,-1.21,-1.29,0.78,-6.17,24.12,-39.71,-1.00
21322.00,-0.22,6.30,-7.99,-1.21,-1.29,0.79,-6.17,24.12,-39.71,-1.00
21334.00,-0.22,6.30,-7.99,-1.21,-1.29,0.79,-6.17,24.12,-39.71,-1.00
21346.00,-0.20,6.32,-7.98,-1.21,-1.30,0.79,-6.17,24.12,-39.71,-1.00
21358.00,-0.23,6.26,-7.93,-1.21,-1.29,0.78,-6.17,24.12,-39.71,-1.00
21372.00,-0.23,6.26,-7.93,-1.21,-1.29,0.78,-6.17,24.12,-39.71,-1.00
21384.00,-0.24,6.34,-8.00,-1.21,-1.29,0.79,-6.17,24.12,-39.71,-1.00
21396.00,-0.24,6.34,-8.00,-1.21,-1.29,0.79,-6.17,24.12,-39.71,-1.00
21408.00,-0.22,6.29,-7.93,-1.21,-1.29,0.79,-6.17,24.12,-39.71,-1.00
21422.00,-0.23,6.29,-7.94,-1.21,-1.29,0.79,-6.17,24.12,-39.71,-1.00
21434.00,-0.23,6.29,-7.94,-1.21,-1.29,0.79,-6.17,24.12,-39.71,-1.00
21446.00,-0.21,6.30,-7.98,-1.21,-1.29,0.79,-7.07,24.12,-37.47,-1.00
21461.00,-0.19,6.24,-7.92,-1.21,-1.29,0.79,-7.07,24.12,-37.47,-1.00
21548.00,-0.24,6.31,-7.97,-1.21,-1.29,0.79,-7.07,24.12,-37.47,-1.00
21636.00,-0.20,6.28,-7.91,-1.21,-1.29,0.78,-5.26,23.20,-38.43,-1.00
21723.00,-0.21,6.29,-7.94,-1.21,-1.30,0.79,-7.53,23.51,-39.39,-1.00
21737.00,-0.21,6.29,-7.94,-1.21,-1.30,0.79,-7.53,23.51,-39.39,-1.00
21749.00,-0.21,6.29,-7.94,-1.21,-1.30,0.79,-7.53,23.51,-39.39,-1.00
21761.00,-0.22,6.30,-7.94,-1.21,-1.30,0.79,-7.53,23.51,-39.39,-1.00
21773.00,-0.22,6.30,-7.94,-1.21,-1.30,0.79,-7.53,23.51,-39.39,-1.00
21787.00,-0.22,6.28,-7.94,-1.21,-1.30,0.79,-7.53,23.51,-39.39,-1.00
21799.00,-0.21,6.30,-7.94,-1.21,-1.30,0.79,-6.17,23.20,-38.43,-1.00
21811.00,-0.21,6.30,-7.94,-1.21,-1.30,0.79,-6.17,23.20,-38.43,-1.00
21825.00,-0.23,6.28,-7.96,-1.21,-1.30,0.79,-6.17,23.20,-38.43,-1.00
21837.00,-0.23,6.28,-7.96,-1.21,-1.30,0.79,-6.17,23.20,-38.43,-1.00
21849.00,-0.20,6.28,-7.93,-1.21,-1.29,0.78,-6.17,23.20,-38.43,-1.00
21861.00,-0.22,6.30,-7.93,-1.21,-1.30,0.79,-6.17,23.20,-38.43,-1.00
21875.00,-0.22,6.30,-7.93,-1.21,-1.30,0.79,-6.17,23.20,-38.43,-1.00
21887.00,-0.23,6.29,-7.95,-1.21,-1.29,0.79,-6.17,23.20,-38.43,-1.00
21899.00,-0.23,6.29,-7.92,-1.21,-1.29,0.78,-6.17,23.20,-38.43,-1.00
21911.00,-0.23,6.29,-7.92,-1.21,-1.29,0.78,-6.17,23.20,-38.43,-1.00
21926.00,-0.21,6.29,-7.94,-1.21,-1.30,0.78,-6.17,23.20,-38.43,-1.00
21937.00,-0.21,6.29,-7.94,-1.21,-1.30,0.78,-6.17,23.20,-38.43,-1.00
21949.00,-0.23,6.29,-7.94,-1.21,-1.30,0.78,-5.26,24.42,-39.07,-1.00
21961.00,-0.21,6.29,-7.94,-1.21,-1.29,0.78,-5.26,24.42,-39.07,-1.00
21975.00,-0.21,6.29,-7.94,-1.21,-1.29,0.78,-5.26,24.42,-39.07,-1.00
21987.00,-0.22,6.29,-7.93,-1.21,-1.29,0.79,-5.26,24.42,-39.07,-1.00
21999.00,-0.22,6.29,-7.93,-1.21,-1.29,0.79,-5.26,24.42,-39.07,-1.00
22013.00,-0.22,6.29,-7.93,-1.21,-1.29,0.79,-5.26,24.42,-39.07,-1.00
22025.00,-0.23,6.30,-7.95,-1.21,-1.29,0.79,-5.26,24.42,-39.07,-1.00
22037.00,-0.23,6.30,-7.95,-1.21,-1.29,0.79,-5.26,24.42,-39.07,-1.00
22049.00,-0.22,6.28,-7.94,-1.21,-1.30,0.78,-5.26,24.42,-39.07,-1.00
22063.00,-0.21,6.30,-7.97,-1.21,-1.30,0.79,-7.75,23.96,-38.59,-1.00
22075.00,-0.21,6.30,-7.97,-1.21,-1.30,0.79,-7.75,23.96,-38.59,-1.00
22087.00,-0.21,6.29,-7.95,-1.21,-1.29,0.79,-7.75,23.96,-38.59,-1.00
22100.00,-0.20,6.29,-7.94,-1.21,-1.29,0.78,-7.75,23.96,-38.59,-1.00
22113.00,-0.20,6.29,-7.94,-1.21,-1.29,0.78,-7.75,23.96,-38.59,-1.00
22125.00,-0.23,6.29,-7.94,-1.21,-1.30,0.78,-7.75,23.96,-38.59,-1.00
22137.00,-0.23,6.29,-7.94,-1.21,-1.30,0.78,-7.75,23.96,-38.59,-1.00
22151.00,-0.22,6.30,-7.93,-1.21,-1.29,0.79,-7.75,23.96,-38.59,-1.00
22163.00,-0.22,6.29,-7.91,-1.21,-1.29,0.78,-7.75,23.96,-38.59,-1.00
22175.00,-0.22,6.29,-7.91,-1.21,-1.29,0.78,-7.75,23.96,-38.59,-1.00
22187.00,-0.21,6.29,-7.95,-1.21,-1.29,0.78,-6.85,24.57,-37.63,-1.00
22201.00,-0.22,6.29,-7.95,-1.21,-1.30,0.79,-6.85,24.57,-37.63,-1.00
22213.00,-0.22,6.29,-7.95,-1.21,-1.30,0.79,-6.85,24.57,-37.63,-1.00
22225.00,-0.19,6.29,-7.95,-1.21,-1.30,0.79,-6.85,24.57,-37.63,-1.00
22237.00,-0.19,6.29,-7.95,-1.21,-1.30,0.79,-6.85,24.57,-37.63,-1.00
22252.00,-0.23,6.28,-7.94,-1.21,-1.29,0.79,-6.85,24.57,-37.63,-1.00
22264.00,-0.23,6.28,-7.93,-1.21,-1.30,0.79,-6.85,24.57,-37.63,-1.00
22276.00,-0.23,6.28,-7.93,-1.21,-1.30,0.79,-6.85,24.57,-37.63,-1.00
22290.00,-0.23,6.29,-7.94,-1.21,-1.30,0.79,-6.85,24.57,-37.63,-1.00
22302.00,-0.23,6.30,-7.92,-1.21,-1.29,0.78,-6.39,25.18,-39.23,-1.00
22314.00,-0.23,6.30,-7.92,-1.21,-1.29,0.78,-6.39,25.18,-39.23,-1.00
22326.00,-0.21,6.28,-7.94,-1.21,-1.30,0.78,-6.39,25.18,-39.23,-1.00
22340.00,-0.22,6.29,-7.95,-1.21,-1.29,0.79,-6.39,25.18,-39.23,-1.00
22352.00,-0.22,6.29,-7.95,-1.21,-1.29,0.79,-6.39,25.18,-39.23,-1.00
22364.00,-0.22,6.29,-7.94,-1.21,-1.29,0.78,-6.39,25.18,-39.23,-1.00
22376.00,-0.22,6.29,-7.94,-1.21,-1.29,0.78,-6.39,25.18,-39.23,-1.00
22390.00,-0.22,6.30,-7.93,-1.21,-1.29,0.78,-6.39,25.18,-39.23,-1.00
22402.00,-0.23,6.28,-7.94,-1.21,-1.30,0.78,-6.39,25.18,-39.23,-1.00
22414.00,-0.23,6.28,-7.94,-1.21,-1.30,0.78,-6.39,25.18,-39.23,-1.00
22426.00,-0.23,6.29,-7.93,-1.21,-1.29,0.78,-6.39,25.18,-39.23,-1.00
22440.00,-0.20,6.28,-7.94,-1.21,-1.29,0.79,-7.53,25.33,-39.07,-1.00
22452.00,-0.20,6.28,-7.94,-1.21,-1.29,0.79,-7.53,25.33,-39.07,-1.00
22464.00,-0.22,6.29,-7.96,-1.21,-1.30,0.79,-7.53,25.33,-39.07,-1.00
22478.00,-0.22,6.29,-7.96,-1.21,-1.30,0.79,-7.53,25.33,-39.07,-1.00
22490.00,-0.23,6.28,-7.95,-1.21,-1.30,0.78,-7.53,25.33,-39.07,-1.00
22502.00,-0.23,6.29,-7.93,-1.21,-1.29,0.79,-7.53,25.33,-39.07,-1.00
22514.00,-0.23,6.29,-7.93,-1.21,-1.29,0.79,-7.53,25.33,-39.07,-1.00
22529.00,-0.23,6.29,-7.94,-1.21,-1.29,0.79,-7.53,25.33,-39.07,-1.00
22540.00,-0.22,6.29,-7.96,-1.21,-1.29,0.78,-7.53,25.33,-39.07,-1.00
22552.00,-0.22,6.29,-7.96,-1.21,-1.29,0.78,-7.53,25.33,-39.07,-1.00
22564.00,-0.22,6.28,-7.97,-1.21,-1.29,0.79,-5.26,24.72,-39.07,-1.00
22578.00,-0.22,6.28,-7.97,-1.21,-1.29,0.79,-5.26,24.72,-39.07,-1.00
22590.00,-0.21,6.29,-7.95,-1.21,-1.29,0.79,-5.26,24.72,-39.07,-1.00
22602.00,-0.21,6.30,-7.94,-1.21,-1.29,0.79,-5.26,24.72,-39.07,-1.00
22616.00,-0.21,6.30,-7.94,-1.21,-1.29,0.79,-5.26,24.72,-39.07,-1.00
22628.00,-0.22,6.28,-7.93,-1.21,-1.29,0.79,-5.26,24.72,-39.07,-1.00
22640.00,-0.22,6.29,-7.94,-1.21,-1.30,0.79,-5.26,24.72,-39.07,-1.00
22652.00,-0.22,6.29,-7.94,-1.21,-1.30,0.79,-5.26,24.72,-39.07,-1.00
22666.00,-0.21,6.28,-7.96,-1.21,-1.29,0.79,-5.26,24.72,-39.07,-1.00
22678.00,-0.21,6.28,-7.96,-1.21,-1.29,0.79,-5.26,24.72,-39.07,-1.00
22690.00,-0.22,6.28,-7.95,-1.21,-1.29,0.78,-6.85,24.27,-39.23,-1.00
22702.00,-0.22,6.28,-7.95,-1.21,-1.29,0.78,-6.85,24.27,-39.23,-1.00
22717.00,-0.22,6.28,-7.95,-1.21,-1.29,0.78,-6.85,24.27,-39.23,-1.00
22728.00,-0.23,6.29,-7.92,-1.21,-1.29,0.79,-6.85,24.27,-39.23,-1.00
22740.00,-0.24,6.28,-7.94,-1.21,-1.29,0.79,-6.85,24.27,-39.23,-1.00
22752.00,-0.24,6.28,-7.94,-1.21,-1.29,0.79,-6.85,24.27,-39.23,-1.00
22766.00,-0.20,6.30,-7.94,-1.21,-1.29,0.79,-6.85,24.27,-39.23,-1.00
22778.00,-0.20,6.30,-7.94,-1.21,-1.29,0.79,-6.85,24.27,-39.23,-1.00
22790.00,-0.21,6.29,-7.93,-1.21,-1.29,0.78,-6.85,24.27,-39.23,-1.00
22804.00,-0.22,6.28,-7.98,-1.21,-1.30,0.79,-6.85,25.18,-37.95,-1.00
22816.00,-0.22,6.28,-7.98,-1.21,-1.30,0.79,-6.85,25.18,-37.95,-1.00
22828.00,-0.20,6.29,-7.93,-1.21,-1.29,0.79,-6.85,25.18,-37.95,-1.00
22840.00,-0.22,6.29,-7.94,-1.21,-1.29,0.78,-6.85,25.18,-37.95,-1.00
22854.00,-0.22,6.29,-7.94,-1.21,-1.29,0.78,-6.85,25.18,-37.95,-1.00
22866.00,-0.22,6.30,-7.93,-1.21,-1.30,0.78,-6.85,25.18,-37.95,-1.00
22878.00,-0.22,6.30,-7.93,-1.21,-1.30,0.78,-6.85,25.18,-37.95,-1.00
22890.00,-0.22,6.28,-7.93,-1.21,-1.30,0.78,-6.85,25.18,-37.95,-1.00
22904.00,-0.21,6.30,-7.92,-1.21,-1.29,0.78,-6.85,25.18,-37.95,-1.00
22916.00,-0.21,6.30,-7.92,-1.21,-1.29,0.78,-6.85,25.18,-37.95,-1.00
22928.00,-0.23,6.29,-7.94,-1.21,-1.29,0.79,-6.85,25.18,-37.95,-1.00
22942.00,-0.22,6.29,-7.95,-1.21,-1.30,0.79,-5.26,24.42,-39.39,-1.00
22954.00,-0.22,6.29,-7.95,-1.21,-1.30,0.79,-5.26,24.42,-39.39,-1.00
22966.00,-0.23,6.30,-7.96,-1.21,-1.30,0.79,-5.26,24.42,-39.39,-1.00
22978.00,-0.23,6.30,-7.96,-1.21,-1.30,0.79,-5.26,24.42,-39.39,-1.00
22992.00,-0.20,6.29,-7.93,-1.21,-1.29,0.78,-5.26,24.42,-39.39,-1.00
23004.00,-0.21,6.28,-7.94,-1.21,-1.29,0.78,-5.26,24.42,-39.39,-1.00
23016.00,-0.21,6.28,-7.94,-1.21,-1.29,0.78,-5.26,24.42,-39.39,-1.00
23028.00,-0.22,6.29,-7.94,-1.21,-1.29,0.78,-5.26,24.42,-39.39,-1.00
23042.00,-0.20,6.28,-7.92,-1.21,-1.29,0.79,-5.26,24.42,-39.39,-1.00
23054.00,-0.20,6.28,-7.92,-1.21,-1.29,0.79,-5.26,24.42,-39.39,-1.00
23066.00,-0.23,6.30,-7.95,-1.21,-1.30,0.79,-6.62,25.03,-40.67,-1.00
23078.00,-0.23,6.30,-7.95,-1.21,-1.30,0.79,-6.62,25.03,-40.67,-1.00
23092.00,-0.21,6.29,-7.94,-1.21,-1.29,0.79,-6.62,25.03,-40.67,-1.00
23104.00,-0.22,6.29,-7.94,-1.21,-1.29,0.79,-6.62,25.03,-40.67,-1.00
23116.00,-0.22,6.29,-7.94,-1.21,-1.29,0.79,-6.62,25.03,-40.67,-1.00
23130.00,-0.21,6.29,-7.94,-1.21,-1.29,0.78,-6.62,25.03,-40.67,-1.00
23142.00,-0.23,6.30,-7.95,-1.21,-1.29,0.78,-6.62,25.03,-40.67,-1.00
23154.00,-0.23,6.30,-7.95,-1.21,-1.29,0.78,-6.62,25.03,-40.67,-1.00
23166.00,-0.21,6.28,-7.94,-1.21,-1.29,0.78,-6.62,25.03,-40.67,-1.00
23180.00,-0.22,6.27,-7.96,-1.21,-1.29,0.78,-6.85,25.78,-38.59,-1.00
23192.00,-0.22,6.27,-7.96,-1.21,-1.29,0.78,-6.85,25.78,-38.59,-1.00
23204.00,-0.22,6.27,-7.95,-1.21,-1.30,0.79,-6.85,25.78,-38.59,-1.00
23216.00,-0.22,6.27,-7.95,-1.21,-1.30,0.79,-6.85,25.78,-38.59,-1.00
23230.00,-0.22,6.29,-7.94,-1.21,-1.30,0.79,-6.85,25.78,-38.59,-1.00
23242.00,-0.21,6.28,-7.96,-1.21,-1.29,0.79,-6.85,25.78,-38.59,-1.00
23254.00,-0.21,6.28,-7.96,-1.21,-1.29,0.79,-6.85,25.78,-38.59,-1.00
23269.00,-0.22,6.28,-7.93,-1.21,-1.29,0.79,-6.85,25.78,-38.59,-1.00
23280.00,-0.22,6.30,-7.93,-1.21,-1.29,0.79,-6.85,25.78,-38.59,-1.00
23292.00,-0.22,6.30,-7.93,-1.21,-1.29,0.79,-6.85,25.78,-38.59,-1.00
23304.00,-0.21,6.28,-7.93,-1.21,-1.29,0.78,-6.85,25.78,-38.59,-1.00
23318.00,-0.21,6.28,-7.93,-1.21,-1.29,0.78,-6.85,25.78,-38.59,-1.00
23330.00,-0.22,6.29,-7.95,-1.21,-1.29,0.78,-7.07,23.51,-37.47,-1.00
23342.00,-0.22,6.29,-7.91,-1.21,-1.30,0.79,-7.07,23.51,-37.47,-1.00
23354.00,-0.22,6.29,-7.91,-1.21,-1.30,0.79,-7.07,23.51,-37.47,-1.00
23368.00,-0.22,6.30,-7.93,-1.21,-1.30,0.78,-7.07,23.51,-37.47,-1.00
23380.00,-0.22,6.28,-7.95,-1.21,-1.29,0.79,-7.07,23.51,-37.47,-1.00
23392.00,-0.22,6.28,-7.95,-1.21,-1.29,0.79,-7.07,23.51,-37.47,-1.00
23406.00,-0.21,6.27,-7.94,-1.21,-1.29,0.79,-7.07,23.51,-37.47,-1.00
23418.00,-0.21,6.27,-7.94,-1.21,-1.29,0.79,-7.07,23.51,-37.47,-1.00
23430.00,-0.22,6.28,-7.93,-1.21,-1.29,0.79,-7.07,23.51,-37.47,-1.00
23442.00,-0.21,6.29,-7.95,-1.21,-1.29,0.78,-5.49,24.87,-39.23,-1.00
23456.00,-0.21,6.29,-7.95,-1.21,-1.29,0.78,-5.49,24.87,-39.23,-1.00
23468.00,-0.23,6.29,-7.96,-1.21,-1.29,0.79,-5.49,24.87,-39.23,-1.00
23480.00,-0.23,6.29,-7.92,-1.21,-1.29,0.78,-5.49,24.87,-39.23,-1.00
23492.00,-0.23,6.29,-7.92,-1.21,-1.29,0.78,-5.49,24.87,-39.23,-1.00
23506.00,-0.22,6.29,-7.96,-1.21,-1.29,0.79,-5.49,24.87,-39.23,-1.00
23518.00,-0.22,6.29,-7.96,-1.21,-1.29,0.79,-5.49,24.87,-39.23,-1.00
23530.00,-0.22,6.27,-7.91,-1.21,-1.29,0.79,-5.49,24.87,-39.23,-1.00
23542.00,-0.21,6.30,-7.93,-1.21,-1.29,0.79,-5.49,24.87,-39.23,-1.00
23556.00,-0.21,6.30,-7.93,-1.21,-1.29,0.79,-5.49,24.87,-39.23,-1.00
23569.00,-0.22,6.29,-7.94,-1.21,-1.29,0.79,-8.89,25.03,-38.75,-1.00
23581.00,-0.23,6.29,-7.95,-1.21,-1.29,0.78,-8.89,25.03,-38.75,-1.00
23595.00,-0.23,6.29,-7.95,-1.21,-1.29,0.78,-8.89,25.03,-38.75,-1.00
23607.00,-0.21,6.30,-7.93,-1.21,-1.30,0.78,-8.89,25.03,-38.75,-1.00
23619.00,-0.21,6.30,-7.93,-1.21,-1.30,0.78,-8.89,25.03,-38.75,-1.00
23631.00,-0.23,6.30,-7.95,-1.21,-1.30,0.78,-8.89,25.03,-38.75,-1.00
23645.00,-0.21,6.29,-7.93,-1.21,-1.30,0.78,-8.89,25.03,-38.75,-1.00
23657.00,-0.21,6.29,-7.93,-1.21,-1.30,0.78,-8.89,25.03,-38.75,-1.00
23669.00,0.57,6.78,-7.42,-0.92,-1.22,0.57,-8.89,25.03,-38.75,-1.00
23681.00,-0.64,5.73,-8.36,-0.98,-1.18,0.56,-5.71,23.81,-38.11,-1.00
23696.00,-0.64,5.73,-8.36,-0.98,-1.18,0.56,-5.71,23.81,-38.11,-1.00
23707.00,-0.27,6.23,-7.95,-1.13,-1.37,0.64,-5.71,23.81,-38.11,-1.00
23719.00,-0.27,6.23,-7.95,-1.13,-1.37,0.64,-5.71,23.81,-38.11,-1.00
23734.00,-0.46,6.16,-8.11,-1.18,-1.36,0.69,-5.71,23.81,-38.11,-1.00
23745.00,-0.25,6.13,-8.00,-1.25,-1.21,0.80,-5.71,23.81,-38.11,-1.00
23757.00,-0.25,6.13,-8.00,-1.25,-1.21,0.80,-5.71,23.81,-38.11,-1.00
23769.00,-0.26,6.38,-8.01,-1.30,-1.14,0.60,-5.71,23.81,-38.11,-1.00
23783.00,-0.24,6.29,-7.89,-1.24,-1.03,0.32,-5.71,23.81,-38.11,-1.00
23795.00,-0.24,6.29,-7.89,-1.24,-1.03,0.32,-5.71,23.81,-38.11,-1.00
23807.00,-0.31,6.10,-8.07,-1.16,-1.19,0.44,-5.71,23.81,-38.11,-1.00
23819.00,-0.31,6.10,-8.07,-1.16,-1.19,0.44,-5.71,23.81,-38.11,-1.00
23833.00,-0.31,6.21,-8.04,-1.20,-1.30,0.72,-7.30,24.57,-38.91,-1.00
23921.00,-0.31,6.02,-8.18,-1.22,-1.32,0.79,-7.30,24.57,-38.91,-1.00
24009.00,-0.43,6.22,-8.00,-1.17,-1.36,0.78,-6.17,24.12,-35.88,-1.00
24097.00,-0.40,6.26,-7.97,-1.30,-1.31,0.80,-6.62,23.81,-35.88,-1.00
24111.00,-0.35,6.17,-8.04,-1.29,-1.30,0.80,-6.62,23.81,-35.88,-1.00
24123.00,-0.43,6.29,-7.95,-1.29,-1.22,0.86,-6.62,23.81,-35.88,-1.00
24135.00,-0.43,6.29,-7.95,-1.29,-1.22,0.86,-6.62,23.81,-35.88,-1.00
24149.00,-0.29,6.20,-8.03,-1.27,-1.17,0.90,-6.62,23.81,-35.88,-1.00
24161.00,-0.28,6.25,-8.05,-1.21,-1.26,0.92,-6.62,23.81,-35.88,-1.00
24173.00,-0.28,6.25,-8.05,-1.21,-1.26,0.92,-6.62,23.81,-35.88,-1.00
24185.00,-0.37,6.38,-7.90,-1.17,-1.32,0.85,-6.39,24.87,-33.16,-1.00
24200.00,-0.37,6.38,-7.90,-1.17,-1.32,0.85,-6.39,24.87,-33.16,-1.00
24211.00,-0.34,6.30,-7.99,-1.18,-1.30,0.80,-6.39,24.87,-33.16,-1.00
24223.00,-0.35,6.29,-7.95,-1.17,-1.30,0.80,-6.39,24.87,-33.16,-1.00
24235.00,-0.35,6.29,-7.95,-1.17,-1.30,0.80,-6.39,24.87,-33.16,-1.00
24249.00,-0.35,6.29,-7.94,-1.15,-1.30,0.79,-6.39,24.87,-33.16,-1.00
24261.00,-0.47,6.24,-8.06,-1.10,-1.30,0.77,-6.39,24.87,-33.16,-1.00
24273.00,-0.47,6.24,-8.06,-1.10,-1.30,0.77,-6.39,24.87,-33.16,-1.00
24287.00,-0.33,6.15,-7.99,-1.06,-1.27,0.73,-6.39,24.87,-33.16,-1.00
24299.00,-0.33,6.15,-7.99,-1.06,-1.27,0.73,-6.39,24.87,-33.16,-1.00
24311.00,-0.35,6.14,-8.06,-1.13,-1.22,0.76,-6.39,24.87,-33.16,-1.00
24323.00,-0.42,6.35,-7.95,-1.06,-1.15,0.70,-6.39,24.57,-36.99,-1.00
24337.00,-0.42,6.35,-7.95,-1.06,-1.15,0.70,-6.39,24.57,-36.99,-1.00
24349.00,-0.15,6.14,-8.09,-1.04,-1.13,0.58,-6.39,24.57,-36.99,-1.00
24361.00,-0.26,6.14,-8.08,-1.15,-1.21,0.67,-6.39,24.57,-36.99,-1.00
24373.00,-0.26,6.14,-8.08,-1.15,-1.21,0.67,-6.39,24.57,-36.99,-1.00
24387.00,-0.34,6.13,-8.04,-1.19,-1.28,0.76,-6.39,24.57,-36.99,-1.00
24399.00,-0.34,6.13,-8.04,-1.19,-1.28,0.76,-6.39,24.57,-36.99,-1.00
24411.00,-0.38,6.47,-8.02,-1.21,-1.30,0.78,-6.39,24.57,-36.99,-1.00
24423.00,-0.59,6.57,-7.33,-1.26,-1.35,0.72,-6.39,24.57,-36.99,-1.00
24437.00,-0.59,6.57,-7.33,-1.26,-1.35,0.72,-6.39,24.57,-36.99,-1.00
24449.00,-0.17,5.86,-8.37,-1.51,-1.49,0.63,-6.62,24.42,-39.07,-1.00
24461.00,-0.23,5.74,-8.19,-1.59,-1.63,0.73,-6.62,24.42,-39.07,-1.00
24476.00,-0.23,5.74,-8.19,-1.59,-1.63,0.73,-6.62,24.42,-39.07,-1.00
24487.00,-0.43,6.19,-8.06,-1.59,-1.52,1.02,-6.62,24.42,-39.07,-1.00
24499.00,-0.43,6.19,-8.06,-1.59,-1.52,1.02,-6.62,24.42,-39.07,-1.00
24511.00,-1.01,6.40,-7.88,-1.13,-1.51,1.03,-6.62,24.42,-39.07,-1.00
24525.00,-0.65,6.69,-7.70,-0.39,-1.01,0.56,-6.62,24.42,-39.07,-1.00
24537.00,-0.65,6.69,-7.70,-0.39,-1.01,0.56,-6.62,24.42,-39.07,-1.00
24549.00,-0.44,6.16,-8.04,-0.81,-0.63,0.26,-6.62,24.42,-39.07,-1.00
24561.00,-0.22,6.20,-8.04,-1.16,-0.82,0.37,-7.07,24.12,-37.47,-1.00
