time,ax,ay,az,gx,gy,gz,mx,my,mz
402,-0.35,6.58,-7.82,-0.03,-0.01,-0.02,-23.32,25.98,-27.53
412,-0.35,6.58,-7.82,-0.03,-0.01,-0.02,-23.32,25.98,-27.53
423,-0.34,6.53,-7.79,-0.02,0.00,-0.01,-23.32,25.98,-27.53
434,-0.34,6.53,-7.79,-0.02,0.00,-0.01,-23.32,25.98,-27.53
445,-0.34,6.55,-7.81,-0.02,-0.00,-0.01,-23.32,25.98,-27.53
456,-0.34,6.55,-7.81,-0.02,-0.00,-0.01,-23.32,25.98,-27.53
467,-0.30,6.53,-7.84,-0.01,0.00,-0.01,-23.32,25.98,-27.53
478,-0.30,6.53,-7.84,-0.01,0.00,-0.01,-23.32,25.98,-27.53
489,-0.32,6.56,-7.81,-0.02,0.00,-0.01,-23.32,25.98,-27.53
500,-0.32,6.56,-7.81,-0.02,0.00,-0.01,-23.32,25.98,-27.53
511,-0.35,6.59,-7.78,-0.03,-0.00,-0.01,-23.32,25.98,-27.53
522,-0.35,6.59,-7.82,-0.02,0.00,-0.01,-23.73,25.33,-27.86
533,-0.35,6.59,-7.82,-0.02,0.00,-0.01,-23.73,25.33,-27.86
544,-0.33,6.56,-7.83,-0.02,0.00,-0.01,-23.73,25.33,-27.86
555,-0.33,6.56,-7.83,-0.02,0.00,-0.01,-23.73,25.33,-27.86
566,-0.30,6.55,-7.83,-0.02,0.00,-0.01,-23.73,25.33,-27.86
577,-0.30,6.55,-7.83,-0.02,0.00,-0.01,-23.73,25.33,-27.86
588,-0.34,6.55,-7.81,-0.02,0.00,-0.01,-23.73,25.33,-27.86
599,-0.34,6.55,-7.81,-0.02,0.00,-0.01,-23.73,25.33,-27.86
610,-0.37,6.59,-7.79,-0.02,0.00,-0.01,-23.73,25.33,-27.86
621,-0.37,6.59,-7.79,-0.02,0.00,-0.01,-23.73,25.33,-27.86
632,-0.35,6.59,-7.79,-0.02,0.00,-0.01,-23.73,25.33,-27.86
643,-0.34,6.57,-7.79,-0.02,0.00,-0.01,-22.71,26.78,-26.02
654,-0.34,6.57,-7.79,-0.02,0.00,-0.01,-22.71,26.78,-26.02
665,-0.32,6.55,-7.84,-0.02,0.00,-0.01,-22.71,26.78,-26.02
676,-0.32,6.55,-7.84,-0.02,0.00,-0.01,-22.71,26.78,-26.02
687,-0.33,6.57,-7.81,-0.02,0.00,-0.01,-22.71,26.78,-26.02
698,-0.33,6.57,-7.81,-0.02,0.00,-0.01,-22.71,26.78,-26.02
709,-0.36,6.60,-7.78,-0.02,0.00,-0.01,-22.71,26.78,-26.02
720,-0.36,6.60,-7.78,-0.02,0.00,-0.01,-22.71,26.78,-26.02
731,-0.35,6.57,-7.81,-0.02,0.00,-0.01,-22.71,26.78,-26.02
742,-0.33,6.58,-7.82,-0.02,0.00,-0.01,-22.71,26.78,-26.02
754,-0.33,6.58,-7.82,-0.02,0.00,-0.01,-22.71,26.78,-26.02
764,-0.31,6.56,-7.81,-0.02,0.00,-0.01,-22.71,26.78,-26.02
775,-0.31,6.56,-7.81,-0.02,0.00,-0.01,-22.71,26.78,-26.02
786,-0.35,6.57,-7.80,-0.02,0.00,-0.01,-25.15,26.14,-27.02
797,-0.35,6.57,-7.80,-0.02,0.00,-0.01,-25.15,26.14,-27.02
808,-0.35,6.59,-7.77,-0.02,0.00,-0.01,-25.15,26.14,-27.02
819,-0.35,6.59,-7.77,-0.02,0.00,-0.01,-25.15,26.14,-27.02
830,-0.36,6.58,-7.77,-0.02,0.00,-0.01,-25.15,26.14,-27.02
841,-0.36,6.58,-7.77,-0.02,0.00,-0.01,-25.15,26.14,-27.02
852,-0.33,6.57,-7.81,-0.01,0.00,-0.01,-25.15,26.14,-27.02
863,-0.32,6.57,-7.80,-0.01,0.00,-0.01,-25.15,26.14,-27.02
874,-0.32,6.57,-7.80,-0.01,0.00,-0.01,-25.15,26.14,-27.02
885,-0.34,6.57,-7.78,-0.02,0.00,-0.01,-25.15,26.14,-27.02
896,-0.34,6.57,-7.78,-0.02,0.00,-0.01,-25.15,26.14,-27.02
907,-0.36,6.59,-7.80,-0.02,0.00,-0.01,-24.54,26.95,-26.19
918,-0.36,6.59,-7.80,-0.02,0.00,-0.01,-24.54,26.95,-26.19
929,-0.36,6.59,-7.79,-0.01,0.00,-0.01,-24.54,26.95,-26.19
940,-0.36,6.59,-7.79,-0.01,0.00,-0.01,-24.54,26.95,-26.19
951,-0.34,6.59,-7.79,-0.01,0.00,-0.01,-24.54,26.95,-26.19
962,-0.33,6.58,-7.81,-0.01,0.00,-0.01,-24.54,26.95,-26.19
973,-0.33,6.58,-7.81,-0.01,0.00,-0.01,-24.54,26.95,-26.19
984,-0.35,6.59,-7.79,-0.02,0.00,-0.01,-24.54,26.95,-26.19
995,-0.35,6.59,-7.79,-0.02,0.00,-0.01,-24.54,26.95,-26.19
1006,-0.36,6.59,-7.79,-0.02,0.00,-0.01,-24.54,26.95,-26.19
1017,-0.36,6.59,-7.79,-0.02,0.00,-0.01,-24.54,26.95,-26.19
1028,-0.34,6.59,-7.82,-0.01,0.00,-0.01,-25.15,25.49,-27.69
1039,-0.34,6.59,-7.82,-0.01,0.00,-0.01,-25.15,25.49,-27.69
1050,-0.34,6.57,-7.82,-0.01,0.00,-0.01,-25.15,25.49,-27.69
1061,-0.34,6.57,-7.82,-0.01,0.00,-0.01,-25.15,25.49,-27.69
1072,-0.34,6.58,-7.79,-0.01,0.00,-0.01,-25.15,25.49,-27.69
1083,-0.36,6.60,-7.79,-0.01,0.00,-0.01,-25.15,25.49,-27.69
1094,-0.36,6.60,-7.79,-0.01,0.00,-0.01,-25.15,25.49,-27.69
1105,-0.35,6.60,-7.78,-0.01,0.00,-0.01,-25.15,25.49,-27.69
1116,-0.35,6.60,-7.78,-0.01,0.00,-0.01,-25.15,25.49,-27.69
1127,-0.35,6.60,-7.77,-0.01,0.00,-0.01,-25.15,25.49,-27.69
1138,-0.35,6.60,-7.77,-0.01,0.00,-0.01,-25.15,25.49,-27.69
1149,-0.34,6.59,-7.76,-0.01,0.00,-0.01,-25.15,25.49,-27.69
1160,-0.34,6.59,-7.76,-0.01,0.00,-0.01,-25.15,25.49,-27.69
1171,-0.34,6.59,-7.79,-0.01,0.00,-0.01,-23.93,26.78,-28.03
1182,-0.35,6.59,-7.77,-0.01,0.00,-0.01,-23.93,26.78,-28.03
1193,-0.35,6.59,-7.77,-0.01,0.00,-0.01,-23.93,26.78,-28.03
1204,-0.37,6.61,-7.77,-0.01,0.00,-0.01,-23.93,26.78,-28.03
1215,-0.37,6.61,-7.77,-0.01,0.00,-0.01,-23.93,26.78,-28.03
1226,-0.35,6.60,-7.77,-0.01,0.00,-0.01,-23.93,26.78,-28.03
1237,-0.35,6.60,-7.77,-0.01,0.00,-0.01,-23.93,26.78,-28.03
1248,-0.34,6.58,-7.78,-0.01,0.00,-0.01,-23.93,26.78,-28.03
1259,-0.34,6.58,-7.78,-0.01,0.00,-0.01,-23.93,26.78,-28.03
1270,-0.34,6.58,-7.78,-0.01,0.00,-0.01,-23.93,26.78,-28.03
1281,-0.34,6.58,-7.78,-0.01,0.00,-0.01,-23.93,26.78,-28.03
1292,-0.36,6.60,-7.81,-0.01,0.00,-0.01,-24.74,26.14,-26.69
1303,-0.37,6.62,-7.78,-0.01,0.00,-0.01,-24.74,26.14,-26.69
1314,-0.37,6.62,-7.78,-0.01,0.00,-0.01,-24.74,26.14,-26.69
1325,-0.35,6.60,-7.78,-0.01,0.00,-0.01,-24.74,26.14,-26.69
1336,-0.35,6.60,-7.78,-0.01,0.00,-0.01,-24.74,26.14,-26.69
1347,-0.33,6.60,-7.77,-0.01,0.00,-0.01,-24.74,26.14,-26.69
1358,-0.33,6.60,-7.77,-0.01,0.00,-0.01,-24.74,26.14,-26.69
1369,-0.33,6.59,-7.79,-0.01,0.00,-0.01,-24.74,26.14,-26.69
1380,-0.33,6.59,-7.79,-0.01,0.00,-0.01,-24.74,26.14,-26.69
1391,-0.35,6.60,-7.78,-0.01,0.00,-0.01,-24.74,26.14,-26.69
1402,-0.35,6.60,-7.78,-0.01,0.00,-0.01,-24.74,26.14,-26.69
1413,-0.37,6.60,-7.79,-0.01,0.00,-0.01,-22.71,25.49,-26.69
1424,-0.34,6.61,-7.80,-0.01,0.00,-0.01,-22.71,25.49,-26.69
1435,-0.34,6.61,-7.80,-0.01,0.00,-0.01,-22.71,25.49,-26.69
1446,-0.33,6.60,-7.77,-0.01,0.00,-0.01,-22.71,25.49,-26.69
1457,-0.33,6.60,-7.77,-0.01,0.00,-0.01,-22.71,25.49,-26.69
1468,-0.35,6.60,-7.78,-0.01,0.00,-0.01,-22.71,25.49,-26.69
1479,-0.35,6.60,-7.78,-0.01,0.00,-0.01,-22.71,25.49,-26.69
1490,-0.34,6.62,-7.78,-0.02,-0.00,-0.01,-22.71,25.49,-26.69
1501,-0.34,6.62,-7.78,-0.02,-0.00,-0.01,-22.71,25.49,-26.69
1512,-0.37,6.64,-7.76,-0.02,-0.02,-0.03,-22.71,25.49,-26.69
1523,-0.35,6.60,-7.78,-0.00,-0.01,-0.02,-22.71,25.49,-26.69
1534,-0.35,6.60,-7.78,-0.00,-0.01,-0.02,-22.71,25.49,-26.69
1545,-0.34,6.59,-7.82,-0.00,-0.01,-0.02,-23.12,25.49,-26.69
1557,-0.34,6.59,-7.82,-0.00,-0.01,-0.02,-23.12,25.49,-26.69
1567,-0.36,6.59,-7.78,-0.01,-0.01,-0.02,-23.12,25.49,-26.69
1578,-0.36,6.59,-7.78,-0.01,-0.01,-0.02,-23.12,25.49,-26.69
1589,-0.36,6.59,-7.77,-0.01,0.00,-0.01,-23.12,25.49,-26.69
1600,-0.36,6.59,-7.77,-0.01,0.00,-0.01,-23.12,25.49,-26.69
1611,-0.37,6.60,-7.76,-0.02,-0.01,-0.02,-23.12,25.49,-26.69
1622,-0.37,6.60,-7.76,-0.02,-0.01,-0.02,-23.12,25.49,-26.69
1633,-0.35,6.62,-7.76,-0.02,-0.02,-0.03,-23.12,25.49,-26.69
1644,-0.36,6.61,-7.77,-0.00,-0.02,-0.03,-23.12,25.49,-26.69
1655,-0.36,6.61,-7.77,-0.00,-0.02,-0.03,-23.12,25.49,-26.69
1666,-0.37,6.60,-7.80,0.02,-0.01,-0.02,-23.32,24.36,-27.53
1677,-0.37,6.60,-7.80,0.02,-0.01,-0.02,-23.32,24.36,-27.53
1688,-0.39,6.59,-7.78,0.00,-0.01,-0.02,-23.32,24.36,-27.53
1699,-0.39,6.59,-7.78,0.00,-0.01,-0.02,-23.32,24.36,-27.53
1710,-0.40,6.62,-7.76,-0.01,-0.00,-0.01,-23.32,24.36,-27.53
1721,-0.40,6.62,-7.76,-0.01,-0.00,-0.01,-23.32,24.36,-27.53
1732,-0.36,6.58,-7.81,0.01,0.02,0.00,-23.32,24.36,-27.53
1743,-0.37,6.59,-7.78,-0.01,0.00,-0.01,-23.32,24.36,-27.53
1754,-0.37,6.59,-7.78,-0.01,0.00,-0.01,-23.32,24.36,-27.53
1765,-0.41,6.60,-7.77,-0.01,0.01,-0.01,-23.32,24.36,-27.53
1776,-0.41,6.60,-7.77,-0.01,0.01,-0.01,-23.32,24.36,-27.53
1787,-0.38,6.57,-7.81,0.01,0.04,0.02,-22.51,25.98,-26.19
1798,-0.38,6.57,-7.81,0.01,0.04,0.02,-22.51,25.98,-26.19
1809,-0.34,6.58,-7.82,-0.01,0.04,0.02,-22.51,25.98,-26.19
1820,-0.34,6.58,-7.82,-0.01,0.04,0.02,-22.51,25.98,-26.19
1831,-0.37,6.60,-7.74,-0.03,0.01,-0.01,-22.51,25.98,-26.19
1842,-0.37,6.60,-7.74,-0.03,0.01,-0.01,-22.51,25.98,-26.19
1853,-0.32,6.59,-7.79,-0.01,0.01,-0.00,-22.51,25.98,-26.19
1864,-0.36,6.58,-7.79,-0.02,0.01,-0.01,-22.51,25.98,-26.19
1875,-0.36,6.58,-7.79,-0.02,0.01,-0.01,-22.51,25.98,-26.19
1886,-0.37,6.60,-7.78,-0.02,0.01,-0.01,-22.51,25.98,-26.19
1897,-0.37,6.60,-7.78,-0.02,0.01,-0.01,-22.51,25.98,-26.19
1908,-0.36,6.61,-7.78,-0.01,0.01,-0.01,-23.93,25.49,-27.36
1919,-0.36,6.61,-7.78,-0.01,0.01,-0.01,-23.93,25.49,-27.36
1930,-0.35,6.60,-7.78,-0.01,0.00,-0.01,-23.93,25.49,-27.36
1941,-0.35,6.60,-7.78,-0.01,0.00,-0.01,-23.93,25.49,-27.36
1952,-0.35,6.59,-7.78,-0.01,0.00,-0.01,-23.93,25.49,-27.36
1963,-0.35,6.59,-7.76,-0.01,0.00,-0.01,-23.93,25.49,-27.36
1974,-0.35,6.59,-7.76,-0.01,0.00,-0.01,-23.93,25.49,-27.36
1985,-0.36,6.60,-7.77,-0.01,0.00,-0.01,-23.93,25.49,-27.36
1996,-0.36,6.60,-7.77,-0.01,0.00,-0.01,-23.93,25.49,-27.36
2007,-0.37,6.61,-7.78,-0.01,0.00,-0.01,-23.93,25.49,-27.36
2018,-0.37,6.61,-7.78,-0.01,0.00,-0.01,-23.93,25.49,-27.36
2029,-0.35,6.59,-7.77,-0.01,0.00,-0.01,-23.93,25.49,-27.36
2040,-0.35,6.59,-7.77,-0.01,0.00,-0.01,-23.93,25.49,-27.36
2051,-0.34,6.58,-7.80,-0.01,0.00,-0.01,-24.95,25.33,-27.53
2062,-0.34,6.58,-7.80,-0.01,0.00,-0.01,-24.95,25.33,-27.53
2073,-0.35,6.60,-7.79,-0.01,0.00,-0.01,-24.95,25.33,-27.53
2084,-0.37,6.60,-7.80,-0.01,0.00,-0.01,-24.95,25.33,-27.53
2095,-0.37,6.60,-7.80,-0.01,0.00,-0.01,-24.95,25.33,-27.53
2106,-0.36,6.61,-7.75,-0.01,0.00,-0.01,-24.95,25.33,-27.53
2117,-0.36,6.61,-7.75,-0.01,0.00,-0.01,-24.95,25.33,-27.53
2128,-0.34,6.60,-7.76,-0.01,0.00,-0.01,-24.95,25.33,-27.53
2139,-0.34,6.60,-7.76,-0.01,0.00,-0.01,-24.95,25.33,-27.53
2150,-0.35,6.58,-7.79,-0.01,0.00,-0.01,-24.95,25.33,-27.53
2161,-0.35,6.58,-7.79,-0.01,0.00,-0.01,-24.95,25.33,-27.53
2172,-0.37,6.60,-7.80,-0.01,0.00,-0.01,-23.73,25.65,-25.86
2183,-0.36,6.62,-7.78,-0.01,0.00,-0.01,-23.73,25.65,-25.86
2194,-0.36,6.62,-7.78,-0.01,0.00,-0.01,-23.73,25.65,-25.86
2205,-0.36,6.61,-7.77,-0.01,0.00,-0.01,-23.73,25.65,-25.86
2216,-0.36,6.61,-7.77,-0.01,0.00,-0.01,-23.73,25.65,-25.86
2227,-0.34,6.58,-7.80,-0.01,0.00,-0.01,-23.73,25.65,-25.86
2238,-0.34,6.58,-7.80,-0.01,0.00,-0.01,-23.73,25.65,-25.86
2249,-0.35,6.62,-7.78,-0.01,0.00,-0.01,-23.73,25.65,-25.86
2260,-0.35,6.62,-7.78,-0.01,0.00,-0.01,-23.73,25.65,-25.86
2271,-0.36,6.61,-7.76,-0.01,0.00,-0.01,-23.73,25.65,-25.86
2282,-0.36,6.61,-7.76,-0.01,0.00,-0.01,-23.73,25.65,-25.86
2293,-0.35,6.62,-7.76,-0.01,0.00,-0.01,-23.12,25.82,-27.36
2304,-0.35,6.61,-7.78,-0.01,0.00,-0.01,-23.12,25.82,-27.36
2315,-0.35,6.61,-7.78,-0.01,0.00,-0.01,-23.12,25.82,-27.36
2326,-0.34,6.60,-7.78,-0.01,0.00,-0.01,-23.12,25.82,-27.36
2337,-0.34,6.60,-7.78,-0.01,0.00,-0.01,-23.12,25.82,-27.36
2348,-0.35,6.60,-7.76,-0.01,0.00,-0.01,-23.12,25.82,-27.36
2359,-0.35,6.60,-7.76,-0.01,0.00,-0.01,-23.12,25.82,-27.36
2370,-0.37,6.62,-7.77,-0.01,0.00,-0.01,-23.12,25.82,-27.36
2381,-0.37,6.62,-7.77,-0.01,0.00,-0.01,-23.12,25.82,-27.36
2392,-0.36,6.62,-7.77,-0.01,0.00,-0.01,-23.12,25.82,-27.36
2403,-0.37,6.61,-7.80,-0.01,0.00,-0.01,-23.12,25.82,-27.36
2414,-0.37,6.61,-7.80,-0.01,0.00,-0.01,-23.12,25.82,-27.36
2425,-0.36,6.61,-7.79,-0.01,0.00,-0.01,-22.71,25.49,-25.69
2436,-0.36,6.61,-7.79,-0.01,0.00,-0.01,-22.71,25.49,-25.69
2447,-0.34,6.60,-7.77,-0.01,0.00,-0.01,-22.71,25.49,-25.69
2458,-0.34,6.60,-7.77,-0.01,0.00,-0.01,-22.71,25.49,-25.69
2469,-0.35,6.61,-7.78,-0.01,0.00,-0.01,-22.71,25.49,-25.69
2480,-0.35,6.61,-7.78,-0.01,0.00,-0.01,-22.71,25.49,-25.69
2491,-0.38,6.61,-7.76,-0.01,0.00,-0.01,-22.71,25.49,-25.69
2502,-0.38,6.61,-7.76,-0.01,0.00,-0.01,-22.71,25.49,-25.69
2513,-0.34,6.60,-7.75,-0.01,0.00,-0.01,-22.71,25.49,-25.69
2524,-0.35,6.59,-7.76,-0.01,0.00,-0.01,-22.71,25.49,-25.69
2535,-0.35,6.59,-7.76,-0.01,0.00,-0.01,-22.71,25.49,-25.69
2546,-0.34,6.59,-7.78,-0.01,0.00,-0.01,-22.31,25.49,-27.02
2557,-0.34,6.59,-7.78,-0.01,0.00,-0.01,-22.31,25.49,-27.02
2568,-0.36,6.61,-7.76,-0.01,0.00,-0.01,-22.31,25.49,-27.02
2579,-0.36,6.61,-7.76,-0.01,0.00,-0.01,-22.31,25.49,-27.02
2590,-0.36,6.61,-7.75,-0.01,0.00,-0.01,-22.31,25.49,-27.02
2601,-0.36,6.61,-7.75,-0.01,0.00,-0.01,-22.31,25.49,-27.02
2612,-0.36,6.58,-7.79,-0.01,0.00,-0.01,-22.31,25.49,-27.02
2623,-0.36,6.58,-7.79,-0.01,0.00,-0.01,-22.31,25.49,-27.02
2634,-0.35,6.60,-7.75,-0.01,0.00,-0.01,-22.31,25.49,-27.02
2645,-0.37,6.61,-7.78,-0.01,0.00,-0.01,-22.31,25.49,-27.02
2656,-0.37,6.61,-7.78,-0.01,0.00,-0.01,-22.31,25.49,-27.02
2667,-0.36,6.62,-7.82,-0.01,0.00,-0.01,-23.32,25.01,-27.53
2678,-0.36,6.62,-7.82,-0.01,0.00,-0.01,-23.32,25.01,-27.53
2689,-0.36,6.60,-7.76,-0.01,0.00,-0.01,-23.32,25.01,-27.53
2700,-0.36,6.60,-7.76,-0.01,0.00,-0.01,-23.32,25.01,-27.53
2711,-0.35,6.61,-7.77,-0.01,0.00,-0.01,-23.32,25.01,-27.53
2722,-0.35,6.61,-7.77,-0.01,0.00,-0.01,-23.32,25.01,-27.53
2733,-0.36,6.60,-7.77,-0.01,0.00,-0.01,-23.32,25.01,-27.53
2744,-0.36,6.59,-7.75,-0.01,0.00,-0.01,-23.32,25.01,-27.53
2755,-0.36,6.59,-7.75,-0.01,0.00,-0.01,-23.32,25.01,-27.53
2766,-0.36,6.61,-7.77,-0.01,0.00,-0.01,-23.32,25.01,-27.53
2777,-0.36,6.61,-7.77,-0.01,0.00,-0.01,-23.32,25.01,-27.53
2788,-0.37,6.62,-7.76,-0.01,0.00,-0.01,-23.32,25.01,-27.53
2799,-0.37,6.62,-7.76,-0.01,0.00,-0.01,-23.32,25.01,-27.53
2810,-0.36,6.61,-7.79,-0.01,0.00,-0.01,-23.73,25.98,-26.52
2821,-0.36,6.61,-7.79,-0.01,0.00,-0.01,-23.73,25.98,-26.52
2832,-0.34,6.61,-7.77,-0.01,0.00,-0.01,-23.73,25.98,-26.52
2843,-0.34,6.61,-7.77,-0.01,0.00,-0.01,-23.73,25.98,-26.52
2854,-0.35,6.62,-7.75,-0.01,0.00,-0.01,-23.73,25.98,-26.52
2865,-0.35,6.62,-7.76,-0.01,0.00,-0.01,-23.73,25.98,-26.52
2876,-0.35,6.62,-7.76,-0.01,0.00,-0.01,-23.73,25.98,-26.52
2887,-0.34,6.62,-7.74,-0.01,0.00,-0.01,-23.73,25.98,-26.52
2898,-0.34,6.62,-7.74,-0.01,0.00,-0.01,-23.73,25.98,-26.52
2909,-0.35,6.60,-7.76,-0.01,0.00,-0.01,-23.73,25.98,-26.52
2920,-0.35,6.60,-7.76,-0.01,0.00,-0.01,-23.73,25.98,-26.52
2931,-0.35,6.61,-7.76,-0.01,0.00,-0.01,-23.12,25.82,-26.02
2942,-0.35,6.61,-7.76,-0.01,0.00,-0.01,-23.12,25.82,-26.02
2953,-0.37,6.60,-7.75,-0.01,0.00,-0.01,-23.12,25.82,-26.02
2964,-0.36,6.61,-7.76,-0.01,0.00,-0.01,-23.12,25.82,-26.02
2975,-0.36,6.61,-7.76,-0.01,0.00,-0.01,-23.12,25.82,-26.02
2987,-0.37,6.61,-7.76,-0.01,0.00,-0.01,-23.12,25.82,-26.02
2997,-0.37,6.61,-7.76,-0.01,0.00,-0.01,-23.12,25.82,-26.02
3008,-0.35,6.60,-7.76,-0.01,0.00,-0.01,-23.12,25.82,-26.02
3019,-0.35,6.60,-7.76,-0.01,0.00,-0.01,-23.12,25.82,-26.02
3030,-0.35,6.61,-7.78,-0.01,0.00,-0.01,-23.12,25.82,-26.02
3041,-0.35,6.61,-7.78,-0.01,0.00,-0.01,-23.12,25.82,-26.02
3052,-0.36,6.61,-7.80,-0.01,0.00,-0.01,-22.92,25.98,-26.52
3063,-0.36,6.61,-7.80,-0.01,0.00,-0.01,-22.92,25.98,-26.52
3074,-0.36,6.63,-7.77,-0.01,0.00,-0.01,-22.92,25.98,-26.52
3085,-0.36,6.61,-7.76,-0.01,0.00,-0.01,-22.92,25.98,-26.52
3096,-0.36,6.61,-7.76,-0.01,0.00,-0.01,-22.92,25.98,-26.52
3107,-0.36,6.62,-7.76,-0.01,0.00,-0.01,-22.92,25.98,-26.52
3118,-0.36,6.62,-7.76,-0.01,0.00,-0.01,-22.92,25.98,-26.52
3129,-0.35,6.62,-7.75,-0.01,0.00,-0.01,-22.92,25.98,-26.52
3140,-0.35,6.62,-7.75,-0.01,0.00,-0.01,-22.92,25.98,-26.52
3151,-0.35,6.62,-7.78,-0.01,0.00,-0.01,-22.92,25.98,-26.52
3162,-0.35,6.62,-7.78,-0.01,0.00,-0.01,-22.92,25.98,-26.52
3173,-0.37,6.63,-7.77,-0.01,0.00,-0.01,-23.73,25.98,-26.86
3184,-0.36,6.62,-7.78,-0.01,0.00,-0.01,-23.73,25.98,-26.86
3195,-0.36,6.62,-7.78,-0.01,0.00,-0.01,-23.73,25.98,-26.86
3206,-0.35,6.61,-7.76,-0.01,0.00,-0.01,-23.73,25.98,-26.86
3217,-0.35,6.61,-7.76,-0.01,0.00,-0.01,-23.73,25.98,-26.86
3228,-0.34,6.61,-7.77,-0.01,0.00,-0.01,-23.73,25.98,-26.86
3239,-0.34,6.61,-7.77,-0.01,0.00,-0.01,-23.73,25.98,-26.86
3250,-0.35,6.62,-7.75,-0.01,0.00,-0.01,-23.73,25.98,-26.86
3261,-0.35,6.62,-7.75,-0.01,0.00,-0.01,-23.73,25.98,-26.86
3272,-0.38,6.61,-7.76,-0.01,0.00,-0.01,-23.73,25.98,-26.86
3283,-0.38,6.61,-7.76,-0.01,0.00,-0.01,-23.73,25.98,-26.86
3294,-0.35,6.62,-7.77,-0.01,0.00,-0.01,-23.73,25.98,-26.86
3305,-0.36,6.62,-7.79,-0.01,0.00,-0.01,-23.32,25.98,-26.86
3316,-0.36,6.62,-7.79,-0.01,0.00,-0.01,-23.32,25.98,-26.86
3327,-0.36,6.61,-7.77,-0.01,0.00,-0.01,-23.32,25.98,-26.86
3338,-0.36,6.61,-7.77,-0.01,0.00,-0.01,-23.32,25.98,-26.86
3349,-0.37,6.61,-7.76,-0.01,0.00,-0.01,-23.32,25.98,-26.86
3360,-0.37,6.61,-7.76,-0.01,0.00,-0.01,-23.32,25.98,-26.86
3371,-0.36,6.60,-7.77,-0.01,0.00,-0.01,-23.32,25.98,-26.86
3382,-0.36,6.60,-7.77,-0.01,0.00,-0.01,-23.32,25.98,-26.86
3393,-0.36,6.62,-7.74,-0.01,0.00,-0.01,-23.32,25.98,-26.86
3404,-0.35,6.61,-7.78,-0.01,0.00,-0.01,-23.32,25.98,-26.86
3415,-0.35,6.61,-7.78,-0.01,0.00,-0.01,-23.32,25.98,-26.86
3426,-0.36,6.61,-7.77,-0.01,0.00,-0.01,-22.51,25.65,-27.53
3438,-0.36,6.61,-7.77,-0.01,0.00,-0.01,-22.51,25.65,-27.53
3448,-0.36,6.61,-7.76,-0.01,0.00,-0.01,-22.51,25.65,-27.53
3459,-0.36,6.61,-7.76,-0.01,0.00,-0.01,-22.51,25.65,-27.53
3470,-0.35,6.61,-7.76,-0.01,0.00,-0.01,-22.51,25.65,-27.53
3481,-0.35,6.61,-7.76,-0.01,0.00,-0.01,-22.51,25.65,-27.53
3492,-0.34,6.62,-7.76,-0.01,0.00,-0.01,-22.51,25.65,-27.53
3503,-0.34,6.62,-7.76,-0.01,0.00,-0.01,-22.51,25.65,-27.53
3514,-0.36,6.60,-7.76,-0.01,0.00,-0.01,-22.51,25.65,-27.53
3525,-0.35,6.62,-7.75,-0.01,0.00,-0.01,-22.51,25.65,-27.53
3536,-0.35,6.62,-7.75,-0.01,0.00,-0.01,-22.51,25.65,-27.53
3547,-0.37,6.61,-7.76,-0.01,0.00,-0.01,-22.10,26.95,-25.19
3558,-0.37,6.61,-7.76,-0.01,0.00,-0.01,-22.10,26.95,-25.19
3569,-0.36,6.62,-7.75,-0.01,0.00,-0.01,-22.10,26.95,-25.19
3580,-0.36,6.62,-7.75,-0.01,0.00,-0.01,-22.10,26.95,-25.19
3591,-0.36,6.62,-7.77,-0.01,0.00,-0.01,-22.10,26.95,-25.19
3602,-0.36,6.62,-7.77,-0.01,0.00,-0.01,-22.10,26.95,-25.19
3613,-0.35,6.62,-7.79,-0.01,0.00,-0.01,-22.10,26.95,-25.19
3624,-0.35,6.62,-7.79,-0.01,0.00,-0.01,-22.10,26.95,-25.19
3635,-0.36,6.61,-7.76,-0.01,0.00,-0.01,-22.10,26.95,-25.19
3646,-0.34,6.61,-7.76,-0.01,0.00,-0.01,-22.10,26.95,-25.19
3657,-0.34,6.61,-7.76,-0.01,0.00,-0.01,-22.10,26.95,-25.19
3668,-0.35,6.62,-7.75,-0.01,0.00,-0.01,-22.10,26.95,-25.19
3679,-0.35,6.62,-7.75,-0.01,0.00,-0.01,-22.10,26.95,-25.19
3690,-0.35,6.63,-7.76,-0.01,0.00,-0.01,-23.73,24.68,-27.19
3701,-0.35,6.63,-7.76,-0.01,0.00,-0.01,-23.73,24.68,-27.19
3713,-0.35,6.63,-7.78,-0.01,0.00,-0.01,-23.73,24.68,-27.19
3723,-0.35,6.63,-7.78,-0.01,0.00,-0.01,-23.73,24.68,-27.19
3734,-0.35,6.63,-7.77,-0.01,0.00,-0.01,-23.73,24.68,-27.19
3745,-0.37,6.63,-7.76,-0.01,0.00,-0.01,-23.73,24.68,-27.19
3756,-0.37,6.63,-7.76,-0.01,0.00,-0.01,-23.73,24.68,-27.19
3767,-0.37,6.63,-7.75,-0.01,0.00,-0.01,-23.73,24.68,-27.19
3778,-0.37,6.63,-7.75,-0.01,0.00,-0.01,-23.73,24.68,-27.19
3789,-0.36,6.62,-7.76,-0.01,0.00,-0.01,-23.73,24.68,-27.19
3800,-0.36,6.62,-7.76,-0.01,0.00,-0.01,-23.73,24.68,-27.19
3811,-0.35,6.63,-7.78,-0.01,0.00,-0.01,-24.13,25.33,-26.19
3822,-0.35,6.63,-7.78,-0.01,0.00,-0.01,-24.13,25.33,-26.19
3833,-0.37,6.61,-7.75,-0.01,0.00,-0.01,-24.13,25.33,-26.19
3844,-0.37,6.61,-7.75,-0.01,0.00,-0.01,-24.13,25.33,-26.19
3855,-0.37,6.61,-7.77,-0.01,0.00,-0.01,-24.13,25.33,-26.19
3866,-0.36,6.61,-7.77,-0.02,-0.02,-0.03,-24.13,25.33,-26.19
3877,-0.36,6.61,-7.77,-0.02,-0.02,-0.03,-24.13,25.33,-26.19
3888,-0.37,6.63,-7.75,-0.01,-0.04,-0.05,-24.13,25.33,-26.19
3899,-0.37,6.63,-7.75,-0.01,-0.04,-0.05,-24.13,25.33,-26.19
3910,-0.38,6.62,-7.75,0.02,-0.03,-0.04,-24.13,25.33,-26.19
3921,-0.38,6.62,-7.75,0.02,-0.03,-0.04,-24.13,25.33,-26.19
3932,-0.41,6.61,-7.77,0.02,-0.03,-0.04,-23.53,25.49,-26.69
3943,-0.41,6.61,-7.77,0.02,-0.03,-0.04,-23.53,25.49,-26.69
3954,-0.41,6.58,-7.80,0.02,-0.02,-0.03,-23.53,25.49,-26.69
3965,-0.39,6.60,-7.79,0.01,-0.02,-0.03,-23.53,25.49,-26.69
3976,-0.39,6.60,-7.79,0.01,-0.02,-0.03,-23.53,25.49,-26.69
3987,-0.39,6.63,-7.74,0.01,-0.03,-0.04,-23.53,25.49,-26.69
3998,-0.39,6.63,-7.74,0.01,-0.03,-0.04,-23.53,25.49,-26.69
4009,-0.25,6.66,-7.81,0.02,-0.04,-0.04,-23.53,25.49,-26.69
4020,-0.25,6.66,-7.81,0.02,-0.04,-0.04,-23.53,25.49,-26.69
4031,-0.52,6.58,-7.75,-0.24,-0.30,-0.05,-23.53,25.49,-26.69
4042,-0.52,6.58,-7.75,-0.24,-0.30,-0.05,-23.53,25.49,-26.69
4053,-0.55,6.88,-7.46,-0.24,-0.30,0.08,-23.53,25.49,-26.69
4064,-0.55,6.88,-7.46,-0.24,-0.30,0.08,-23.53,25.49,-26.69
4075,-0.78,6.70,-7.67,0.32,-0.11,0.31,-24.54,26.62,-27.86
4091,-0.73,6.60,-7.61,0.25,0.29,-0.05,-24.54,26.62,-27.86
4097,-0.73,6.60,-7.61,0.25,0.29,-0.05,-24.54,26.62,-27.86
4108,-0.35,6.94,-9.59,0.42,0.71,-0.23,-24.54,26.62,-27.86
4119,-0.35,6.94,-9.59,0.42,0.71,-0.23,-24.54,26.62,-27.86
4130,-0.24,6.72,-11.62,1.93,0.16,0.26,-24.54,26.62,-27.86
4141,-0.24,6.72,-11.62,1.93,0.16,0.26,-24.54,26.62,-27.86
4152,-1.29,3.78,-8.56,4.95,-0.70,1.52,-24.54,26.62,-27.86
4163,-1.29,3.78,-8.56,4.95,-0.70,1.52,-24.54,26.62,-27.86
4174,-0.61,8.55,-3.55,3.97,-0.24,1.75,-24.54,26.62,-27.86
4186,-0.92,12.51,-13.25,1.99,1.47,0.08,-21.50,20.97,-32.37
4196,-0.92,12.51,-13.25,1.99,1.47,0.08,-21.50,20.97,-32.37
4207,1.89,6.14,-15.83,5.88,1.83,-1.63,-21.50,20.97,-32.37
4218,1.89,6.14,-15.83,5.88,1.83,-1.63,-21.50,20.97,-32.37
4234,1.52,-0.75,-14.75,6.82,0.21,-1.94,-21.50,20.97,-32.37
4240,1.52,-0.75,-14.75,6.82,0.21,-1.94,-21.50,20.97,-32.37
4251,0.54,-0.97,-12.77,6.13,-1.36,-1.01,-21.50,20.97,-32.37
4262,0.54,-0.97,-12.77,6.13,-1.36,-1.01,-21.50,20.97,-32.37
4273,1.18,1.45,-12.74,5.94,-1.91,-0.58,-21.50,20.97,-32.37
4284,1.18,1.45,-12.74,5.94,-1.91,-0.58,-21.50,20.97,-32.37
4295,0.89,1.39,-11.53,7.03,-2.38,-0.85,-21.50,20.97,-32.37
4306,-0.65,0.85,-8.68,8.21,-2.87,-1.11,-24.95,-10.22,-32.20
4317,-0.65,0.85,-8.68,8.21,-2.87,-1.11,-24.95,-10.22,-32.20
4328,-1.48,-0.02,-7.79,9.00,-2.92,-1.41,-24.95,-10.22,-32.20
4339,-1.48,-0.02,-7.79,9.00,-2.92,-1.41,-24.95,-10.22,-32.20
4350,-1.97,-4.10,-3.52,10.14,-2.64,-1.54,-24.95,-10.22,-32.20
4361,-1.97,-4.10,-3.52,10.14,-2.64,-1.54,-24.95,-10.22,-32.20
4372,-1.64,-5.24,-3.54,9.73,-2.10,-1.08,-24.95,-10.22,-32.20
4383,-1.64,-5.24,-3.54,9.73,-2.10,-1.08,-24.95,-10.22,-32.20
4394,-2.31,-5.54,-5.37,9.05,-2.12,-0.34,-24.95,-10.22,-32.20
4405,-0.60,-4.58,-5.65,8.79,-2.66,0.19,-24.95,-10.22,-32.20
4416,-0.60,-4.58,-5.65,8.79,-2.66,0.19,-24.95,-10.22,-32.20
4427,-1.01,-4.45,-2.32,10.04,-3.43,0.39,-31.64,-32.68,6.39
4438,-1.01,-4.45,-2.32,10.04,-3.43,0.39,-31.64,-32.68,6.39
4449,-1.58,-4.80,3.13,11.66,-3.84,0.44,-31.64,-32.68,6.39
4460,-1.58,-4.80,3.13,11.66,-3.84,0.44,-31.64,-32.68,6.39
4471,-3.07,-4.60,10.84,12.34,-3.30,0.26,-31.64,-32.68,6.39
4482,-3.07,-4.60,10.84,12.34,-3.30,0.26,-31.64,-32.68,6.39
4493,-2.75,-4.61,10.63,10.48,-1.89,-0.47,-31.64,-32.68,6.39
4504,-2.75,-4.61,10.63,10.48,-1.89,-0.47,-31.64,-32.68,6.39
4515,-0.85,-4.75,8.37,7.57,-1.10,-1.38,-31.64,-32.68,6.39
4526,-2.65,-6.25,10.01,4.55,-0.98,-1.71,-31.64,-32.68,6.39
4537,-2.65,-6.25,10.01,4.55,-0.98,-1.71,-31.64,-32.68,6.39
4548,-2.25,-7.73,9.47,0.98,-0.63,-1.40,-31.64,-32.68,6.39
4559,-2.25,-7.73,9.47,0.98,-0.63,-1.40,-31.64,-32.68,6.39
4570,-1.70,-7.10,7.00,-0.93,-0.26,-0.62,-24.95,-14.75,37.63
4581,-1.70,-7.10,7.00,-0.93,-0.26,-0.62,-24.95,-14.75,37.63
4592,-1.57,-4.68,5.03,-0.05,0.10,-0.37,-24.95,-14.75,37.63
4603,-1.57,-4.68,5.03,-0.05,0.10,-0.37,-24.95,-14.75,37.63
4614,1.01,-4.90,10.69,2.03,0.31,-0.75,-24.95,-14.75,37.63
4625,1.01,-4.90,10.69,2.03,0.31,-0.75,-24.95,-14.75,37.63
4636,1.01,-3.74,7.42,-0.65,0.06,-0.68,-24.95,-14.75,37.63
4647,0.46,-0.52,5.47,0.18,-0.34,-1.52,-24.95,-14.75,37.63
4658,0.46,-0.52,5.47,0.18,-0.34,-1.52,-24.95,-14.75,37.63
4669,1.61,-7.85,13.59,3.66,-0.24,-2.18,-24.95,-14.75,37.63
4680,1.61,-7.85,13.59,3.66,-0.24,-2.18,-24.95,-14.75,37.63
4691,0.17,-7.91,11.60,0.12,0.30,-0.91,-20.89,-13.45,39.64
4702,0.17,-7.91,11.60,0.12,0.30,-0.91,-20.89,-13.45,39.64
4713,1.00,-7.44,8.53,-1.23,0.86,0.53,-20.89,-13.45,39.64
4724,1.00,-7.44,8.53,-1.23,0.86,0.53,-20.89,-13.45,39.64
4735,-1.76,-7.56,8.38,-0.66,0.90,1.20,-20.89,-13.45,39.64
4747,-1.32,-8.39,8.85,-0.49,0.97,1.82,-20.89,-13.45,39.64
4757,-1.32,-8.39,8.85,-0.49,0.97,1.82,-20.89,-13.45,39.64
4768,-1.65,-4.75,6.43,-1.77,1.16,2.39,-20.89,-13.45,39.64
4779,-1.65,-4.75,6.43,-1.77,1.16,2.39,-20.89,-13.45,39.64
4790,-0.37,-3.06,4.36,-1.43,0.75,2.28,-20.89,-13.45,39.64
4801,-0.37,-3.06,4.36,-1.43,0.75,2.28,-20.89,-13.45,39.64
4812,0.01,-4.42,4.35,1.19,0.25,2.12,-29.61,-13.61,35.46
4823,0.01,-4.42,4.35,1.19,0.25,2.12,-29.61,-13.61,35.46
4834,-0.15,-5.18,5.07,3.70,-0.02,2.50,-29.61,-13.61,35.46
4845,-0.15,-5.18,5.07,3.70,-0.02,2.50,-29.61,-13.61,35.46
4856,0.23,-2.27,4.39,5.58,-0.41,3.43,-29.61,-13.61,35.46
4867,-0.93,-0.26,4.70,7.68,-0.86,4.65,-29.61,-13.61,35.46
4878,-0.93,-0.26,4.70,7.68,-0.86,4.65,-29.61,-13.61,35.46
4889,-3.06,1.43,7.21,9.58,-0.74,5.80,-29.61,-13.61,35.46
4900,-3.06,1.43,7.21,9.58,-0.74,5.80,-29.61,-13.61,35.46
4911,-2.95,5.19,8.76,9.20,-0.25,6.57,-29.61,-13.61,35.46
4922,-2.95,5.19,8.76,9.20,-0.25,6.57,-29.61,-13.61,35.46
4933,-2.13,9.23,8.61,7.78,0.48,6.21,-29.61,-13.61,35.46
4944,-2.13,9.23,8.61,7.78,0.48,6.21,-29.61,-13.61,35.46
4955,-4.14,9.80,9.00,6.08,1.13,4.61,-22.51,29.86,26.27
4966,-2.65,9.09,4.23,2.74,1.07,2.86,-22.51,29.86,26.27
4977,-2.65,9.09,4.23,2.74,1.07,2.86,-22.51,29.86,26.27
4988,-1.42,8.52,8.40,2.70,0.75,1.95,-22.51,29.86,26.27
4999,-1.42,8.52,8.40,2.70,0.75,1.95,-22.51,29.86,26.27
5010,-1.77,6.89,6.95,2.19,1.20,1.24,-22.51,29.86,26.27
5021,-1.77,6.89,6.95,2.19,1.20,1.24,-22.51,29.86,26.27
5032,-2.74,6.42,8.16,0.11,1.27,0.84,-22.51,29.86,26.27
5043,-2.74,6.42,8.16,0.11,1.27,0.84,-22.51,29.86,26.27
5054,-2.08,5.05,7.37,-4.30,1.41,0.88,-22.51,29.86,26.27
5065,-2.08,5.05,7.37,-4.30,1.41,0.88,-22.51,29.86,26.27
5076,-1.96,5.53,6.91,-7.11,1.44,1.15,-14.60,33.57,24.43
5087,-3.57,4.09,9.13,-7.96,0.88,0.63,-14.60,33.57,24.43
5098,-3.57,4.09,9.13,-7.96,0.88,0.63,-14.60,33.57,24.43
5109,-3.85,3.59,9.29,-6.37,0.68,0.15,-14.60,33.57,24.43
5120,-3.85,3.59,9.29,-6.37,0.68,0.15,-14.60,33.57,24.43
5131,-2.44,0.47,7.93,-1.96,1.02,0.07,-14.60,33.57,24.43
5142,-2.44,0.47,7.93,-1.96,1.02,0.07,-14.60,33.57,24.43
5153,-3.24,1.86,8.38,-0.51,1.16,0.58,-14.60,33.57,24.43
5164,-3.24,1.86,8.38,-0.51,1.16,0.58,-14.60,33.57,24.43
5175,-2.77,1.28,10.18,-1.68,0.94,0.32,-14.60,33.57,24.43
5186,-5.69,1.70,11.20,-4.07,0.73,-0.21,-17.84,20.32,37.46
5197,-5.69,1.70,11.20,-4.07,0.73,-0.21,-17.84,20.32,37.46
5208,-4.49,-0.09,12.87,-7.62,0.68,-0.72,-17.84,20.32,37.46
5219,-4.49,-0.09,12.87,-7.62,0.68,-0.72,-17.84,20.32,37.46
5230,-1.60,-2.51,9.44,-10.79,0.93,-0.47,-17.84,20.32,37.46
5241,-1.60,-2.51,9.44,-10.79,0.93,-0.47,-17.84,20.32,37.46
5252,-3.35,-7.42,9.54,-8.22,1.32,0.77,-17.84,20.32,37.46
5263,-3.35,-7.42,9.54,-8.22,1.32,0.77,-17.84,20.32,37.46
5274,-3.65,-6.59,7.10,-8.93,0.98,1.86,-17.84,20.32,37.46
5285,-3.65,-6.59,7.10,-8.93,0.98,1.86,-17.84,20.32,37.46
5296,-3.88,-4.97,5.18,-7.80,0.40,2.43,-17.84,20.32,37.46
5307,-3.68,-3.74,3.57,-5.57,-0.12,2.13,-17.84,20.32,37.46
5318,-3.68,-3.74,3.57,-5.57,-0.12,2.13,-17.84,20.32,37.46
5329,-3.28,-2.68,3.76,-3.62,-0.73,1.38,-23.53,-14.26,38.47
5340,-3.28,-2.68,3.76,-3.62,-0.73,1.38,-23.53,-14.26,38.47
5351,-2.82,-3.27,7.05,0.70,-0.73,1.04,-23.53,-14.26,38.47
5362,-2.82,-3.27,7.05,0.70,-0.73,1.04,-23.53,-14.26,38.47
5373,-4.19,-5.97,9.13,3.81,-0.03,0.98,-23.53,-14.26,38.47
5384,-4.19,-5.97,9.13,3.81,-0.03,0.98,-23.53,-14.26,38.47
5395,-5.24,-4.99,4.76,2.92,0.38,0.74,-23.53,-14.26,38.47
5406,-4.59,-6.06,5.72,2.75,-0.04,0.45,-23.53,-14.26,38.47
5417,-4.59,-6.06,5.72,2.75,-0.04,0.45,-23.53,-14.26,38.47
5428,-5.28,-6.09,6.40,1.84,-0.66,0.43,-23.53,-14.26,38.47
5439,-5.28,-6.09,6.40,1.84,-0.66,0.43,-23.53,-14.26,38.47
5450,-4.39,-7.74,6.56,1.75,-0.99,0.84,-23.12,-4.89,41.47
5461,-4.39,-7.74,6.56,1.75,-0.99,0.84,-23.12,-4.89,41.47
5472,-4.35,-4.65,5.41,1.84,-1.42,1.77,-23.12,-4.89,41.47
5483,-4.35,-4.65,5.41,1.84,-1.42,1.77,-23.12,-4.89,41.47
5494,-3.52,-0.12,10.08,1.93,-1.83,1.71,-23.12,-4.89,41.47
5505,-3.52,-0.12,10.08,1.93,-1.83,1.71,-23.12,-4.89,41.47
5516,-4.41,-0.30,12.40,1.62,-1.23,0.64,-23.12,-4.89,41.47
5527,-2.95,-2.52,8.34,0.99,-0.32,-0.05,-23.12,-4.89,41.47
5538,-2.95,-2.52,8.34,0.99,-0.32,-0.05,-23.12,-4.89,41.47
5549,-3.36,-3.56,6.29,0.87,-0.17,0.06,-23.12,-4.89,41.47
5560,-3.36,-3.56,6.29,0.87,-0.17,0.06,-23.12,-4.89,41.47
5571,-4.17,-3.07,6.89,0.87,-0.33,0.28,-17.64,3.03,42.31
5582,-4.17,-3.07,6.89,0.87,-0.33,0.28,-17.64,3.03,42.31
5593,-5.36,-1.14,5.37,1.55,-0.43,0.14,-17.64,3.03,42.31
5604,-5.36,-1.14,5.37,1.55,-0.43,0.14,-17.64,3.03,42.31
5615,-3.22,-3.49,11.14,4.12,-0.14,0.12,-17.64,3.03,42.31
5626,-3.68,-1.50,9.35,2.22,0.40,0.19,-17.64,3.03,42.31
5637,-3.68,-1.50,9.35,2.22,0.40,0.19,-17.64,3.03,42.31
5648,-4.74,-1.70,9.06,0.86,0.75,0.10,-17.64,3.03,42.31
5659,-4.74,-1.70,9.06,0.86,0.75,0.10,-17.64,3.03,42.31
5670,-5.27,-1.14,9.56,-0.23,1.02,-0.18,-17.64,3.03,42.31
5681,-5.27,-1.14,9.56,-0.23,1.02,-0.18,-17.64,3.03,42.31
5692,-5.39,-1.53,7.94,-1.01,1.39,-0.43,-23.53,9.98,41.14
5703,-5.39,-1.53,7.94,-1.01,1.39,-0.43,-23.53,9.98,41.14
5714,-6.53,-1.28,6.49,-1.09,1.46,-0.43,-23.53,9.98,41.14
5725,-6.53,-1.28,6.49,-1.09,1.46,-0.43,-23.53,9.98,41.14
5736,-5.28,-1.80,7.47,-1.59,1.20,-0.53,-23.53,9.98,41.14
5747,-6.74,-2.03,7.26,-2.44,1.14,-0.41,-23.53,9.98,41.14
5758,-6.74,-2.03,7.26,-2.44,1.14,-0.41,-23.53,9.98,41.14
5769,-6.91,-3.72,9.24,-3.23,1.21,-0.13,-23.53,9.98,41.14
5780,-6.91,-3.72,9.24,-3.23,1.21,-0.13,-23.53,9.98,41.14
5792,-7.82,-6.39,10.46,-5.47,1.46,0.40,-23.53,9.98,41.14
5802,-7.82,-6.39,10.46,-5.47,1.46,0.40,-23.53,9.98,41.14
5813,-7.10,-5.92,10.30,-8.67,2.04,1.05,-23.53,9.98,41.14
5824,-7.10,-5.92,10.30,-8.67,2.04,1.05,-23.53,9.98,41.14
5835,-8.21,-3.62,8.26,-11.97,2.35,1.76,-31.24,-9.41,36.80
5846,-8.21,-3.62,8.26,-11.97,2.35,1.76,-31.24,-9.41,36.80
5857,-3.07,4.84,-8.35,-14.58,1.60,1.69,-31.24,-9.41,36.80
5868,-6.49,-1.38,-4.27,-1.87,0.10,1.02,-31.24,-9.41,36.80
5879,-6.49,-1.38,-4.27,-1.87,0.10,1.02,-31.24,-9.41,36.80
5890,-6.98,-8.14,0.60,2.99,-0.88,0.57,-31.24,-9.41,36.80
5901,-6.98,-8.14,0.60,2.99,-0.88,0.57,-31.24,-9.41,36.80
5912,-6.68,-7.82,4.25,2.54,-1.14,1.27,-31.24,-9.41,36.80
5923,-6.68,-7.82,4.25,2.54,-1.14,1.27,-31.24,-9.41,36.80
5934,-7.34,-4.62,2.61,1.33,-0.59,1.57,-31.24,-9.41,36.80
5945,-7.34,-4.62,2.61,1.33,-0.59,1.57,-31.24,-9.41,36.80
5956,-7.31,-4.03,2.81,1.05,-0.43,1.30,-34.28,-16.04,31.95
5967,-10.01,-7.17,5.89,1.28,-0.47,0.95,-34.28,-16.04,31.95
5978,-10.01,-7.17,5.89,1.28,-0.47,0.95,-34.28,-16.04,31.95
5989,-10.27,-6.02,6.87,0.78,-0.27,0.65,-34.28,-16.04,31.95
6000,-10.27,-6.02,6.87,0.78,-0.27,0.65,-34.28,-16.04,31.95
6011,-7.15,-3.51,5.01,0.16,-0.03,0.19,-34.28,-16.04,31.95
6022,-7.15,-3.51,5.01,0.16,-0.03,0.19,-34.28,-16.04,31.95
6033,-5.45,-2.59,3.46,-0.08,0.06,-0.01,-34.28,-16.04,31.95
6044,-5.45,-2.59,3.46,-0.08,0.06,-0.01,-34.28,-16.04,31.95
6055,-6.45,-4.25,3.82,-0.04,0.09,0.06,-34.28,-16.04,31.95
6066,-6.45,-4.25,3.82,-0.04,0.09,0.06,-34.28,-16.04,31.95
6077,-8.63,-5.10,2.97,0.06,0.17,0.20,-33.47,-12.48,32.29
6088,-9.15,-4.95,2.87,0.24,0.02,0.02,-33.47,-12.48,32.29
6099,-9.15,-4.95,2.87,0.24,0.02,0.02,-33.47,-12.48,32.29
6110,-7.49,-5.40,3.80,0.09,-0.12,-0.17,-33.47,-12.48,32.29
6121,-7.49,-5.40,3.80,0.09,-0.12,-0.17,-33.47,-12.48,32.29
6132,-7.80,-5.87,3.92,-0.02,0.15,-0.01,-33.47,-12.48,32.29
6143,-7.80,-5.87,3.92,-0.02,0.15,-0.01,-33.47,-12.48,32.29
6154,-8.37,-5.71,2.46,-0.09,0.37,0.18,-33.47,-12.48,32.29
6165,-8.37,-5.71,2.46,-0.09,0.37,0.18,-33.47,-12.48,32.29
6176,-7.51,-5.24,2.50,-0.05,0.25,0.27,-33.47,-12.48,32.29
6187,-8.05,-4.29,3.37,0.13,0.08,0.36,-33.47,-12.48,32.29
6198,-8.05,-4.29,3.37,0.13,0.08,0.36,-33.47,-12.48,32.29
6209,-8.95,-4.01,4.61,0.14,0.03,0.32,-34.48,-12.32,34.12
6220,-8.95,-4.01,4.61,0.14,0.03,0.32,-34.48,-12.32,34.12
6231,-8.54,-3.74,4.86,-0.17,0.18,0.19,-34.48,-12.32,34.12
6242,-8.54,-3.74,4.86,-0.17,0.18,0.19,-34.48,-12.32,34.12
6253,-8.79,-3.62,3.53,-0.30,0.30,0.12,-34.48,-12.32,34.12
6264,-8.79,-3.62,3.53,-0.30,0.30,0.12,-34.48,-12.32,34.12
6275,-8.16,-4.35,3.08,-0.29,0.16,0.02,-34.48,-12.32,34.12
6286,-8.16,-4.35,3.08,-0.29,0.16,0.02,-34.48,-12.32,34.12
6297,-8.05,-4.68,3.19,-0.22,0.10,-0.02,-34.48,-12.32,34.12
6308,-8.06,-4.77,2.65,-0.12,0.13,-0.02,-34.48,-12.32,34.12
6319,-8.06,-4.77,2.65,-0.12,0.13,-0.02,-34.48,-12.32,34.12
6330,-8.09,-4.83,2.86,-0.02,0.01,0.01,-34.08,-12.00,32.45
6341,-8.09,-4.83,2.86,-0.02,0.01,0.01,-34.08,-12.00,32.45
6352,-8.07,-4.73,3.55,-0.02,0.02,0.04,-34.08,-12.00,32.45
6363,-8.07,-4.73,3.55,-0.02,0.02,0.04,-34.08,-12.00,32.45
6374,-8.09,-4.51,3.11,-0.05,0.11,0.07,-34.08,-12.00,32.45
6385,-8.09,-4.51,3.11,-0.05,0.11,0.07,-34.08,-12.00,32.45
6396,-7.91,-4.51,2.92,-0.00,0.01,0.08,-34.08,-12.00,32.45
6407,-8.04,-4.38,3.40,0.07,-0.13,0.10,-34.08,-12.00,32.45
6418,-8.04,-4.38,3.40,0.07,-0.13,0.10,-34.08,-12.00,32.45
6429,-8.22,-4.38,3.72,0.04,-0.15,0.06,-34.08,-12.00,32.45
6440,-8.22,-4.38,3.72,0.04,-0.15,0.06,-34.08,-12.00,32.45
6451,-8.02,-4.51,3.29,-0.03,-0.09,0.02,-35.09,-11.84,31.95
6462,-8.02,-4.51,3.29,-0.03,-0.09,0.02,-35.09,-11.84,31.95
6473,-8.05,-4.62,2.82,-0.03,-0.12,0.03,-35.09,-11.84,31.95
6484,-8.05,-4.62,2.82,-0.03,-0.12,0.03,-35.09,-11.84,31.95
6495,-8.24,-4.64,3.18,-0.03,-0.20,0.03,-35.09,-11.84,31.95
6506,-8.24,-4.64,3.18,-0.03,-0.20,0.03,-35.09,-11.84,31.95
6517,-8.18,-4.62,3.52,-0.09,-0.15,0.01,-35.09,-11.84,31.95
6528,-8.13,-4.59,3.40,-0.17,-0.03,0.00,-35.09,-11.84,31.95
6539,-8.13,-4.59,3.40,-0.17,-0.03,0.00,-35.09,-11.84,31.95
6550,-7.91,-4.51,3.15,-0.18,0.00,0.02,-35.09,-11.84,31.95
6561,-7.91,-4.51,3.15,-0.18,0.00,0.02,-35.09,-11.84,31.95
6572,-8.06,-4.59,3.33,-0.13,-0.02,0.03,-35.09,-11.84,31.95
6583,-8.06,-4.59,3.33,-0.13,-0.02,0.03,-35.09,-11.84,31.95
6594,-8.31,-4.46,3.24,-0.09,-0.01,0.02,-33.06,-12.48,32.29
6605,-8.31,-4.46,3.24,-0.09,-0.01,0.02,-33.06,-12.48,32.29
6616,-8.07,-4.52,3.22,-0.08,-0.02,0.01,-33.06,-12.48,32.29
6627,-8.12,-4.64,3.08,-0.04,-0.01,0.01,-33.06,-12.48,32.29
6638,-8.12,-4.64,3.08,-0.04,-0.01,0.01,-33.06,-12.48,32.29
6649,-8.21,-4.62,3.07,0.02,-0.02,0.01,-33.06,-12.48,32.29
6660,-8.21,-4.62,3.07,0.02,-0.02,0.01,-33.06,-12.48,32.29
6671,-8.21,-4.45,3.40,0.02,-0.05,0.01,-33.06,-12.48,32.29
6682,-8.21,-4.45,3.40,0.02,-0.05,0.01,-33.06,-12.48,32.29
6693,-8.27,-4.34,3.57,-0.02,-0.04,-0.01,-33.06,-12.48,32.29
6704,-8.27,-4.34,3.57,-0.02,-0.04,-0.01,-33.06,-12.48,32.29
6715,-8.21,-4.46,3.41,-0.06,-0.00,-0.05,-35.29,-11.35,32.79
6726,-8.21,-4.46,3.41,-0.06,-0.00,-0.05,-35.29,-11.35,32.79
6737,-8.18,-4.53,3.39,-0.09,0.01,-0.07,-35.29,-11.35,32.79
6748,-8.11,-4.58,3.25,-0.10,0.01,-0.08,-35.29,-11.35,32.79
6759,-8.11,-4.58,3.25,-0.10,0.01,-0.08,-35.29,-11.35,32.79
6770,-8.18,-4.61,3.23,-0.10,0.01,-0.07,-35.29,-11.35,32.79
6781,-8.18,-4.61,3.23,-0.10,0.01,-0.07,-35.29,-11.35,32.79
6792,-8.02,-4.71,3.17,-0.12,0.01,-0.06,-35.29,-11.35,32.79
6803,-8.02,-4.71,3.17,-0.12,0.01,-0.06,-35.29,-11.35,32.79
6814,-7.92,-4.71,3.14,-0.10,-0.00,-0.03,-35.29,-11.35,32.79
6825,-7.92,-4.71,3.14,-0.10,-0.00,-0.03,-35.29,-11.35,32.79
6836,-7.85,-4.76,3.15,-0.06,-0.00,-0.02,-35.09,-11.84,32.29
6847,-7.85,-4.76,3.15,-0.06,-0.00,-0.02,-35.09,-11.84,32.29
6858,-7.85,-4.70,3.18,-0.03,0.00,0.01,-35.09,-11.84,32.29
6869,-8.01,-4.66,3.14,-0.00,-0.02,0.04,-35.09,-11.84,32.29
6880,-8.01,-4.66,3.14,-0.00,-0.02,0.04,-35.09,-11.84,32.29
6891,-7.94,-4.70,3.17,0.02,-0.04,0.05,-35.09,-11.84,32.29
6902,-7.94,-4.70,3.17,0.02,-0.04,0.05,-35.09,-11.84,32.29
6913,-8.23,-4.57,3.26,0.04,-0.03,0.06,-35.09,-11.84,32.29
6924,-8.23,-4.57,3.26,0.04,-0.03,0.06,-35.09,-11.84,32.29
6935,-8.03,-4.50,3.38,0.04,-0.03,0.04,-35.09,-11.84,32.29
6946,-8.03,-4.50,3.38,0.04,-0.03,0.04,-35.09,-11.84,32.29
6957,-7.96,-4.65,3.25,0.03,-0.01,0.04,-34.68,-11.84,32.62
6968,-8.30,-4.42,3.19,0.05,-0.01,0.06,-34.68,-11.84,32.62
6979,-8.30,-4.42,3.19,0.05,-0.01,0.06,-34.68,-11.84,32.62
6990,-8.24,-4.41,3.46,0.01,-0.03,0.01,-34.68,-11.84,32.62
7001,-8.24,-4.41,3.46,0.01,-0.03,0.01,-34.68,-11.84,32.62
7012,-8.01,-4.67,3.42,-0.04,-0.00,-0.02,-34.68,-11.84,32.62
7023,-8.01,-4.67,3.42,-0.04,-0.00,-0.02,-34.68,-11.84,32.62
7034,-8.16,-4.67,3.05,-0.04,0.05,-0.01,-34.68,-11.84,32.62
7045,-8.16,-4.67,3.05,-0.04,0.05,-0.01,-34.68,-11.84,32.62
7056,-8.11,-4.58,3.24,-0.03,0.02,-0.01,-34.68,-11.84,32.62
7067,-8.11,-4.58,3.24,-0.03,0.02,-0.01,-34.68,-11.84,32.62
7078,-8.12,-4.60,3.39,-0.04,0.02,-0.01,-34.68,-11.84,32.62
7089,-8.05,-4.62,3.22,-0.05,0.04,0.00,-34.08,-12.00,34.12
7100,-8.05,-4.62,3.22,-0.05,0.04,0.00,-34.08,-12.00,34.12
7111,-8.30,-4.46,3.04,-0.03,0.05,0.01,-34.08,-12.00,34.12
7122,-8.30,-4.46,3.04,-0.03,0.05,0.01,-34.08,-12.00,34.12
7133,-8.25,-4.45,3.24,-0.00,0.02,-0.02,-34.08,-12.00,34.12
7144,-8.25,-4.45,3.24,-0.00,0.02,-0.02,-34.08,-12.00,34.12
7155,-8.07,-4.67,3.41,-0.04,0.00,-0.04,-34.08,-12.00,34.12
7166,-8.07,-4.67,3.41,-0.04,0.00,-0.04,-34.08,-12.00,34.12
7177,-8.17,-4.64,3.20,-0.09,0.05,-0.01,-34.08,-12.00,34.12
7188,-8.39,-4.52,3.35,-0.14,0.08,-0.01,-34.08,-12.00,34.12
7199,-8.39,-4.52,3.35,-0.14,0.08,-0.01,-34.08,-12.00,34.12
7210,-8.28,-4.62,3.32,-0.21,0.13,-0.04,-35.29,-12.97,32.12
7221,-8.28,-4.62,3.32,-0.21,0.13,-0.04,-35.29,-12.97,32.12
7232,-7.94,-4.64,2.95,-0.25,0.18,-0.02,-35.29,-12.97,32.12
7243,-7.94,-4.64,2.95,-0.25,0.18,-0.02,-35.29,-12.97,32.12
7254,-7.98,-4.79,2.98,-0.18,0.18,0.00,-35.29,-12.97,32.12
7265,-7.98,-4.79,2.98,-0.18,0.18,0.00,-35.29,-12.97,32.12
7276,-8.29,-4.77,3.06,-0.16,0.21,0.04,-35.29,-12.97,32.12
7287,-8.29,-4.77,3.06,-0.16,0.21,0.04,-35.29,-12.97,32.12
7298,-8.17,-4.50,2.56,-0.13,0.25,0.04,-35.29,-12.97,32.12
7309,-7.89,-4.54,2.66,-0.02,0.16,0.01,-35.29,-12.97,32.12
7320,-7.89,-4.54,2.66,-0.02,0.16,0.01,-35.29,-12.97,32.12
7331,-7.95,-4.60,3.04,0.08,0.08,0.00,-35.70,-12.32,29.78
7342,-7.95,-4.60,3.04,0.08,0.08,0.00,-35.70,-12.32,29.78
7353,-8.07,-4.57,2.76,0.10,0.01,-0.01,-35.70,-12.32,29.78
7364,-8.07,-4.57,2.76,0.10,0.01,-0.01,-35.70,-12.32,29.78
7375,-7.73,-4.46,2.66,0.09,-0.13,-0.02,-35.70,-12.32,29.78
7386,-7.73,-4.46,2.66,0.09,-0.13,-0.02,-35.70,-12.32,29.78
7397,-7.87,-4.87,3.06,0.13,-0.24,-0.01,-35.70,-12.32,29.78
7408,-8.06,-4.79,3.18,0.09,-0.26,0.03,-35.70,-12.32,29.78
7419,-8.06,-4.79,3.18,0.09,-0.26,0.03,-35.70,-12.32,29.78
7430,-8.01,-4.58,2.99,0.04,-0.25,0.03,-35.70,-12.32,29.78
7441,-8.01,-4.58,2.99,0.04,-0.25,0.03,-35.70,-12.32,29.78
7452,-8.20,-4.73,3.21,0.04,-0.26,0.04,-35.70,-12.32,29.78
7463,-8.20,-4.73,3.21,0.04,-0.26,0.04,-35.70,-12.32,29.78
7474,-8.20,-4.61,3.38,0.00,-0.21,0.08,-34.89,-12.00,32.12
7485,-8.20,-4.61,3.38,0.00,-0.21,0.08,-34.89,-12.00,32.12
7496,-8.21,-4.55,3.07,0.03,-0.14,0.10,-34.89,-12.00,32.12
7507,-8.21,-4.55,3.07,0.03,-0.14,0.10,-34.89,-12.00,32.12
7518,-8.23,-4.47,3.46,0.05,-0.11,0.11,-34.89,-12.00,32.12
7529,-8.60,-4.29,3.52,-0.01,-0.04,0.10,-34.89,-12.00,32.12
7540,-8.60,-4.29,3.52,-0.01,-0.04,0.10,-34.89,-12.00,32.12
7551,-8.08,-4.43,3.18,-0.08,-0.03,0.05,-34.89,-12.00,32.12
7562,-8.08,-4.43,3.18,-0.08,-0.03,0.05,-34.89,-12.00,32.12
7573,-8.10,-4.63,3.14,-0.04,-0.05,0.05,-34.89,-12.00,32.12
7584,-8.10,-4.63,3.14,-0.04,-0.05,0.05,-34.89,-12.00,32.12
7595,-8.16,-4.64,3.28,-0.07,-0.04,0.07,-34.48,-12.00,32.79
7606,-8.16,-4.64,3.28,-0.07,-0.04,0.07,-34.48,-12.00,32.79
7617,-8.25,-4.60,2.83,-0.09,0.02,0.11,-34.48,-12.00,32.79
7628,-8.89,-4.31,2.29,0.01,0.02,0.12,-34.48,-12.00,32.79
7639,-8.89,-4.31,2.29,0.01,0.02,0.12,-34.48,-12.00,32.79
7650,-9.41,-4.27,3.89,0.02,0.07,0.08,-34.48,-12.00,32.79
7661,-9.41,-4.27,3.89,0.02,0.07,0.08,-34.48,-12.00,32.79
7672,-9.37,-4.00,3.70,-0.19,0.47,0.04,-34.48,-12.00,32.79
7683,-9.37,-4.00,3.70,-0.19,0.47,0.04,-34.48,-12.00,32.79
7694,-8.18,-3.87,3.45,-0.25,0.86,0.05,-34.48,-12.00,32.79
7705,-8.18,-3.87,3.45,-0.25,0.86,0.05,-34.48,-12.00,32.79
7716,-7.81,-4.31,2.92,-0.15,0.85,0.10,-37.93,-12.16,30.95
7727,-7.81,-4.31,2.92,-0.15,0.85,0.10,-37.93,-12.16,30.95
7738,-7.67,-4.18,2.72,-0.09,0.55,0.21,-37.93,-12.16,30.95
7749,-8.10,-4.25,2.40,0.03,0.22,0.23,-37.93,-12.16,30.95
7760,-8.10,-4.25,2.40,0.03,0.22,0.23,-37.93,-12.16,30.95
7771,-7.73,-4.01,1.61,0.18,-0.06,0.25,-37.93,-12.16,30.95
7782,-7.73,-4.01,1.61,0.18,-0.06,0.25,-37.93,-12.16,30.95
7793,-8.43,-3.83,3.09,0.27,-0.37,0.20,-37.93,-12.16,30.95
7804,-8.43,-3.83,3.09,0.27,-0.37,0.20,-37.93,-12.16,30.95
7815,-9.59,-3.67,3.42,0.21,-0.52,-0.02,-37.93,-12.16,30.95
7826,-9.59,-3.67,3.42,0.21,-0.52,-0.02,-37.93,-12.16,30.95
7837,-8.14,-4.39,3.54,-0.13,-0.58,-0.46,-37.93,-12.16,30.95
7848,-8.14,-4.39,3.54,-0.13,-0.58,-0.46,-37.93,-12.16,30.95
7859,-5.75,-5.89,2.38,-0.28,-0.49,-0.55,-37.12,-11.51,31.28
7870,-6.62,-6.41,1.86,0.13,-0.37,-0.10,-37.12,-11.51,31.28
7881,-6.62,-6.41,1.86,0.13,-0.37,-0.10,-37.12,-11.51,31.28
7892,-6.36,-6.12,2.38,0.62,-0.27,0.37,-37.12,-11.51,31.28
7903,-6.36,-6.12,2.38,0.62,-0.27,0.37,-37.12,-11.51,31.28
7914,-9.79,-3.19,3.36,0.55,-0.38,0.50,-37.12,-11.51,31.28
7925,-9.79,-3.19,3.36,0.55,-0.38,0.50,-37.12,-11.51,31.28
7936,-9.44,-1.85,5.49,0.18,-0.54,0.22,-37.12,-11.51,31.28
7952,-9.44,-1.85,5.49,0.18,-0.54,0.22,-37.12,-11.51,31.28
7958,-10.07,-2.97,3.87,0.05,-0.20,-0.01,-37.12,-11.51,31.28
7969,-13.03,-1.71,3.81,-0.39,-0.17,-0.28,-34.48,-10.71,33.12
7980,-13.03,-1.71,3.81,-0.39,-0.17,-0.28,-34.48,-10.71,33.12
7991,-8.00,-3.79,4.22,-1.07,-0.34,-0.93,-34.48,-10.71,33.12
8002,-8.00,-3.79,4.22,-1.07,-0.34,-0.93,-34.48,-10.71,33.12
8013,-7.22,-5.39,3.40,-1.31,-0.18,-0.87,-34.48,-10.71,33.12
8024,-7.22,-5.39,3.40,-1.31,-0.18,-0.87,-34.48,-10.71,33.12
8035,-7.30,-5.77,2.45,-1.29,-0.00,-0.43,-34.48,-10.71,33.12
8047,-7.30,-5.77,2.45,-1.29,-0.00,-0.43,-34.48,-10.71,33.12
8057,-5.75,-4.76,2.57,-1.09,0.07,0.09,-34.48,-10.71,33.12
8068,-5.75,-4.76,2.57,-1.09,0.07,0.09,-34.48,-10.71,33.12
8079,-6.48,-5.01,2.85,-0.64,0.33,0.38,-34.48,-10.71,33.12
8090,-7.22,-5.26,2.08,-0.24,0.57,0.47,-35.09,-14.75,30.95
8101,-7.22,-5.26,2.08,-0.24,0.57,0.47,-35.09,-14.75,30.95
8112,-7.77,-5.65,1.63,-0.05,0.51,0.22,-35.09,-14.75,30.95
8123,-7.77,-5.65,1.63,-0.05,0.51,0.22,-35.09,-14.75,30.95
8134,-6.91,-7.15,1.80,0.30,0.36,-0.24,-35.09,-14.75,30.95
8145,-6.91,-7.15,1.80,0.30,0.36,-0.24,-35.09,-14.75,30.95
8156,-6.92,-5.75,1.53,0.77,0.22,-0.26,-35.09,-14.75,30.95
8167,-6.92,-5.75,1.53,0.77,0.22,-0.26,-35.09,-14.75,30.95
8178,-8.29,-5.01,3.20,0.96,-0.03,-0.05,-35.09,-14.75,30.95
8189,-9.35,-3.58,3.98,0.79,-0.08,0.07,-35.09,-14.75,30.95
8200,-9.35,-3.58,3.98,0.79,-0.08,0.07,-35.09,-14.75,30.95
8211,-8.94,-3.68,3.90,0.53,-0.03,-0.04,-35.09,-14.75,30.95
8222,-8.94,-3.68,3.90,0.53,-0.03,-0.04,-35.09,-14.75,30.95
8233,-8.41,-4.09,3.69,0.28,-0.01,-0.08,-35.29,-12.32,32.79
8244,-8.41,-4.09,3.69,0.28,-0.01,-0.08,-35.29,-12.32,32.79
8255,-7.73,-4.86,3.37,0.11,0.03,-0.04,-35.29,-12.32,32.79
8266,-7.73,-4.86,3.37,0.11,0.03,-0.04,-35.29,-12.32,32.79
8277,-7.81,-5.21,2.57,0.16,0.11,0.07,-35.29,-12.32,32.79
8288,-7.81,-5.21,2.57,0.16,0.11,0.07,-35.29,-12.32,32.79
8299,-7.98,-5.02,2.78,0.26,0.07,0.19,-35.29,-12.32,32.79
8310,-8.99,-4.29,3.35,0.27,0.04,0.29,-35.29,-12.32,32.79
8321,-8.99,-4.29,3.35,0.27,0.04,0.29,-35.29,-12.32,32.79
8332,-8.64,-3.80,3.97,0.05,-0.04,0.21,-35.29,-12.32,32.79
8343,-8.64,-3.80,3.97,0.05,-0.04,0.21,-35.29,-12.32,32.79
8354,-8.71,-3.91,4.23,-0.12,0.01,0.11,-35.90,-10.22,32.29
8365,-8.71,-3.91,4.23,-0.12,0.01,0.11,-35.90,-10.22,32.29
8376,-8.57,-4.35,3.45,-0.19,0.15,0.08,-35.90,-10.22,32.29
8387,-8.57,-4.35,3.45,-0.19,0.15,0.08,-35.90,-10.22,32.29
8398,-8.02,-4.37,2.66,-0.15,0.12,0.15,-35.90,-10.22,32.29
8409,-7.84,-4.73,2.80,0.01,-0.06,0.20,-35.90,-10.22,32.29
8420,-7.84,-4.73,2.80,0.01,-0.06,0.20,-35.90,-10.22,32.29
8431,-7.92,-4.58,2.48,0.16,-0.26,0.22,-35.90,-10.22,32.29
8442,-7.92,-4.58,2.48,0.16,-0.26,0.22,-35.90,-10.22,32.29
8453,-8.04,-4.73,2.23,0.35,-0.31,0.11,-35.90,-10.22,32.29
8464,-8.04,-4.73,2.23,0.35,-0.31,0.11,-35.90,-10.22,32.29
8475,-8.36,-4.39,2.95,0.37,-0.31,0.01,-35.29,-11.03,32.45
8486,-8.36,-4.39,2.95,0.37,-0.31,0.01,-35.29,-11.03,32.45
8497,-8.74,-3.68,3.81,0.14,-0.21,-0.07,-35.29,-11.03,32.45
8508,-8.74,-3.68,3.81,0.14,-0.21,-0.07,-35.29,-11.03,32.45
8519,-8.73,-3.75,3.84,-0.07,-0.05,-0.15,-35.29,-11.03,32.45
8530,-8.71,-4.26,3.85,-0.18,0.16,-0.19,-35.29,-11.03,32.45
8541,-8.71,-4.26,3.85,-0.18,0.16,-0.19,-35.29,-11.03,32.45
8552,-8.64,-4.56,3.91,-0.33,0.33,-0.14,-35.29,-11.03,32.45
8563,-8.64,-4.56,3.91,-0.33,0.33,-0.14,-35.29,-11.03,32.45
8574,-8.38,-4.24,4.03,-0.42,0.44,0.00,-35.29,-11.03,32.45
8585,-8.38,-4.24,4.03,-0.42,0.44,0.00,-35.29,-11.03,32.45
8596,-7.79,-4.25,3.07,-0.29,0.44,0.19,-36.31,-12.48,31.28
8607,-7.79,-4.25,3.07,-0.29,0.44,0.19,-36.31,-12.48,31.28
8618,-7.43,-4.29,1.68,-0.05,0.17,0.27,-36.31,-12.48,31.28
8629,-7.84,-4.63,1.97,0.32,-0.24,0.22,-36.31,-12.48,31.28
8640,-7.84,-4.63,1.97,0.32,-0.24,0.22,-36.31,-12.48,31.28
8651,-8.27,-4.63,3.00,0.42,-0.47,0.08,-36.31,-12.48,31.28
8662,-8.27,-4.63,3.00,0.42,-0.47,0.08,-36.31,-12.48,31.28
8673,-8.11,-4.72,3.75,0.17,-0.37,0.05,-36.31,-12.48,31.28
8684,-8.11,-4.72,3.75,0.17,-0.37,0.05,-36.31,-12.48,31.28
8695,-8.66,-3.92,3.36,-0.11,-0.09,0.09,-36.31,-12.48,31.28
8706,-8.66,-3.92,3.36,-0.11,-0.09,0.09,-36.31,-12.48,31.28
8717,-8.70,-3.72,3.67,-0.27,0.04,0.02,-36.31,-12.48,31.28
8728,-8.70,-3.72,3.67,-0.27,0.04,0.02,-36.31,-12.48,31.28
8739,-8.63,-4.05,3.66,-0.26,0.10,0.01,-37.73,-11.68,32.12
8750,-8.50,-4.34,3.42,-0.22,0.14,0.08,-37.73,-11.68,32.12
8761,-8.50,-4.34,3.42,-0.22,0.14,0.08,-37.73,-11.68,32.12
8772,-7.88,-4.17,2.83,-0.05,0.11,0.19,-37.73,-11.68,32.12
8783,-7.88,-4.17,2.83,-0.05,0.11,0.19,-37.73,-11.68,32.12
8794,-7.92,-4.26,2.81,0.16,-0.07,0.21,-37.73,-11.68,32.12
8805,-7.92,-4.26,2.81,0.16,-0.07,0.21,-37.73,-11.68,32.12
8816,-7.91,-4.77,2.66,0.27,-0.20,0.15,-37.73,-11.68,32.12
8827,-7.91,-4.77,2.66,0.27,-0.20,0.15,-37.73,-11.68,32.12
8838,-8.14,-4.44,2.19,0.38,-0.27,0.06,-37.73,-11.68,32.12
8849,-8.63,-4.23,3.29,0.38,-0.32,-0.06,-37.73,-11.68,32.12
8860,-8.63,-4.23,3.29,0.38,-0.32,-0.06,-34.48,-9.41,32.12
8871,-8.70,-3.57,4.13,0.13,-0.20,-0.14,-34.48,-9.41,32.12
8882,-8.70,-3.57,4.13,0.13,-0.20,-0.14,-34.48,-9.41,32.12
8893,-8.76,-3.71,3.58,-0.13,0.00,-0.19,-34.48,-9.41,32.12
8904,-8.76,-3.71,3.58,-0.13,0.00,-0.19,-34.48,-9.41,32.12
8915,-8.75,-4.13,4.59,-0.22,0.10,-0.18,-34.48,-9.41,32.12
8926,-8.75,-4.13,4.59,-0.22,0.10,-0.18,-34.48,-9.41,32.12
8937,-8.51,-4.06,3.27,-0.29,0.29,-0.14,-34.48,-9.41,32.12
8948,-8.51,-4.06,3.27,-0.29,0.29,-0.14,-34.48,-9.41,32.12
8959,-8.39,-4.25,3.57,-0.28,0.31,-0.03,-34.48,-9.41,32.12
8970,-8.27,-4.05,3.25,-0.24,0.26,0.11,-36.51,-10.71,31.45
8981,-8.27,-4.05,3.25,-0.24,0.26,0.11,-36.51,-10.71,31.45
8992,-8.04,-4.22,3.05,-0.08,0.18,0.19,-36.51,-10.71,31.45
9003,-8.04,-4.22,3.05,-0.08,0.18,0.19,-36.51,-10.71,31.45
9014,-7.93,-3.95,2.15,0.16,0.00,0.22,-36.51,-10.71,31.45
9025,-7.93,-3.95,2.15,0.16,0.00,0.22,-36.51,-10.71,31.45
9036,-7.99,-4.40,2.83,0.34,-0.24,0.16,-36.51,-10.71,31.45
9047,-7.99,-4.40,2.83,0.34,-0.24,0.16,-36.51,-10.71,31.45
9058,-8.28,-4.30,3.13,0.35,-0.29,0.08,-36.51,-10.71,31.45
9069,-8.28,-4.30,3.13,0.35,-0.29,0.08,-36.51,-10.71,31.45
9080,-8.59,-4.34,3.17,0.25,-0.25,0.00,-36.51,-10.71,31.45
9091,-8.53,-3.65,3.57,-0.02,-0.18,-0.02,-36.51,-10.71,31.45
9102,-8.53,-3.65,3.57,-0.02,-0.18,-0.02,-36.51,-10.71,31.45
9113,-8.58,-3.85,3.69,-0.19,-0.10,-0.07,-35.70,-9.09,32.12
9124,-8.58,-3.85,3.69,-0.19,-0.10,-0.07,-35.70,-9.09,32.12
9135,-8.56,-4.13,4.25,-0.26,0.02,-0.07,-35.70,-9.09,32.12
9146,-8.56,-4.13,4.25,-0.26,0.02,-0.07,-35.70,-9.09,32.12
9157,-8.74,-4.21,3.23,-0.29,0.15,-0.03,-35.70,-9.09,32.12
9168,-8.74,-4.21,3.23,-0.29,0.15,-0.03,-35.70,-9.09,32.12
9179,-8.59,-3.72,3.78,-0.35,0.19,0.08,-35.70,-9.09,32.12
9190,-8.16,-3.99,3.34,-0.27,0.24,0.15,-35.70,-9.09,32.12
9201,-8.16,-3.99,3.34,-0.27,0.24,0.15,-35.70,-9.09,32.12
9212,-7.99,-4.18,2.99,-0.13,0.15,0.21,-35.70,-9.09,32.12
9223,-7.99,-4.18,2.99,-0.13,0.15,0.21,-35.70,-9.09,32.12
9234,-8.00,-3.93,2.32,0.06,-0.02,0.23,-36.51,-11.03,31.78
9245,-8.00,-3.93,2.32,0.06,-0.02,0.23,-36.51,-11.03,31.78
9256,-8.03,-4.36,2.61,0.21,-0.23,0.15,-36.51,-11.03,31.78
9267,-8.03,-4.36,2.61,0.21,-0.23,0.15,-36.51,-11.03,31.78
9283,-8.41,-4.08,3.39,0.25,-0.30,0.08,-36.51,-11.03,31.78
9289,-8.41,-4.08,3.39,0.25,-0.30,0.08,-36.51,-11.03,31.78
9300,-8.73,-4.09,3.27,0.15,-0.20,-0.02,-36.51,-11.03,31.78
9311,-8.70,-3.73,3.38,-0.05,-0.10,-0.04,-36.51,-11.03,31.78
9322,-8.70,-3.73,3.38,-0.05,-0.10,-0.04,-36.51,-11.03,31.78
9333,-8.58,-3.73,3.10,-0.15,-0.05,-0.06,-36.51,-11.03,31.78
9344,-8.58,-3.73,3.10,-0.15,-0.05,-0.06,-36.51,-11.03,31.78
9355,-8.90,-4.13,4.57,-0.18,-0.00,-0.05,-35.09,-8.93,31.95
9366,-8.90,-4.13,4.57,-0.18,-0.00,-0.05,-35.09,-8.93,31.95
9377,-8.45,-3.60,3.67,-0.26,0.23,0.03,-35.09,-8.93,31.95
9388,-8.45,-3.60,3.67,-0.26,0.23,0.03,-35.09,-8.93,31.95
9399,-8.24,-4.25,3.47,-0.20,0.25,0.07,-35.09,-8.93,31.95
9410,-8.09,-3.84,2.83,-0.09,0.13,0.18,-35.09,-8.93,31.95
9421,-8.09,-3.84,2.83,-0.09,0.13,0.18,-35.09,-8.93,31.95
9432,-8.00,-4.25,2.75,0.09,-0.06,0.20,-35.09,-8.93,31.95
9443,-8.00,-4.25,2.75,0.09,-0.06,0.20,-35.09,-8.93,31.95
9454,-8.22,-3.98,2.84,0.21,-0.23,0.17,-35.09,-8.93,31.95
9465,-8.22,-3.98,2.84,0.21,-0.23,0.17,-35.09,-8.93,31.95
9476,-8.54,-4.10,3.07,0.24,-0.28,0.08,-35.09,-8.93,31.95
9487,-8.54,-4.10,3.07,0.24,-0.28,0.08,-35.09,-8.93,31.95
9498,-8.78,-3.77,3.37,0.13,-0.20,0.00,-34.48,-10.71,32.79
9509,-8.78,-3.77,3.37,0.13,-0.20,0.00,-34.48,-10.71,32.79
9520,-8.72,-3.51,3.41,-0.09,-0.08,-0.05,-34.48,-10.71,32.79
9531,-9.03,-3.83,4.28,-0.24,0.02,-0.07,-34.48,-10.71,32.79
9542,-9.03,-3.83,4.28,-0.24,0.02,-0.07,-34.48,-10.71,32.79
9553,-8.55,-4.16,3.99,-0.35,0.25,-0.02,-34.48,-10.71,32.79
9564,-8.55,-4.16,3.99,-0.35,0.25,-0.02,-34.48,-10.71,32.79
9575,-8.49,-4.04,3.08,-0.29,0.27,0.11,-34.48,-10.71,32.79
9586,-8.49,-4.04,3.08,-0.29,0.27,0.11,-34.48,-10.71,32.79
9597,-8.58,-2.92,3.01,-0.01,0.12,0.26,-34.48,-10.71,32.79
9608,-8.58,-2.92,3.01,-0.01,0.12,0.26,-34.48,-10.71,32.79
9619,-10.82,-1.22,2.48,0.10,-0.20,0.21,-37.12,-10.22,32.29
9630,-9.08,-2.48,4.70,-0.29,-0.72,-0.28,-37.12,-10.22,32.29
9641,-9.08,-2.48,4.70,-0.29,-0.72,-0.28,-37.12,-10.22,32.29
9652,-7.47,-2.79,4.91,-0.57,-0.63,-0.33,-37.12,-10.22,32.29
9663,-7.47,-2.79,4.91,-0.57,-0.63,-0.33,-37.12,-10.22,32.29
9674,-7.36,-4.42,3.99,-0.70,-0.21,-0.27,-37.12,-10.22,32.29
9685,-7.36,-4.42,3.99,-0.70,-0.21,-0.27,-37.12,-10.22,32.29
9696,-7.38,-6.31,1.73,-0.63,0.14,-0.22,-37.12,-10.22,32.29
9707,-7.38,-6.31,1.73,-0.63,0.14,-0.22,-37.12,-10.22,32.29
9718,-6.66,-6.23,0.98,-0.30,0.15,-0.10,-37.12,-10.22,32.29
9729,-6.66,-6.23,0.98,-0.30,0.15,-0.10,-37.12,-10.22,32.29
9740,-7.34,-6.71,2.31,0.16,0.06,-0.13,-35.29,-11.35,33.12
9756,-7.10,-6.87,1.61,0.43,0.20,-0.22,-35.29,-11.35,33.12
9762,-7.10,-6.87,1.61,0.43,0.20,-0.22,-35.29,-11.35,33.12
9773,-8.60,-3.36,2.12,0.77,0.04,-0.01,-35.29,-11.35,33.12
9784,-8.60,-3.36,2.12,0.77,0.04,-0.01,-35.29,-11.35,33.12
9795,-9.15,-2.99,4.93,0.77,-0.24,-0.08,-35.29,-11.35,33.12
9806,-9.15,-2.99,4.93,0.77,-0.24,-0.08,-35.29,-11.35,33.12
9817,-8.87,-2.58,5.18,0.43,-0.19,-0.17,-35.29,-11.35,33.12
9828,-8.87,-2.58,5.18,0.43,-0.19,-0.17,-35.29,-11.35,33.12
9839,-8.19,-3.62,4.43,0.17,-0.04,-0.21,-35.29,-11.35,33.12
9850,-7.88,-4.68,3.54,0.05,0.08,-0.08,-35.29,-11.35,33.12
9861,-7.88,-4.68,3.54,0.05,0.08,-0.08,-35.29,-11.35,33.12
9872,-7.98,-4.98,2.94,0.11,0.16,0.12,-34.28,-11.84,33.29
9883,-7.98,-4.98,2.94,0.11,0.16,0.12,-34.28,-11.84,33.29
9894,-9.95,-3.12,1.81,0.01,0.12,0.21,-34.28,-11.84,33.29
9905,-9.95,-3.12,1.81,0.01,0.12,0.21,-34.28,-11.84,33.29
9916,-9.11,-2.73,4.77,-0.12,-0.04,0.14,-34.28,-11.84,33.29
9927,-9.11,-2.73,4.77,-0.12,-0.04,0.14,-34.28,-11.84,33.29
9938,-8.74,-3.45,4.65,-0.14,0.17,0.17,-34.28,-11.84,33.29
9949,-8.74,-3.45,4.65,-0.14,0.17,0.17,-34.28,-11.84,33.29
9960,-7.42,-4.11,3.51,-0.09,0.26,0.26,-34.28,-11.84,33.29
9971,-7.48,-4.74,2.40,-0.05,0.08,0.24,-34.28,-11.84,33.29
9982,-7.48,-4.74,2.40,-0.05,0.08,0.24,-34.28,-11.84,33.29
9993,-7.54,-4.57,2.32,0.15,-0.24,0.21,-34.68,-9.90,34.29
10004,-7.54,-4.57,2.32,0.15,-0.24,0.21,-34.68,-9.90,34.29
10015,-8.47,-4.37,3.55,0.34,-0.41,0.11,-34.68,-9.90,34.29
10026,-8.47,-4.37,3.55,0.34,-0.41,0.11,-34.68,-9.90,34.29
10042,-8.52,-3.68,4.22,0.18,-0.31,-0.01,-34.68,-9.90,34.29
10048,-8.52,-3.68,4.22,0.18,-0.31,-0.01,-34.68,-9.90,34.29
10059,-8.81,-3.37,3.67,-0.14,-0.12,-0.12,-34.68,-9.90,34.29
10070,-8.81,-3.37,3.67,-0.14,-0.12,-0.12,-34.68,-9.90,34.29
10081,-8.74,-3.48,3.51,-0.27,-0.00,-0.12,-34.68,-9.90,34.29
10092,-8.61,-4.05,3.83,-0.28,0.06,-0.08,-34.68,-9.90,34.29
10103,-8.61,-4.05,3.83,-0.28,0.06,-0.08,-34.68,-9.90,34.29
10114,-8.63,-3.77,3.98,-0.26,0.13,0.03,-33.47,-10.54,32.29
10125,-8.63,-3.77,3.98,-0.26,0.13,0.03,-33.47,-10.54,32.29
10136,-8.27,-3.89,3.63,-0.30,0.20,0.12,-33.47,-10.54,32.29
10147,-8.27,-3.89,3.63,-0.30,0.20,0.12,-33.47,-10.54,32.29
10158,-8.07,-3.45,3.38,-0.18,0.12,0.21,-33.47,-10.54,32.29
10169,-8.07,-3.45,3.38,-0.18,0.12,0.21,-33.47,-10.54,32.29
10180,-7.94,-4.08,3.57,-0.02,0.02,0.17,-33.47,-10.54,32.29
10191,-8.07,-4.52,2.42,0.11,-0.07,0.13,-33.47,-10.54,32.29
10202,-8.07,-4.52,2.42,0.11,-0.07,0.13,-33.47,-10.54,32.29
10213,-8.21,-4.56,2.87,0.26,-0.19,0.05,-33.47,-10.54,32.29
10229,-8.21,-4.56,2.87,0.26,-0.19,0.05,-33.47,-10.54,32.29
10235,-8.51,-3.90,2.97,0.25,-0.22,-0.05,-34.48,-10.71,33.12
10246,-8.51,-3.90,2.97,0.25,-0.22,-0.05,-34.48,-10.71,33.12
10257,-8.97,-3.45,4.37,0.06,-0.15,-0.13,-34.48,-10.71,33.12
10268,-8.97,-3.45,4.37,0.06,-0.15,-0.13,-34.48,-10.71,33.12
10279,-8.81,-3.22,3.83,-0.17,0.05,-0.16,-34.48,-10.71,33.12
10290,-8.81,-3.22,3.83,-0.17,0.05,-0.16,-34.48,-10.71,33.12
10301,-8.71,-3.60,4.69,-0.30,0.14,-0.14,-34.48,-10.71,33.12
10312,-8.56,-4.15,4.31,-0.40,0.34,-0.10,-34.48,-10.71,33.12
10323,-8.56,-4.15,4.31,-0.40,0.34,-0.10,-34.48,-10.71,33.12
10334,-8.10,-4.34,2.74,-0.34,0.39,0.04,-34.48,-10.71,33.12
10345,-8.10,-4.34,2.74,-0.34,0.39,0.04,-34.48,-10.71,33.12
10356,-7.83,-4.36,2.94,-0.11,0.18,0.19,-34.48,-10.71,33.12
10367,-7.83,-4.36,2.94,-0.11,0.18,0.19,-34.48,-10.71,33.12
10378,-7.94,-4.02,2.97,0.13,-0.04,0.26,-34.08,-11.03,32.79
10389,-7.94,-4.02,2.97,0.13,-0.04,0.26,-34.08,-11.03,32.79
10400,-8.02,-3.86,2.97,0.26,-0.23,0.18,-34.08,-11.03,32.79
10411,-8.66,-4.07,3.93,0.21,-0.36,-0.00,-34.08,-11.03,32.79
10422,-8.66,-4.07,3.93,0.21,-0.36,-0.00,-34.08,-11.03,32.79
10433,-7.55,-4.53,3.66,0.03,-0.24,-0.12,-34.08,-11.03,32.79
10444,-7.55,-4.53,3.66,0.03,-0.24,-0.12,-34.08,-11.03,32.79
10455,-9.46,-3.70,3.57,-0.09,-0.02,0.04,-34.08,-11.03,32.79
10466,-9.46,-3.70,3.57,-0.09,-0.02,0.04,-34.08,-11.03,32.79
10477,-8.92,-2.87,3.82,-0.23,-0.00,0.03,-34.08,-11.03,32.79
10488,-8.92,-2.87,3.82,-0.23,-0.00,0.03,-34.08,-11.03,32.79
10499,-8.90,-3.60,3.60,-0.24,0.04,-0.00,-34.89,-10.06,31.78
10510,-8.90,-3.60,3.60,-0.24,0.04,-0.00,-34.89,-10.06,31.78
10521,-8.54,-4.01,3.16,-0.17,0.10,0.08,-34.89,-10.06,31.78
10532,-8.17,-4.63,3.06,-0.09,0.11,0.13,-34.89,-10.06,31.78
10543,-8.17,-4.63,3.06,-0.09,0.11,0.13,-34.89,-10.06,31.78
10554,-8.04,-4.10,3.17,-0.04,0.06,0.16,-34.89,-10.06,31.78
10565,-8.04,-4.10,3.17,-0.04,0.06,0.16,-34.89,-10.06,31.78
10576,-8.00,-3.84,3.57,0.07,-0.00,0.11,-34.89,-10.06,31.78
10587,-8.00,-3.84,3.57,0.07,-0.00,0.11,-34.89,-10.06,31.78
10598,-7.95,-3.80,3.48,0.17,-0.06,0.01,-34.89,-10.06,31.78
10609,-7.95,-3.80,3.48,0.17,-0.06,0.01,-34.89,-10.06,31.78
10620,-8.27,-3.89,3.41,0.16,-0.15,-0.06,-34.08,-10.71,33.12
10631,-8.52,-3.43,3.75,0.09,-0.22,-0.03,-34.08,-10.71,33.12
10642,-8.52,-3.43,3.75,0.09,-0.22,-0.03,-34.08,-10.71,33.12
10653,-8.84,-3.49,4.11,-0.10,-0.19,0.01,-34.08,-10.71,33.12
10664,-8.84,-3.49,4.11,-0.10,-0.19,0.01,-34.08,-10.71,33.12
10675,-8.66,-3.68,3.25,-0.23,-0.09,0.07,-34.08,-10.71,33.12
10686,-8.66,-3.68,3.25,-0.23,-0.09,0.07,-34.08,-10.71,33.12
10697,-8.78,-4.47,3.67,-0.27,-0.03,0.11,-34.08,-10.71,33.12
10708,-8.78,-4.47,3.67,-0.27,-0.03,0.11,-34.08,-10.71,33.12
10719,-8.61,-3.87,4.15,-0.40,0.06,0.20,-34.08,-10.71,33.12
10730,-8.61,-3.87,4.15,-0.40,0.06,0.20,-34.08,-10.71,33.12
10741,-8.54,-3.11,3.85,-0.30,0.19,0.23,-34.08,-10.71,33.12
10752,-8.53,-3.10,2.42,-0.02,0.21,0.17,-34.48,-10.71,33.46
10763,-8.53,-3.10,2.42,-0.02,0.21,0.17,-34.48,-10.71,33.46
10774,-11.10,-1.92,2.52,-0.02,-0.19,-0.13,-34.48,-10.71,33.46
10785,-11.10,-1.92,2.52,-0.02,-0.19,-0.13,-34.48,-10.71,33.46
10796,-7.16,-4.05,4.93,-0.31,-0.63,-0.59,-34.48,-10.71,33.46
10807,-7.16,-4.05,4.93,-0.31,-0.63,-0.59,-34.48,-10.71,33.46
10818,-7.26,-2.53,5.41,-0.36,-0.46,-0.28,-34.48,-10.71,33.46
10829,-7.26,-2.53,5.41,-0.36,-0.46,-0.28,-34.48,-10.71,33.46
10840,-7.88,-3.70,4.64,-0.51,-0.05,-0.21,-34.48,-10.71,33.46
10851,-7.65,-5.06,2.34,-0.55,0.21,-0.15,-34.48,-10.71,33.46
10862,-7.65,-5.06,2.34,-0.55,0.21,-0.15,-34.48,-10.71,33.46
10873,-7.46,-5.52,1.73,-0.26,0.20,-0.10,-32.86,-11.68,33.46
10884,-7.46,-5.52,1.73,-0.26,0.20,-0.10,-32.86,-11.68,33.46
10895,-7.53,-5.82,1.65,0.11,0.23,-0.24,-32.86,-11.68,33.46
10906,-7.53,-5.82,1.65,0.11,0.23,-0.24,-32.86,-11.68,33.46
10917,-7.07,-7.31,1.26,0.49,0.37,-0.46,-32.86,-11.68,33.46
10928,-7.07,-7.31,1.26,0.49,0.37,-0.46,-32.86,-11.68,33.46
10939,-8.14,-4.81,2.40,0.80,0.21,-0.15,-32.86,-11.68,33.46
10950,-8.14,-4.81,2.40,0.80,0.21,-0.15,-32.86,-11.68,33.46
10961,-9.48,-2.76,4.73,0.69,-0.07,0.04,-32.86,-11.68,33.46
10972,-9.02,-2.52,5.16,0.45,-0.04,-0.07,-32.86,-11.68,33.46
10983,-9.02,-2.52,5.16,0.45,-0.04,-0.07,-32.86,-11.68,33.46
10994,-8.67,-3.22,4.50,0.17,0.05,-0.10,-32.86,-10.71,32.45
11005,-8.67,-3.22,4.50,0.17,0.05,-0.10,-32.86,-10.71,32.45
11016,-8.17,-4.43,3.73,-0.03,0.11,-0.04,-32.86,-10.71,32.45
11027,-8.17,-4.43,3.73,-0.03,0.11,-0.04,-32.86,-10.71,32.45
11038,-7.85,-4.73,2.90,-0.08,0.13,0.10,-32.86,-10.71,32.45
11049,-7.85,-4.73,2.90,-0.08,0.13,0.10,-32.86,-10.71,32.45
11060,-9.35,-3.54,2.82,-0.05,0.09,0.20,-32.86,-10.71,32.45
11071,-8.45,-3.39,3.76,-0.01,-0.05,0.18,-32.86,-10.71,32.45
11082,-8.45,-3.39,3.76,-0.01,-0.05,0.18,-32.86,-10.71,32.45
11093,-8.15,-3.98,4.05,-0.02,-0.08,0.20,-32.86,-10.71,32.45
11104,-8.15,-3.98,4.05,-0.02,-0.08,0.20,-32.86,-10.71,32.45
11115,-8.06,-4.14,2.90,-0.01,-0.07,0.16,-32.86,-10.71,32.45
11126,-8.06,-4.14,2.90,-0.01,-0.07,0.16,-32.86,-10.71,32.45
11137,-8.27,-4.29,3.04,0.10,-0.13,0.10,-34.48,-10.71,34.46
11148,-8.27,-4.29,3.04,0.10,-0.13,0.10,-34.48,-10.71,34.46
11159,-8.22,-3.69,2.57,0.14,-0.17,0.03,-34.48,-10.71,34.46
11170,-8.22,-3.69,2.57,0.14,-0.17,0.03,-34.48,-10.71,34.46
11181,-8.72,-3.77,3.98,0.11,-0.21,-0.10,-34.48,-10.71,34.46
11192,-8.68,-3.40,4.17,-0.05,-0.05,-0.15,-34.48,-10.71,34.46
11203,-8.68,-3.40,4.17,-0.05,-0.05,-0.15,-34.48,-10.71,34.46
11214,-8.60,-3.93,3.48,-0.17,0.11,-0.18,-34.48,-10.71,34.46
11226,-8.60,-3.93,3.48,-0.17,0.11,-0.18,-34.48,-10.71,34.46
11236,-8.60,-3.89,4.70,-0.22,0.16,-0.12,-34.48,-10.71,34.46
11247,-8.60,-3.89,4.70,-0.22,0.16,-0.12,-34.48,-10.71,34.46
11258,-8.28,-4.14,4.29,-0.31,0.31,-0.06,-35.50,-10.54,33.96
11269,-8.28,-4.14,4.29,-0.31,0.31,-0.06,-35.50,-10.54,33.96
11280,-8.15,-4.36,3.34,-0.28,0.37,0.05,-35.50,-10.54,33.96
11296,-8.15,-4.36,3.34,-0.28,0.37,0.05,-35.50,-10.54,33.96
11302,-8.05,-3.96,3.19,-0.14,0.25,0.20,-35.50,-10.54,33.96
11313,-7.78,-3.87,2.28,0.06,0.08,0.22,-35.50,-10.54,33.96
11324,-7.78,-3.87,2.28,0.06,0.08,0.22,-35.50,-10.54,33.96
11335,-7.82,-4.34,2.70,0.22,-0.18,0.18,-35.50,-10.54,33.96
11346,-7.82,-4.34,2.70,0.22,-0.18,0.18,-35.50,-10.54,33.96
11357,-8.19,-4.27,3.74,0.27,-0.32,0.14,-35.50,-10.54,33.96
11368,-8.19,-4.27,3.74,0.27,-0.32,0.14,-35.50,-10.54,33.96
11379,-8.27,-3.97,3.07,0.18,-0.26,0.05,-33.06,-10.22,32.95
11390,-8.27,-3.97,3.07,0.18,-0.26,0.05,-33.06,-10.22,32.95
11401,-8.55,-3.95,3.80,0.01,-0.23,-0.02,-33.06,-10.22,32.95
11412,-8.66,-3.54,3.69,-0.20,-0.12,-0.06,-33.06,-10.22,32.95
11423,-8.66,-3.54,3.69,-0.20,-0.12,-0.06,-33.06,-10.22,32.95
11434,-8.57,-3.79,3.39,-0.25,-0.02,-0.08,-33.06,-10.22,32.95
11445,-8.57,-3.79,3.39,-0.25,-0.02,-0.08,-33.06,-10.22,32.95
11456,-8.73,-3.84,4.20,-0.23,0.02,-0.05,-33.06,-10.22,32.95
11467,-8.73,-3.84,4.20,-0.23,0.02,-0.05,-33.06,-10.22,32.95
11478,-8.55,-4.00,4.27,-0.28,0.17,0.02,-33.06,-10.22,32.95
11489,-8.55,-4.00,4.27,-0.28,0.17,0.02,-33.06,-10.22,32.95
11500,-8.27,-4.08,3.55,-0.25,0.29,0.11,-34.08,-11.03,33.79
11511,-8.27,-4.08,3.55,-0.25,0.29,0.11,-34.08,-11.03,33.79
11522,-8.24,-3.86,3.42,-0.15,0.19,0.19,-34.08,-11.03,33.79
11533,-8.36,-3.48,3.54,-0.08,0.07,0.24,-34.08,-11.03,33.79
11544,-8.36,-3.48,3.54,-0.08,0.07,0.24,-34.08,-11.03,33.79
11555,-8.14,-3.75,3.01,-0.08,0.03,0.20,-34.08,-11.03,33.79
11566,-8.14,-3.75,3.01,-0.08,0.03,0.20,-34.08,-11.03,33.79
11577,-8.09,-4.00,2.04,0.07,-0.10,0.13,-34.08,-11.03,33.79
11588,-8.09,-4.00,2.04,0.07,-0.10,0.13,-34.08,-11.03,33.79
11599,-8.22,-3.89,2.95,0.25,-0.28,0.09,-34.08,-11.03,33.79
11610,-8.22,-3.89,2.95,0.25,-0.28,0.09,-34.08,-11.03,33.79
11621,-8.51,-3.93,3.40,0.31,-0.29,-0.00,-34.08,-11.03,33.79
11632,-8.66,-3.82,3.61,0.09,-0.23,-0.05,-35.29,-10.06,34.79
11643,-8.66,-3.82,3.61,0.09,-0.23,-0.05,-35.29,-10.06,34.79
11654,-8.73,-3.51,3.77,-0.13,-0.13,-0.06,-35.29,-10.06,34.79
11665,-8.73,-3.51,3.77,-0.13,-0.13,-0.06,-35.29,-10.06,34.79
11676,-8.61,-3.54,3.99,-0.20,-0.04,-0.05,-35.29,-10.06,34.79
11687,-8.61,-3.54,3.99,-0.20,-0.04,-0.05,-35.29,-10.06,34.79
11698,-8.91,-3.94,4.30,-0.22,0.07,-0.03,-35.29,-10.06,34.79
11709,-8.91,-3.94,4.30,-0.22,0.07,-0.03,-35.29,-10.06,34.79
11720,-8.58,-3.89,3.19,-0.14,0.21,0.12,-35.29,-10.06,34.79
11731,-8.58,-3.89,3.19,-0.14,0.21,0.12,-35.29,-10.06,34.79
11742,-8.25,-3.70,3.26,-0.01,0.16,0.27,-35.29,-10.06,34.79
11753,-8.07,-3.36,3.39,0.04,0.07,0.28,-33.67,-10.71,33.79
11764,-8.07,-3.36,3.39,0.04,0.07,0.28,-33.67,-10.71,33.79
11775,-8.07,-3.46,2.66,0.13,-0.06,0.17,-33.67,-10.71,33.79
11786,-8.07,-3.46,2.66,0.13,-0.06,0.17,-33.67,-10.71,33.79
11797,-9.79,-2.82,3.15,0.06,-0.32,-0.07,-33.67,-10.71,33.79
11808,-9.79,-2.82,3.15,0.06,-0.32,-0.07,-33.67,-10.71,33.79
11819,-7.55,-4.36,3.71,-0.11,-0.43,-0.52,-33.67,-10.71,33.79
11830,-7.55,-4.36,3.71,-0.11,-0.43,-0.52,-33.67,-10.71,33.79
11841,-7.21,-4.81,3.85,-0.28,-0.34,-0.51,-33.67,-10.71,33.79
11852,-7.87,-4.54,3.62,-0.31,-0.14,-0.29,-33.67,-10.71,33.79
11863,-7.87,-4.54,3.62,-0.31,-0.14,-0.29,-33.67,-10.71,33.79
11874,-6.87,-4.68,3.45,-0.11,0.08,-0.01,-33.47,-10.54,33.29
11885,-6.87,-4.68,3.45,-0.11,0.08,-0.01,-33.47,-10.54,33.29
11896,-12.91,-2.66,2.57,0.24,0.21,0.35,-33.47,-10.54,33.29
11907,-12.91,-2.66,2.57,0.24,0.21,0.35,-33.47,-10.54,33.29
11918,-8.99,-3.01,4.41,0.29,-0.21,0.12,-33.47,-10.54,33.29
11929,-8.99,-3.01,4.41,0.29,-0.21,0.12,-33.47,-10.54,33.29
11940,-8.95,-3.58,5.32,0.15,-0.22,0.04,-33.47,-10.54,33.29
11951,-8.95,-3.58,5.32,0.15,-0.22,0.04,-33.47,-10.54,33.29
11962,-8.92,-2.93,3.45,-0.04,0.07,-0.04,-33.47,-10.54,33.29
11973,-13.14,-1.02,4.62,-0.11,0.11,-0.16,-33.47,-10.54,33.29
11984,-13.14,-1.02,4.62,-0.11,0.11,-0.16,-33.47,-10.54,33.29
11995,-9.31,-2.49,5.00,-0.73,-0.10,-0.89,-33.47,-10.54,33.29
12006,-9.31,-2.49,5.00,-0.73,-0.10,-0.89,-33.47,-10.54,33.29
12017,-5.09,-5.49,4.48,-1.12,-0.10,-1.02,-33.26,-11.68,35.13
12028,-5.09,-5.49,4.48,-1.12,-0.10,-1.02,-33.26,-11.68,35.13
12039,-6.25,-4.61,2.25,-0.82,0.10,-0.31,-33.26,-11.68,35.13
12050,-6.25,-4.61,2.25,-0.82,0.10,-0.31,-33.26,-11.68,35.13
12061,-7.19,-4.69,3.75,-0.29,0.04,0.08,-33.26,-11.68,35.13
12072,-7.44,-5.05,3.06,-0.05,0.19,0.16,-33.26,-11.68,35.13
12083,-7.44,-5.05,3.06,-0.05,0.19,0.16,-33.26,-11.68,35.13
12094,-7.26,-5.86,1.92,0.13,0.36,0.07,-33.26,-11.68,35.13
12105,-7.26,-5.86,1.92,0.13,0.36,0.07,-33.26,-11.68,35.13
12116,-7.46,-6.55,1.50,0.33,0.46,-0.11,-33.26,-11.68,35.13
12132,-7.46,-6.55,1.50,0.33,0.46,-0.11,-33.26,-11.68,35.13
12138,-8.00,-6.49,0.93,0.56,0.47,-0.18,-34.08,-12.32,33.12
12149,-8.00,-6.49,0.93,0.56,0.47,-0.18,-34.08,-12.32,33.12
12160,-8.59,-3.90,2.84,0.67,0.11,0.04,-34.08,-12.32,33.12
12171,-8.59,-3.90,2.84,0.67,0.11,0.04,-34.08,-12.32,33.12
12182,-9.15,-3.21,5.02,0.51,0.01,0.01,-34.08,-12.32,33.12
12193,-8.74,-3.27,4.25,0.24,0.18,-0.14,-34.08,-12.32,33.12
12204,-8.74,-3.27,4.25,0.24,0.18,-0.14,-34.08,-12.32,33.12
12215,-8.56,-3.34,3.70,0.06,0.13,-0.16,-34.08,-12.32,33.12
12226,-8.56,-3.34,3.70,0.06,0.13,-0.16,-34.08,-12.32,33.12
12237,-8.14,-4.37,3.62,-0.04,-0.00,-0.16,-34.08,-12.32,33.12
12248,-8.14,-4.37,3.62,-0.04,-0.00,-0.16,-34.08,-12.32,33.12
12259,-7.82,-5.01,2.74,-0.03,-0.02,-0.11,-33.87,-12.48,33.29
12270,-7.82,-5.01,2.74,-0.03,-0.02,-0.11,-33.87,-12.48,33.29
12281,-7.67,-4.87,2.74,0.08,-0.07,-0.03,-33.87,-12.48,33.29
12292,-7.67,-4.87,2.74,0.08,-0.07,-0.03,-33.87,-12.48,33.29
12303,-7.87,-4.38,3.39,0.19,-0.15,0.08,-33.87,-12.48,33.29
12314,-8.26,-3.94,3.62,0.23,-0.21,0.14,-33.87,-12.48,33.29
12325,-8.26,-3.94,3.62,0.23,-0.21,0.14,-33.87,-12.48,33.29
12336,-8.42,-4.00,3.86,0.17,-0.23,0.08,-33.87,-12.48,33.29
12347,-8.42,-4.00,3.86,0.17,-0.23,0.08,-33.87,-12.48,33.29
12358,-8.06,-4.30,3.47,0.08,-0.18,-0.00,-33.87,-12.48,33.29
12369,-8.06,-4.30,3.47,0.08,-0.18,-0.00,-33.87,-12.48,33.29
12380,-8.13,-4.31,3.43,0.03,-0.16,0.00,-33.87,-12.48,33.29
12391,-8.13,-4.31,3.43,0.03,-0.16,0.00,-33.87,-12.48,33.29
12402,-7.98,-4.30,3.71,0.06,-0.11,0.06,-33.47,-12.16,32.62
12413,-8.39,-4.23,3.67,0.09,-0.03,0.16,-33.47,-12.16,32.62
12424,-8.39,-4.23,3.67,0.09,-0.03,0.16,-33.47,-12.16,32.62
12435,-8.85,-3.93,3.23,0.02,-0.01,0.15,-33.47,-12.16,32.62
12446,-8.85,-3.93,3.23,0.02,-0.01,0.15,-33.47,-12.16,32.62
12457,-8.74,-3.52,3.66,-0.05,-0.06,0.07,-33.47,-12.16,32.62
12468,-8.74,-3.52,3.66,-0.05,-0.06,0.07,-33.47,-12.16,32.62
12479,-9.20,-3.97,4.30,-0.15,0.02,0.11,-33.47,-12.16,32.62
12490,-9.20,-3.97,4.30,-0.15,0.02,0.11,-33.47,-12.16,32.62
12501,-8.73,-3.83,4.13,-0.14,0.27,0.23,-33.47,-12.16,32.62
12512,-8.73,-3.83,4.13,-0.14,0.27,0.23,-33.47,-12.16,32.62
12523,-8.29,-4.15,3.75,-0.11,0.46,0.25,-34.89,-11.35,33.79
12534,-7.27,-4.41,2.31,-0.11,0.47,0.20,-34.89,-11.35,33.79
12545,-7.27,-4.41,2.31,-0.11,0.47,0.20,-34.89,-11.35,33.79
12556,-7.50,-4.38,2.32,0.08,0.18,0.11,-34.89,-11.35,33.79
12567,-7.50,-4.38,2.32,0.08,0.18,0.11,-34.89,-11.35,33.79
12578,-7.88,-4.40,3.26,0.24,-0.07,0.06,-34.89,-11.35,33.79
12589,-7.88,-4.40,3.26,0.24,-0.07,0.06,-34.89,-11.35,33.79
12600,-8.16,-4.54,3.29,0.24,-0.18,0.02,-34.89,-11.35,33.79
12611,-8.16,-4.54,3.29,0.24,-0.18,0.02,-34.89,-11.35,33.79
12622,-8.84,-3.30,4.28,0.26,-0.31,0.09,-34.89,-11.35,33.79
12633,-9.00,-2.78,4.72,0.04,-0.25,0.16,-34.68,-11.19,33.29
12644,-9.00,-2.78,4.72,0.04,-0.25,0.16,-34.68,-11.19,33.29
12655,-8.97,-2.44,4.26,-0.23,-0.17,0.21,-34.68,-11.19,33.29
12666,-8.97,-2.44,4.26,-0.23,-0.17,0.21,-34.68,-11.19,33.29
12677,-10.11,-2.56,4.59,-0.38,-0.02,0.09,-34.68,-11.19,33.29
12693,-10.11,-2.56,4.59,-0.38,-0.02,0.09,-34.68,-11.19,33.29
12699,-9.58,-3.67,3.65,-0.77,0.02,-0.37,-34.68,-11.19,33.29
12710,-9.58,-3.67,3.65,-0.77,0.02,-0.37,-34.68,-11.19,33.29
12721,-6.68,-3.13,3.02,-0.79,-0.12,-0.34,-34.68,-11.19,33.29
12732,-6.68,-3.13,3.02,-0.79,-0.12,-0.34,-34.68,-11.19,33.29
12743,-7.32,-3.50,4.77,-0.60,-0.23,-0.05,-34.68,-11.19,33.29
12754,-7.79,-5.23,2.91,-0.48,0.03,-0.01,-34.68,-11.19,33.29
12765,-7.79,-5.23,2.91,-0.48,0.03,-0.01,-34.68,-11.19,33.29
12776,-7.43,-5.93,1.29,-0.25,0.09,-0.04,-33.67,-12.32,33.12
12787,-7.43,-5.93,1.29,-0.25,0.09,-0.04,-33.67,-12.32,33.12
12798,-7.36,-6.52,1.60,0.03,0.03,-0.21,-33.67,-12.32,33.12
12809,-7.36,-6.52,1.60,0.03,0.03,-0.21,-33.67,-12.32,33.12
12820,-7.00,-6.73,1.32,0.29,0.13,-0.23,-33.67,-12.32,33.12
12831,-7.00,-6.73,1.32,0.29,0.13,-0.23,-33.67,-12.32,33.12
12842,-8.19,-4.20,2.65,0.57,-0.01,0.10,-33.67,-12.32,33.12
12853,-9.41,-2.54,5.00,0.57,-0.16,0.18,-33.67,-12.32,33.12
12864,-9.41,-2.54,5.00,0.57,-0.16,0.18,-33.67,-12.32,33.12
12875,-9.01,-2.76,5.01,0.30,-0.05,-0.02,-33.67,-12.32,33.12
12886,-9.01,-2.76,5.01,0.30,-0.05,-0.02,-33.67,-12.32,33.12
12897,-8.04,-3.80,3.87,0.10,0.05,-0.10,-32.25,-12.16,32.95
12908,-8.04,-3.80,3.87,0.10,0.05,-0.10,-32.25,-12.16,32.95
12919,-7.86,-4.83,3.24,0.08,0.06,-0.01,-32.25,-12.16,32.95
12930,-7.86,-4.83,3.24,0.08,0.06,-0.01,-32.25,-12.16,32.95
12941,-8.34,-4.86,2.84,0.04,0.01,-0.00,-32.25,-12.16,32.95
12952,-8.34,-4.86,2.84,0.04,0.01,-0.00,-32.25,-12.16,32.95
12963,-8.49,-3.91,3.18,0.03,-0.09,-0.01,-32.25,-12.16,32.95
12974,-8.65,-3.60,4.26,-0.02,-0.06,-0.08,-32.25,-12.16,32.95
12985,-8.65,-3.60,4.26,-0.02,-0.06,-0.08,-32.25,-12.16,32.95
12996,-8.46,-3.80,4.44,-0.08,0.15,-0.17,-32.25,-12.16,32.95
13007,-8.46,-3.80,4.44,-0.08,0.15,-0.17,-32.25,-12.16,32.95
13018,-8.35,-4.12,3.80,-0.10,0.26,-0.13,-32.66,-11.51,33.62
13029,-8.35,-4.12,3.80,-0.10,0.26,-0.13,-32.66,-11.51,33.62
13040,-8.54,-4.13,3.39,-0.11,0.23,0.00,-32.66,-11.51,33.62
13051,-8.54,-4.13,3.39,-0.11,0.23,0.00,-32.66,-11.51,33.62
13062,-8.46,-3.91,3.40,-0.20,0.12,0.18,-32.66,-11.51,33.62
13073,-8.53,-4.51,3.51,-0.29,0.11,0.25,-32.66,-11.51,33.62
13084,-8.53,-4.51,3.51,-0.29,0.11,0.25,-32.66,-11.51,33.62
13095,-7.82,-5.16,2.37,-0.27,0.24,0.23,-32.66,-11.51,33.62
13106,-7.82,-5.16,2.37,-0.27,0.24,0.23,-32.66,-11.51,33.62
13117,-7.52,-4.92,1.27,-0.12,0.15,0.19,-32.66,-11.51,33.62
13128,-7.52,-4.92,1.27,-0.12,0.15,0.19,-32.66,-11.51,33.62
13139,-8.14,-4.19,3.75,0.14,-0.14,0.12,-34.68,-11.19,31.95
13150,-8.14,-4.19,3.75,0.14,-0.14,0.12,-34.68,-11.19,31.95
13161,-8.15,-4.26,3.30,0.19,-0.00,-0.06,-34.68,-11.19,31.95
13172,-8.15,-4.26,3.30,0.19,-0.00,-0.06,-34.68,-11.19,31.95
13183,-8.62,-3.43,3.47,0.18,-0.10,-0.04,-34.68,-11.19,31.95
13194,-8.88,-3.00,4.47,0.13,-0.19,0.04,-34.68,-11.19,31.95
13205,-8.88,-3.00,4.47,0.13,-0.19,0.04,-34.68,-11.19,31.95
13216,-8.49,-3.58,2.79,-0.02,-0.14,0.08,-34.68,-11.19,31.95
13227,-8.49,-3.58,2.79,-0.02,-0.14,0.08,-34.68,-11.19,31.95
13238,-8.66,-2.99,4.27,-0.04,-0.33,0.19,-34.68,-11.19,31.95
13249,-8.66,-2.99,4.27,-0.04,-0.33,0.19,-34.68,-11.19,31.95
13260,-9.30,-3.33,4.43,-0.13,-0.28,0.06,-34.68,-11.19,31.95
13271,-9.30,-3.33,4.43,-0.13,-0.28,0.06,-34.68,-11.19,31.95
13282,-6.58,-5.30,3.23,-0.29,-0.13,-0.14,-33.47,-11.51,33.29
13293,-6.58,-5.30,3.23,-0.29,-0.13,-0.14,-33.47,-11.51,33.29
13304,-6.79,-5.89,2.27,-0.11,0.07,0.07,-33.47,-11.51,33.29
13315,-8.43,-5.02,2.18,0.07,0.06,0.15,-33.47,-11.51,33.29
13326,-8.43,-5.02,2.18,0.07,0.06,0.15,-33.47,-11.51,33.29
13337,-8.71,-3.43,3.93,0.03,-0.16,0.07,-33.47,-11.51,33.29
13348,-8.71,-3.43,3.93,0.03,-0.16,0.07,-33.47,-11.51,33.29
13359,-8.68,-3.42,3.79,-0.06,-0.07,-0.04,-33.47,-11.51,33.29
13370,-8.68,-3.42,3.79,-0.06,-0.07,-0.04,-33.47,-11.51,33.29
13381,-8.64,-3.56,3.47,-0.12,0.02,-0.07,-33.47,-11.51,33.29
13392,-8.64,-3.56,3.47,-0.12,0.02,-0.07,-33.47,-11.51,33.29
13403,-8.67,-3.83,4.03,-0.17,0.10,-0.04,-34.08,-11.68,32.45
13414,-8.54,-3.53,3.74,-0.20,0.19,0.04,-34.08,-11.68,32.45
13425,-8.54,-3.53,3.74,-0.20,0.19,0.04,-34.08,-11.68,32.45
13436,-8.38,-3.74,3.97,-0.12,0.23,0.09,-34.08,-11.68,32.45
13447,-8.38,-3.74,3.97,-0.12,0.23,0.09,-34.08,-11.68,32.45
13458,-8.06,-3.77,3.00,-0.02,0.22,0.13,-34.08,-11.68,32.45
13469,-8.06,-3.77,3.00,-0.02,0.22,0.13,-34.08,-11.68,32.45
13481,-7.64,-4.23,2.32,0.13,0.05,0.13,-34.08,-11.68,32.45
13491,-7.64,-4.23,2.32,0.13,0.05,0.13,-34.08,-11.68,32.45
13502,-8.11,-4.52,3.00,0.21,-0.17,0.12,-34.08,-11.68,32.45
13513,-8.11,-4.52,3.00,0.21,-0.17,0.12,-34.08,-11.68,32.45
13524,-8.10,-4.12,2.78,0.18,-0.22,0.08,-34.68,-10.87,32.29
13535,-8.58,-3.94,3.16,0.13,-0.23,0.01,-34.68,-10.87,32.29
13546,-8.58,-3.94,3.16,0.13,-0.23,0.01,-34.68,-10.87,32.29
13557,-8.86,-3.45,4.07,-0.06,-0.18,-0.03,-34.68,-10.87,32.29
13568,-8.86,-3.45,4.07,-0.06,-0.18,-0.03,-34.68,-10.87,32.29
13579,-8.66,-3.28,3.82,-0.23,-0.05,-0.05,-34.68,-10.87,32.29
13590,-8.66,-3.28,3.82,-0.23,-0.05,-0.05,-34.68,-10.87,32.29
13601,-8.76,-3.85,4.15,-0.26,0.04,-0.05,-34.68,-10.87,32.29
13612,-8.76,-3.85,4.15,-0.26,0.04,-0.05,-34.68,-10.87,32.29
13623,-8.57,-3.75,3.73,-0.20,0.16,0.06,-34.68,-10.87,32.29
13634,-8.28,-3.46,2.95,-0.12,0.16,0.19,-34.68,-10.87,32.29
13645,-8.28,-3.46,2.95,-0.12,0.16,0.19,-34.68,-10.87,32.29
13656,-7.85,-3.68,2.99,-0.03,0.00,0.25,-34.08,-11.35,32.45
13667,-7.85,-3.68,2.99,-0.03,0.00,0.25,-34.08,-11.35,32.45
13678,-7.90,-4.19,2.78,0.10,-0.16,0.18,-34.08,-11.35,32.45
13689,-7.90,-4.19,2.78,0.10,-0.16,0.18,-34.08,-11.35,32.45
13700,-7.93,-4.75,3.06,0.19,-0.27,0.07,-34.08,-11.35,32.45
13716,-7.93,-4.75,3.06,0.19,-0.27,0.07,-34.08,-11.35,32.45
13722,-8.44,-4.17,3.53,0.21,-0.23,-0.00,-34.08,-11.35,32.45
13733,-8.44,-4.17,3.53,0.21,-0.23,-0.00,-34.08,-11.35,32.45
13744,-8.78,-2.95,4.07,0.00,-0.12,-0.06,-34.08,-11.35,32.45
13755,-8.72,-3.00,4.23,-0.11,-0.03,-0.08,-34.08,-11.35,32.45
13766,-8.72,-3.00,4.23,-0.11,-0.03,-0.08,-34.08,-11.35,32.45
13777,-8.58,-3.88,3.54,-0.11,0.07,-0.04,-33.47,-10.22,34.29
13788,-8.58,-3.88,3.54,-0.11,0.07,-0.04,-33.47,-10.22,34.29
13799,-8.73,-3.95,3.16,-0.13,0.04,0.04,-33.47,-10.22,34.29
13810,-8.73,-3.95,3.16,-0.13,0.04,0.04,-33.47,-10.22,34.29
13821,-8.26,-4.15,3.75,-0.14,0.03,0.16,-33.47,-10.22,34.29
13832,-8.26,-4.15,3.75,-0.14,0.03,0.16,-33.47,-10.22,34.29
13843,-8.04,-4.57,2.90,-0.15,0.08,0.16,-33.47,-10.22,34.29
13854,-7.90,-4.34,2.80,-0.03,0.01,0.13,-33.47,-10.22,34.29
13865,-7.90,-4.34,2.80,-0.03,0.01,0.13,-33.47,-10.22,34.29
13876,-8.00,-4.15,2.90,0.15,-0.10,0.06,-33.47,-10.22,34.29
13887,-8.00,-4.15,2.90,0.15,-0.10,0.06,-33.47,-10.22,34.29
13898,-8.16,-3.61,3.71,0.28,-0.20,-0.02,-33.26,-10.71,33.46
13909,-8.16,-3.61,3.71,0.28,-0.20,-0.02,-33.26,-10.71,33.46
13920,-8.72,-2.53,3.97,0.34,-0.24,-0.01,-33.26,-10.71,33.46
13931,-8.72,-2.53,3.97,0.34,-0.24,-0.01,-33.26,-10.71,33.46
13942,-9.15,-2.21,4.97,0.13,-0.24,0.04,-33.26,-10.71,33.46
13953,-9.15,-2.21,4.97,0.13,-0.24,0.04,-33.26,-10.71,33.46
13964,-9.06,-2.42,4.20,-0.08,-0.15,0.04,-33.26,-10.71,33.46
13975,-10.65,-2.31,4.42,-0.30,-0.15,-0.01,-33.26,-10.71,33.46
13986,-10.65,-2.31,4.42,-0.30,-0.15,-0.01,-33.26,-10.71,33.46
13997,-8.06,-3.15,4.58,-0.67,-0.26,-0.27,-33.26,-10.71,33.46
14008,-8.06,-3.15,4.58,-0.67,-0.26,-0.27,-33.26,-10.71,33.46
14019,-7.76,-1.99,5.20,-0.78,-0.28,-0.09,-33.26,-10.71,33.46
14030,-7.76,-1.99,5.20,-0.78,-0.28,-0.09,-33.26,-10.71,33.46
14041,-8.04,-3.74,4.49,-0.85,-0.07,-0.04,-34.28,-12.16,34.62
14052,-8.04,-3.74,4.49,-0.85,-0.07,-0.04,-34.28,-12.16,34.62
14063,-7.48,-5.19,2.27,-0.82,0.09,-0.03,-34.28,-12.16,34.62
14074,-7.37,-6.14,1.72,-0.59,0.09,-0.06,-34.28,-12.16,34.62
14085,-7.37,-6.14,1.72,-0.59,0.09,-0.06,-34.28,-12.16,34.62
14096,-7.44,-6.63,1.30,-0.33,0.18,-0.23,-34.28,-12.16,34.62
14107,-7.44,-6.63,1.30,-0.33,0.18,-0.23,-34.28,-12.16,34.62
14118,-6.70,-7.82,0.63,0.05,0.36,-0.43,-34.28,-12.16,34.62
14129,-6.70,-7.82,0.63,0.05,0.36,-0.43,-34.28,-12.16,34.62
14140,-8.41,-3.88,1.55,0.53,0.12,-0.10,-34.28,-12.16,34.62
14151,-8.41,-3.88,1.55,0.53,0.12,-0.10,-34.28,-12.16,34.62
14162,-9.16,-2.59,5.19,0.68,-0.23,-0.07,-32.66,-12.81,32.95
14173,-9.16,-2.59,5.19,0.68,-0.23,-0.07,-32.66,-12.81,32.95
14184,-9.06,-2.40,6.15,0.38,-0.12,-0.17,-32.66,-12.81,32.95
14195,-8.28,-3.62,4.14,0.08,0.16,-0.25,-32.66,-12.81,32.95
14206,-8.28,-3.62,4.14,0.08,0.16,-0.25,-32.66,-12.81,32.95
14217,-7.65,-4.97,3.18,-0.01,0.22,-0.13,-32.66,-12.81,32.95
14228,-7.65,-4.97,3.18,-0.01,0.22,-0.13,-32.66,-12.81,32.95
14239,-8.07,-4.69,2.91,0.05,0.23,0.13,-32.66,-12.81,32.95
14250,-8.07,-4.69,2.91,0.05,0.23,0.13,-32.66,-12.81,32.95
14261,-8.45,-4.90,4.02,0.06,0.10,0.14,-32.66,-12.81,32.95
14272,-8.45,-4.90,4.02,0.06,0.10,0.14,-32.66,-12.81,32.95
14283,-8.22,-3.78,4.60,0.08,-0.03,0.17,-32.45,-11.68,34.12
14294,-7.92,-3.91,3.41,0.05,-0.05,0.18,-32.45,-11.68,34.12
14305,-7.92,-3.91,3.41,0.05,-0.05,0.18,-32.45,-11.68,34.12
14316,-7.67,-4.89,2.83,0.07,-0.15,0.16,-32.45,-11.68,34.12
14327,-7.67,-4.89,2.83,0.07,-0.15,0.16,-32.45,-11.68,34.12
14338,-8.09,-4.17,2.78,0.18,-0.24,0.09,-32.45,-11.68,34.12
14349,-8.09,-4.17,2.78,0.18,-0.24,0.09,-32.45,-11.68,34.12
14360,-8.61,-4.03,3.71,0.23,-0.24,-0.08,-32.45,-11.68,34.12
14371,-8.61,-4.03,3.71,0.23,-0.24,-0.08,-32.45,-11.68,34.12
14382,-8.81,-3.67,3.57,0.08,-0.09,-0.19,-32.45,-11.68,34.12
14393,-8.81,-3.67,3.57,0.08,-0.09,-0.19,-32.45,-11.68,34.12
14404,-8.77,-3.56,3.79,-0.04,0.04,-0.19,-32.66,-12.81,33.96
14415,-8.72,-3.78,3.93,-0.05,0.15,-0.18,-32.66,-12.81,33.96
14426,-8.72,-3.78,3.93,-0.05,0.15,-0.18,-32.66,-12.81,33.96
14437,-8.58,-4.16,4.64,-0.14,0.28,-0.10,-32.66,-12.81,33.96
14448,-8.58,-4.16,4.64,-0.14,0.28,-0.10,-32.66,-12.81,33.96
14459,-8.51,-3.99,3.83,-0.25,0.40,0.06,-32.66,-12.81,33.96
14470,-8.51,-3.99,3.83,-0.25,0.40,0.06,-32.66,-12.81,33.96
14481,-7.93,-4.15,3.05,-0.21,0.39,0.21,-32.66,-12.81,33.96
14492,-7.93,-4.15,3.05,-0.21,0.39,0.21,-32.66,-12.81,33.96
14503,-7.83,-3.80,3.57,-0.14,0.21,0.32,-32.66,-12.81,33.96
14514,-7.83,-3.80,3.57,-0.14,0.21,0.32,-32.66,-12.81,33.96
14525,-7.97,-4.03,3.60,-0.05,0.06,0.27,-32.66,-12.81,33.96
14536,-8.16,-4.21,2.51,-0.02,-0.10,0.22,-34.28,-13.13,33.29
14552,-8.16,-4.21,2.51,-0.02,-0.10,0.22,-34.28,-13.13,33.29
14558,-8.34,-4.36,3.24,0.11,-0.27,0.15,-34.28,-13.13,33.29
14569,-8.34,-4.36,3.24,0.11,-0.27,0.15,-34.28,-13.13,33.29
14580,-8.26,-4.25,2.62,0.24,-0.25,0.04,-34.28,-13.13,33.29
14591,-8.26,-4.25,2.62,0.24,-0.25,0.04,-34.28,-13.13,33.29
14602,-8.77,-4.17,3.16,0.20,-0.25,-0.07,-34.28,-13.13,33.29
14613,-8.77,-4.17,3.16,0.20,-0.25,-0.07,-34.28,-13.13,33.29
14624,-8.73,-3.64,3.71,0.03,-0.17,-0.12,-34.28,-13.13,33.29
14635,-8.71,-3.43,4.39,-0.09,-0.04,-0.15,-34.28,-13.13,33.29
14646,-8.71,-3.43,4.39,-0.09,-0.04,-0.15,-34.28,-13.13,33.29
14657,-8.72,-3.38,4.09,-0.23,0.13,-0.13,-34.08,-12.00,33.79
14668,-8.72,-3.38,4.09,-0.23,0.13,-0.13,-34.08,-12.00,33.79
14679,-8.51,-4.04,4.29,-0.23,0.22,-0.04,-34.08,-12.00,33.79
14690,-8.51,-4.04,4.29,-0.23,0.22,-0.04,-34.08,-12.00,33.79
14701,-8.15,-3.87,3.47,-0.17,0.25,0.12,-34.08,-12.00,33.79
14712,-8.15,-3.87,3.47,-0.17,0.25,0.12,-34.08,-12.00,33.79
14723,-7.89,-3.43,3.05,-0.06,0.10,0.23,-34.08,-12.00,33.79
14734,-7.89,-3.43,3.05,-0.06,0.10,0.23,-34.08,-12.00,33.79
14745,-7.86,-3.78,3.05,0.04,-0.15,0.21,-34.08,-12.00,33.79
14756,-7.71,-4.93,3.62,-0.00,-0.30,0.15,-34.08,-12.00,33.79
14767,-7.71,-4.93,3.62,-0.00,-0.30,0.15,-34.08,-12.00,33.79
14778,-8.48,-4.28,2.44,-0.04,-0.18,0.13,-33.67,-11.35,32.45
14789,-8.48,-4.28,2.44,-0.04,-0.18,0.13,-33.67,-11.35,32.45
14800,-8.49,-3.69,2.42,0.03,-0.12,0.00,-33.67,-11.35,32.45
14811,-8.49,-3.69,2.42,0.03,-0.12,0.00,-33.67,-11.35,32.45
14822,-8.81,-3.43,4.07,-0.01,-0.13,-0.09,-33.67,-11.35,32.45
14833,-8.81,-3.43,4.07,-0.01,-0.13,-0.09,-33.67,-11.35,32.45
14844,-8.65,-3.79,3.76,-0.12,0.05,-0.17,-33.67,-11.35,32.45
14855,-8.43,-3.39,3.49,-0.14,0.09,-0.11,-33.67,-11.35,32.45
14866,-8.43,-3.39,3.49,-0.14,0.09,-0.11,-33.67,-11.35,32.45
14877,-8.66,-3.59,4.49,-0.15,0.05,-0.06,-33.67,-11.35,32.45
14888,-8.66,-3.59,4.49,-0.15,0.05,-0.06,-33.67,-11.35,32.45
14900,-8.61,-3.64,3.25,-0.22,0.14,0.01,-33.67,-11.35,32.45
14910,-8.61,-3.64,3.25,-0.22,0.14,0.01,-33.67,-11.35,32.45
14921,-8.49,-3.99,3.18,-0.22,0.05,0.13,-31.84,-11.19,33.29
14932,-8.49,-3.99,3.18,-0.22,0.05,0.13,-31.84,-11.19,33.29
14943,-8.47,-4.52,3.56,-0.24,0.02,0.20,-31.84,-11.19,33.29
14954,-8.47,-4.52,3.56,-0.24,0.02,0.20,-31.84,-11.19,33.29
14970,-8.02,-4.73,2.53,-0.24,0.14,0.19,-31.84,-11.19,33.29
14976,-7.93,-4.43,2.13,-0.13,0.12,0.14,-31.84,-11.19,33.29
14987,-7.93,-4.43,2.13,-0.13,0.12,0.14,-31.84,-11.19,33.29
14998,-8.03,-4.11,3.23,0.07,0.01,0.06,-31.84,-11.19,33.29
15009,-8.03,-4.11,3.23,0.07,0.01,0.06,-31.84,-11.19,33.29
15020,-8.16,-3.53,3.35,0.19,-0.04,-0.02,-31.84,-11.19,33.29
15031,-8.16,-3.53,3.35,0.19,-0.04,-0.02,-31.84,-11.19,33.29
15042,-8.83,-2.83,4.22,0.26,-0.14,-0.08,-32.66,-12.48,32.95
15053,-8.83,-2.83,4.22,0.26,-0.14,-0.08,-32.66,-12.48,32.95
15064,-9.09,-2.30,4.49,0.16,-0.10,-0.09,-32.66,-12.48,32.95
15075,-11.10,-0.96,4.49,-0.06,-0.13,-0.06,-32.66,-12.48,32.95
15086,-11.10,-0.96,4.49,-0.06,-0.13,-0.06,-32.66,-12.48,32.95
15097,-8.02,-4.76,4.93,-0.58,-0.22,-0.44,-32.66,-12.48,32.95
15108,-8.02,-4.76,4.93,-0.58,-0.22,-0.44,-32.66,-12.48,32.95
15119,-7.08,-1.94,3.35,-0.66,-0.19,-0.06,-32.66,-12.48,32.95
15130,-7.08,-1.94,3.35,-0.66,-0.19,-0.06,-32.66,-12.48,32.95
15141,-8.15,-3.98,4.88,-0.55,-0.19,0.13,-32.66,-12.48,32.95
15152,-8.15,-3.98,4.88,-0.55,-0.19,0.13,-32.66,-12.48,32.95
15163,-8.24,-4.67,2.08,-0.53,0.01,0.15,-32.45,-12.32,33.79
15174,-8.24,-4.67,2.08,-0.53,0.01,0.15,-32.45,-12.32,33.79
15185,-7.45,-6.09,1.95,-0.39,-0.05,0.05,-32.45,-12.32,33.79
15201,-7.50,-6.69,1.50,-0.15,0.03,-0.04,-32.45,-12.32,33.79
15207,-7.50,-6.69,1.50,-0.15,0.03,-0.04,-32.45,-12.32,33.79
15218,-7.05,-7.69,0.92,0.11,0.19,-0.21,-32.45,-12.32,33.79
15229,-7.05,-7.69,0.92,0.11,0.19,-0.21,-32.45,-12.32,33.79
15240,-8.22,-4.05,1.53,0.50,0.06,-0.04,-32.45,-12.32,33.79
15251,-8.22,-4.05,1.53,0.50,0.06,-0.04,-32.45,-12.32,33.79
15262,-9.25,-2.83,4.96,0.60,-0.23,-0.04,-32.45,-12.32,33.79
15273,-9.25,-2.83,4.96,0.60,-0.23,-0.04,-32.45,-12.32,33.79
15284,-9.01,-2.33,5.40,0.32,-0.13,-0.14,-32.45,-12.32,33.79
15295,-8.41,-3.24,4.28,0.04,0.02,-0.23,-33.26,-12.32,33.79
15306,-8.41,-3.24,4.28,0.04,0.02,-0.23,-33.26,-12.64,32.79
15317,-8.06,-4.66,3.23,-0.04,0.06,-0.21,-33.26,-12.64,32.79
15328,-8.06,-4.66,3.23,-0.04,0.06,-0.21,-33.26,-12.64,32.79
15339,-7.81,-5.09,2.50,0.05,0.07,-0.05,-33.26,-12.64,32.79
15350,-7.81,-5.09,2.50,0.05,0.07,-0.05,-33.26,-12.64,32.79
15361,-8.53,-4.67,3.10,0.08,-0.03,0.02,-33.26,-12.64,32.79
15372,-8.53,-4.67,3.10,0.08,-0.03,0.02,-33.26,-12.64,32.79
15383,-8.74,-3.61,3.59,0.05,-0.07,-0.01,-33.26,-12.64,32.79
15394,-8.74,-3.61,3.59,0.05,-0.07,-0.01,-33.26,-12.64,32.79
15405,-8.71,-4.05,4.46,-0.00,0.04,-0.09,-33.26,-12.64,32.79
15416,-8.80,-3.60,3.83,-0.17,0.24,-0.10,-31.44,-14.42,33.96
15427,-8.80,-3.60,3.83,-0.17,0.24,-0.10,-31.44,-14.42,33.96
15438,-8.48,-3.71,3.99,-0.07,0.37,-0.02,-31.44,-14.42,33.96
15449,-8.48,-3.71,3.99,-0.07,0.37,-0.02,-31.44,-14.42,33.96
15460,-8.27,-3.98,4.05,0.03,0.35,0.10,-31.44,-14.42,33.96
15471,-8.27,-3.98,4.05,0.03,0.35,0.10,-31.44,-14.42,33.96
15483,-8.12,-3.95,2.95,0.01,0.15,0.22,-31.44,-14.42,33.96
15493,-8.12,-3.95,2.95,0.01,0.15,0.22,-31.44,-14.42,33.96
15504,-7.73,-4.77,2.56,0.07,-0.14,0.21,-31.44,-14.42,33.96
15515,-7.73,-4.77,2.56,0.07,-0.14,0.21,-31.44,-14.42,33.96
15526,-8.03,-5.11,2.32,0.08,-0.25,0.17,-31.44,-14.42,33.96
15537,-8.38,-4.60,2.35,0.17,-0.28,0.12,-31.84,-13.13,34.29
15548,-8.38,-4.60,2.35,0.17,-0.28,0.12,-31.84,-13.13,34.29
15559,-8.72,-3.33,3.68,0.12,-0.28,0.07,-31.84,-13.13,34.29
15570,-8.72,-3.33,3.68,0.12,-0.28,0.07,-31.84,-13.13,34.29
15581,-8.84,-2.92,4.57,-0.10,-0.15,-0.04,-31.84,-13.13,34.29
15592,-8.84,-2.92,4.57,-0.10,-0.15,-0.04,-31.84,-13.13,34.29
15603,-8.66,-3.46,4.48,-0.25,0.02,-0.10,-31.84,-13.13,34.29
15614,-8.66,-3.46,4.48,-0.25,0.02,-0.10,-31.84,-13.13,34.29
15625,-8.73,-3.92,3.82,-0.29,0.19,-0.09,-31.84,-13.13,34.29
15636,-8.36,-3.88,3.66,-0.21,0.22,0.09,-31.84,-13.13,34.29
15647,-8.36,-3.88,3.66,-0.21,0.22,0.09,-31.84,-13.13,34.29
15658,-7.85,-4.29,2.81,-0.17,0.12,0.19,-32.86,-13.94,33.12
15669,-7.85,-4.29,2.81,-0.17,0.12,0.19,-32.86,-13.94,33.12
15680,-8.07,-4.32,3.03,-0.11,-0.09,0.27,-32.86,-13.94,33.12
15691,-8.07,-4.32,3.03,-0.11,-0.09,0.27,-32.86,-13.94,33.12
15702,-8.16,-4.77,2.59,-0.09,-0.17,0.21,-32.86,-13.94,33.12
15713,-8.16,-4.77,2.59,-0.09,-0.17,0.21,-32.86,-13.94,33.12
15724,-8.10,-4.84,1.48,0.12,-0.14,0.11,-32.86,-13.94,33.12
15735,-8.10,-4.84,1.48,0.12,-0.14,0.11,-32.86,-13.94,33.12
15746,-8.12,-4.05,2.49,0.35,-0.29,0.05,-32.86,-13.94,33.12
15757,-8.97,-3.44,4.48,0.45,-0.31,-0.11,-32.86,-13.94,33.12
15768,-8.97,-3.44,4.48,0.45,-0.31,-0.11,-32.86,-13.94,33.12
15779,-8.87,-2.44,4.04,0.29,-0.11,-0.16,-32.86,-13.94,33.12
15790,-8.87,-2.44,4.04,0.29,-0.11,-0.16,-32.86,-13.94,33.12
15801,-8.96,-2.80,5.10,0.18,-0.03,-0.19,-30.02,-10.38,34.46
15812,-8.96,-2.80,5.10,0.18,-0.03,-0.19,-30.02,-10.38,34.46
15823,-9.23,-3.60,4.13,0.05,0.19,-0.22,-30.02,-10.38,34.46
15834,-9.23,-3.60,4.13,0.05,0.19,-0.22,-30.02,-10.38,34.46
15845,-9.07,-3.23,2.72,-0.28,-0.03,-0.40,-30.02,-10.38,34.46
15856,-6.55,-4.97,4.88,-0.41,-0.34,-0.55,-30.02,-10.38,34.46
15867,-6.55,-4.97,4.88,-0.41,-0.34,-0.55,-30.02,-10.38,34.46
15878,-6.26,-6.27,2.91,-0.34,0.02,-0.33,-30.02,-10.38,34.46
15889,-6.26,-6.27,2.91,-0.34,0.02,-0.33,-30.02,-10.38,34.46
15900,-6.76,-5.87,1.91,-0.01,0.21,-0.06,-30.02,-10.38,34.46
15911,-6.76,-5.87,1.91,-0.01,0.21,-0.06,-30.02,-10.38,34.46
15922,-8.32,-4.39,2.60,0.37,0.15,0.20,-31.84,-14.10,32.29
15933,-8.32,-4.39,2.60,0.37,0.15,0.20,-31.84,-14.10,32.29
15944,-8.77,-3.12,4.02,0.45,0.01,0.27,-31.84,-14.10,32.29
15955,-8.77,-3.12,4.02,0.45,0.01,0.27,-31.84,-14.10,32.29
15966,-9.68,-2.01,3.54,0.21,-0.07,0.21,-31.84,-14.10,32.29
15977,-8.60,-3.36,4.80,-0.07,-0.10,0.03,-31.84,-14.10,32.29
15988,-8.60,-3.36,4.80,-0.07,-0.10,0.03,-31.84,-14.10,32.29
15999,-8.36,-4.08,3.58,-0.27,-0.01,0.03,-31.84,-14.10,32.29
16010,-8.36,-4.08,3.58,-0.27,-0.01,0.03,-31.84,-14.10,32.29
16021,-8.17,-4.17,2.82,-0.28,-0.09,0.12,-31.84,-14.10,32.29
16032,-8.17,-4.17,2.82,-0.28,-0.09,0.12,-31.84,-14.10,32.29
16043,-8.56,-4.18,3.94,-0.35,-0.16,0.18,-31.44,-13.45,32.29
16054,-8.56,-4.18,3.94,-0.35,-0.16,0.18,-31.44,-13.45,32.29
16065,-8.74,-3.75,3.77,-0.49,-0.06,0.20,-31.44,-13.45,32.29
16076,-8.60,-3.28,3.73,-0.43,0.05,0.19,-31.44,-13.45,32.29
16087,-8.60,-3.28,3.73,-0.43,0.05,0.19,-31.44,-13.45,32.29
16098,-8.27,-3.08,3.62,-0.27,0.17,0.10,-31.44,-13.45,32.29
16109,-8.27,-3.08,3.62,-0.27,0.17,0.10,-31.44,-13.45,32.29
16120,-8.20,-4.05,3.74,-0.14,0.22,-0.04,-31.44,-13.45,32.29
16131,-8.20,-4.05,3.74,-0.14,0.22,-0.04,-31.44,-13.45,32.29
16142,-9.28,-3.57,1.76,-0.10,0.04,-0.11,-31.44,-13.45,32.29
16153,-9.28,-3.57,1.76,-0.10,0.04,-0.11,-31.44,-13.45,32.29
16164,-6.65,-5.25,3.63,-0.13,-0.42,-0.34,-31.44,-13.45,32.29
16175,-6.65,-5.25,3.63,-0.13,-0.42,-0.34,-31.44,-13.45,32.29
16186,-7.22,-5.30,3.81,0.01,-0.29,-0.19,-31.24,-14.58,33.12
16197,-7.37,-4.76,3.31,-0.03,-0.02,-0.00,-31.24,-14.58,33.12
16208,-7.37,-4.76,3.31,-0.03,-0.02,-0.00,-31.24,-14.58,33.12
16219,-8.72,-3.76,3.51,-0.01,0.10,0.23,-31.24,-14.58,33.12
16230,-8.72,-3.76,3.51,-0.01,0.10,0.23,-31.24,-14.58,33.12
16241,-9.04,-3.44,4.51,-0.12,-0.01,0.13,-31.24,-14.58,33.12
16252,-9.04,-3.44,4.51,-0.12,-0.01,0.13,-31.24,-14.58,33.12
16263,-8.73,-3.84,3.09,-0.18,0.03,0.02,-31.24,-14.58,33.12
16274,-8.73,-3.84,3.09,-0.18,0.03,0.02,-31.24,-14.58,33.12
16285,-8.62,-4.37,3.26,-0.08,0.04,0.08,-31.24,-14.58,33.12
16296,-8.37,-3.97,3.68,-0.03,0.01,0.24,-31.03,-13.45,33.12
16307,-8.37,-3.97,3.68,-0.03,0.01,0.24,-31.03,-13.45,33.29
16318,-8.34,-4.22,4.13,-0.10,0.08,0.26,-31.03,-13.45,33.29
16329,-8.34,-4.22,4.13,-0.10,0.08,0.26,-31.03,-13.45,33.29
16340,-8.07,-3.83,3.03,-0.18,0.18,0.26,-31.03,-13.45,33.29
16351,-8.07,-3.83,3.03,-0.18,0.18,0.26,-31.03,-13.45,33.29
16362,-7.53,-4.54,2.67,-0.10,0.12,0.17,-31.03,-13.45,33.29
16373,-7.53,-4.54,2.67,-0.10,0.12,0.17,-31.03,-13.45,33.29
16384,-7.96,-4.60,3.02,0.11,-0.00,0.07,-31.03,-13.45,33.29
16395,-7.96,-4.60,3.02,0.11,-0.00,0.07,-31.03,-13.45,33.29
16406,-8.08,-3.47,3.23,0.18,-0.11,0.08,-31.03,-13.45,33.29
16417,-8.61,-3.17,4.08,0.20,-0.20,-0.02,-32.66,-12.81,31.62
16428,-8.61,-3.17,4.08,0.20,-0.20,-0.02,-32.66,-12.81,31.62
16439,-8.82,-3.26,4.00,0.05,-0.16,-0.08,-32.66,-12.81,31.62
16450,-8.82,-3.26,4.00,0.05,-0.16,-0.08,-32.66,-12.81,31.62
16461,-8.97,-3.60,3.89,-0.19,-0.10,-0.05,-32.66,-12.81,31.62
16472,-8.97,-3.60,3.89,-0.19,-0.10,-0.05,-32.66,-12.81,31.62
16483,-8.46,-4.04,3.39,-0.29,-0.07,0.01,-32.66,-12.81,31.62
16494,-8.46,-4.04,3.39,-0.29,-0.07,0.01,-32.66,-12.81,31.62
16505,-7.64,-4.95,3.87,-0.28,-0.00,0.06,-32.66,-12.81,31.62
16516,-7.64,-4.95,3.87,-0.28,-0.00,0.06,-32.66,-12.81,31.62
16527,-8.16,-4.81,3.29,-0.23,0.10,0.14,-32.66,-12.81,31.62
16538,-8.26,-3.74,3.55,-0.14,0.01,0.19,-32.66,-12.81,31.62
16549,-8.26,-3.74,3.55,-0.14,0.01,0.19,-32.66,-12.81,31.62
16560,-8.24,-3.94,3.80,-0.07,-0.02,0.16,-32.45,-13.61,32.45
16571,-8.24,-3.94,3.80,-0.07,-0.02,0.16,-32.45,-13.61,32.45
16582,-8.16,-4.31,2.34,-0.06,-0.01,0.08,-32.45,-13.61,32.45
16593,-8.16,-4.31,2.34,-0.06,-0.01,0.08,-32.45,-13.61,32.45
16604,-8.32,-4.01,2.44,0.11,-0.12,0.05,-32.45,-13.61,32.45
16615,-8.32,-4.01,2.44,0.11,-0.12,0.05,-32.45,-13.61,32.45
16626,-8.52,-3.42,3.01,0.18,-0.20,-0.01,-32.45,-13.61,32.45
16637,-8.80,-3.51,4.00,0.13,-0.14,-0.12,-32.45,-13.61,32.45
16648,-8.80,-3.51,4.00,0.13,-0.14,-0.12,-32.45,-13.61,32.45
16659,-8.70,-3.58,4.03,-0.02,0.04,-0.15,-32.45,-13.61,32.45
16670,-8.70,-3.58,4.03,-0.02,0.04,-0.15,-32.45,-13.61,32.45
16681,-8.64,-3.46,4.36,-0.05,0.13,-0.08,-31.64,-12.97,33.46
16692,-8.64,-3.46,4.36,-0.05,0.13,-0.08,-31.64,-12.97,33.46
16703,-8.25,-3.87,3.95,-0.04,0.21,0.03,-31.64,-12.97,33.46
16714,-8.25,-3.87,3.95,-0.04,0.21,0.03,-31.64,-12.97,33.46
16725,-8.02,-3.91,3.22,-0.05,0.15,0.15,-31.64,-12.97,33.46
16736,-8.02,-3.91,3.22,-0.05,0.15,0.15,-31.64,-12.97,33.46
16747,-8.20,-3.58,3.14,0.04,-0.02,0.19,-31.64,-12.97,33.46
16758,-8.63,-3.62,2.90,0.06,-0.17,0.05,-31.64,-12.97,33.46
16769,-8.63,-3.62,2.90,0.06,-0.17,0.05,-31.64,-12.97,33.46
16780,-8.09,-4.49,3.65,-0.02,-0.27,-0.28,-31.64,-12.97,33.46
16791,-8.09,-4.49,3.65,-0.02,-0.27,-0.28,-31.64,-12.97,33.46
16802,-6.77,-5.23,3.50,-0.03,-0.04,-0.42,-33.06,-14.75,32.95
16813,-6.77,-5.23,3.50,-0.03,-0.04,-0.42,-33.06,-14.75,32.95
16824,-7.44,-4.98,2.58,-0.03,0.19,-0.24,-33.06,-14.75,32.95
16835,-7.44,-4.98,2.58,-0.03,0.19,-0.24,-33.06,-14.75,32.95
16846,-8.56,-3.63,2.72,0.17,-0.02,-0.07,-33.06,-14.75,32.95
16857,-9.18,-2.34,6.04,0.24,-0.40,0.01,-33.06,-14.75,32.95
16868,-9.18,-2.34,6.04,0.24,-0.40,0.01,-33.06,-14.75,32.95
16879,-8.96,-3.44,4.56,-0.10,-0.12,0.01,-33.06,-14.75,32.95
16890,-8.96,-3.44,4.56,-0.10,-0.12,0.01,-33.06,-14.75,32.95
16901,-8.65,-3.67,2.37,-0.23,-0.02,0.07,-33.06,-14.75,32.95
16912,-8.65,-3.67,2.37,-0.23,-0.02,0.07,-33.06,-14.75,32.95
16923,-10.07,-3.51,3.50,-0.23,-0.17,0.05,-31.44,-11.84,32.95
16934,-10.07,-3.51,3.50,-0.23,-0.17,0.05,-31.44,-11.84,32.95
16945,-7.03,-4.76,3.75,-0.41,-0.17,-0.11,-31.44,-11.84,32.95
16956,-7.03,-4.76,3.75,-0.41,-0.17,-0.11,-31.44,-11.84,32.95
16967,-6.98,-4.92,3.95,-0.30,-0.03,0.10,-31.44,-11.84,32.95
16978,-7.31,-4.56,3.92,-0.16,0.14,0.29,-31.44,-11.84,32.95
16989,-7.31,-4.56,3.92,-0.16,0.14,0.29,-31.44,-11.84,32.95
17000,-9.63,-2.83,2.49,-0.15,0.19,0.32,-31.44,-11.84,32.95
17012,-9.63,-2.83,2.49,-0.15,0.19,0.32,-31.44,-11.84,32.95
17022,-8.42,-3.42,2.74,-0.14,0.03,0.14,-31.44,-11.84,32.95
17033,-8.42,-3.42,2.74,-0.14,0.03,0.14,-31.44,-11.84,32.95
17044,-8.30,-4.30,2.01,0.06,0.00,0.02,-31.44,-11.84,32.95
17055,-8.30,-4.30,2.01,0.06,0.00,0.02,-31.44,-11.84,32.95
17066,-8.71,-3.97,3.73,0.22,-0.09,-0.05,-32.05,-13.94,32.79
17077,-8.60,-3.05,4.12,0.16,-0.00,-0.09,-32.05,-13.94,32.79
17088,-8.60,-3.05,4.12,0.16,-0.00,-0.09,-32.05,-13.94,32.79
17099,-8.73,-3.14,5.27,0.08,0.03,-0.09,-32.05,-13.94,32.79
17110,-8.73,-3.14,5.27,0.08,0.03,-0.09,-32.05,-13.94,32.79
17121,-8.77,-3.51,4.11,-0.09,0.24,-0.07,-32.05,-13.94,32.79
17132,-8.77,-3.51,4.11,-0.09,0.24,-0.07,-32.05,-13.94,32.79
17143,-8.38,-3.77,2.59,-0.25,0.26,0.05,-32.05,-13.94,32.79
17154,-8.38,-3.77,2.59,-0.25,0.26,0.05,-32.05,-13.94,32.79
17165,-8.50,-4.08,3.60,-0.25,0.08,0.15,-32.05,-13.94,32.79
17176,-8.50,-4.08,3.60,-0.25,0.08,0.15,-32.05,-13.94,32.79
17187,-8.14,-4.92,2.83,-0.31,0.15,0.17,-32.45,-14.26,32.12
17198,-7.87,-4.96,1.72,-0.24,0.16,0.16,-32.45,-14.26,32.12
17209,-7.87,-4.96,1.72,-0.24,0.16,0.16,-32.45,-14.26,32.12
17220,-8.25,-3.80,3.24,-0.04,-0.05,0.18,-32.45,-14.26,32.12
17231,-8.25,-3.80,3.24,-0.04,-0.05,0.18,-32.45,-14.26,32.12
17242,-8.23,-3.76,3.38,0.09,-0.03,-0.01,-32.45,-14.26,32.12
17253,-8.23,-3.76,3.38,0.09,-0.03,-0.01,-32.45,-14.26,32.12
17264,-8.39,-3.24,3.88,0.12,0.01,-0.11,-32.45,-14.26,32.12
17275,-8.39,-3.24,3.88,0.12,0.01,-0.11,-32.45,-14.26,32.12
17286,-8.88,-2.41,4.62,0.04,-0.01,-0.10,-32.45,-14.26,32.12
17297,-9.05,-2.37,4.71,-0.13,0.13,-0.23,-32.86,-13.61,32.79
17308,-9.05,-2.37,4.71,-0.13,0.13,-0.23,-32.86,-13.61,32.79
17319,-10.44,-1.97,2.77,-0.31,0.25,-0.33,-32.86,-13.61,32.79
17330,-10.44,-1.97,2.77,-0.31,0.25,-0.33,-32.86,-13.61,32.79
17341,-8.46,-3.77,5.38,-0.65,-0.05,-0.71,-32.86,-13.61,32.79
17352,-8.46,-3.77,5.38,-0.65,-0.05,-0.71,-32.86,-13.61,32.79
17363,-7.82,-4.74,3.47,-0.90,0.27,-0.85,-32.86,-13.61,32.79
17374,-7.82,-4.74,3.47,-0.90,0.27,-0.85,-32.86,-13.61,32.79
17385,-8.05,-4.81,3.37,-0.92,0.41,-0.78,-32.86,-13.61,32.79
17396,-8.05,-4.81,3.37,-0.92,0.41,-0.78,-32.86,-13.61,32.79
17407,-8.47,-4.12,3.80,-0.94,0.47,-0.76,-32.86,-13.61,32.79
17418,-8.04,-4.80,3.33,-1.03,0.53,-0.86,-32.86,-13.61,32.79
17429,-8.04,-4.80,3.33,-1.03,0.53,-0.86,-32.86,-13.61,32.79
17440,-6.91,-5.75,2.19,-0.90,0.58,-0.79,-33.47,-19.92,28.61
17451,-6.91,-5.75,2.19,-0.90,0.58,-0.79,-33.47,-19.92,28.61
17462,-6.90,-5.37,1.43,-0.50,0.55,-0.49,-33.47,-19.92,28.61
17473,-6.90,-5.37,1.43,-0.50,0.55,-0.49,-33.47,-19.92,28.61
17484,-8.21,-4.78,2.41,-0.08,0.31,-0.24,-33.47,-19.92,28.61
17495,-8.21,-4.78,2.41,-0.08,0.31,-0.24,-33.47,-19.92,28.61
17506,-7.85,-5.06,2.16,0.08,0.23,-0.20,-33.47,-19.92,28.61
17517,-7.94,-5.20,1.86,0.11,0.25,-0.10,-33.47,-19.92,28.61
17528,-7.94,-5.20,1.86,0.11,0.25,-0.10,-33.47,-19.92,28.61
17539,-7.81,-5.88,1.22,0.19,0.33,-0.04,-33.47,-19.92,28.61
17550,-7.81,-5.88,1.22,0.19,0.33,-0.04,-33.47,-19.92,28.61
17561,-7.99,-5.40,0.05,0.36,0.32,0.08,-35.09,-19.27,28.28
17572,-7.99,-5.40,0.05,0.36,0.32,0.08,-35.09,-19.27,28.28
17583,-8.50,-5.62,1.06,0.53,0.15,0.07,-35.09,-19.27,28.28
17594,-8.50,-5.62,1.06,0.53,0.15,0.07,-35.09,-19.27,28.28
17605,-8.15,-5.89,0.97,0.50,0.17,-0.02,-35.09,-19.27,28.28
17616,-8.15,-5.89,0.97,0.50,0.17,-0.02,-35.09,-19.27,28.28
17627,-7.77,-6.34,0.54,0.50,0.24,-0.10,-35.09,-19.27,28.28
17638,-7.51,-6.40,0.83,0.54,0.25,-0.11,-35.09,-19.27,28.28
17649,-7.51,-6.40,0.83,0.54,0.25,-0.11,-35.09,-19.27,28.28
17660,-8.22,-5.04,2.23,0.62,0.14,-0.02,-35.09,-19.27,28.28
17671,-8.22,-5.04,2.23,0.62,0.14,-0.02,-35.09,-19.27,28.28
17682,-8.22,-4.97,3.57,0.57,0.10,-0.05,-32.66,-19.92,27.61
17693,-8.22,-4.97,3.57,0.57,0.10,-0.05,-32.66,-19.92,27.61
17704,-7.95,-4.88,2.76,0.43,0.27,-0.02,-32.66,-19.92,27.61
17715,-7.95,-4.88,2.76,0.43,0.27,-0.02,-32.66,-19.92,27.61
17726,-8.41,-4.71,2.00,0.47,0.31,0.00,-32.66,-19.92,27.61
17737,-8.41,-4.71,2.00,0.47,0.31,0.00,-32.66,-19.92,27.61
17748,-8.35,-4.62,2.66,0.50,0.21,0.00,-32.66,-19.92,27.61
17759,-8.48,-4.72,2.36,0.41,0.21,0.00,-32.66,-19.92,27.61
17770,-8.48,-4.72,2.36,0.41,0.21,0.00,-32.66,-19.92,27.61
17781,-8.32,-5.02,1.99,0.35,0.18,-0.00,-32.66,-19.92,27.61
17792,-8.32,-5.02,1.99,0.35,0.18,-0.00,-32.66,-19.92,27.61
17803,-8.51,-4.91,2.36,0.28,0.10,-0.01,-32.66,-19.92,27.61
17814,-8.51,-4.91,2.36,0.28,0.10,-0.01,-32.66,-19.92,27.61
17825,-8.35,-4.76,3.00,0.14,0.00,-0.05,-34.28,-17.01,28.28
17836,-8.35,-4.76,3.00,0.14,0.00,-0.05,-34.28,-17.01,28.28
17847,-8.14,-5.08,3.15,-0.02,-0.01,-0.09,-34.28,-17.01,28.28
17858,-7.65,-5.69,1.91,-0.11,0.05,-0.05,-34.28,-17.01,28.28
17869,-7.65,-5.69,1.91,-0.11,0.05,-0.05,-34.28,-17.01,28.28
17880,-7.74,-5.35,1.68,-0.01,0.02,0.11,-34.28,-17.01,28.28
17891,-7.74,-5.35,1.68,-0.01,0.02,0.11,-34.28,-17.01,28.28
17902,-8.60,-4.43,2.89,0.12,-0.05,0.17,-34.28,-17.01,28.28
17913,-8.60,-4.43,2.89,0.12,-0.05,0.17,-34.28,-17.01,28.28
17924,-8.51,-3.81,3.05,0.11,-0.06,0.13,-34.28,-17.01,28.28
17935,-8.51,-3.81,3.05,0.11,-0.06,0.13,-34.28,-17.01,28.28
17946,-8.65,-4.16,3.36,0.07,-0.05,0.07,-34.68,-17.65,29.28
17957,-8.65,-4.16,3.36,0.07,-0.05,0.07,-34.68,-17.65,29.28
17968,-8.20,-4.61,2.65,-0.00,0.02,0.01,-34.68,-17.65,29.28
17979,-7.53,-5.50,1.84,0.02,0.02,0.11,-34.68,-17.65,29.28
17990,-7.53,-5.50,1.84,0.02,0.02,0.11,-34.68,-17.65,29.28
18001,-8.09,-4.89,2.01,0.16,-0.05,0.36,-34.68,-17.65,29.28
18012,-8.09,-4.89,2.01,0.16,-0.05,0.36,-34.68,-17.65,29.28
18023,-8.90,-4.42,2.96,0.19,-0.07,0.36,-34.68,-17.65,29.28
18034,-8.90,-4.42,2.96,0.19,-0.07,0.36,-34.68,-17.65,29.28
18045,-8.73,-4.48,2.97,0.04,0.05,0.11,-34.68,-17.65,29.28
18056,-8.73,-4.48,2.97,0.04,0.05,0.11,-34.68,-17.65,29.28
18067,-8.30,-5.29,1.98,-0.07,0.24,-0.11,-35.29,-17.17,28.78
18078,-7.94,-5.14,0.54,0.00,0.27,-0.12,-35.29,-17.17,28.78
18089,-7.94,-5.14,0.54,0.00,0.27,-0.12,-35.29,-17.17,28.78
18100,-8.42,-5.14,2.00,0.30,0.12,-0.02,-35.29,-17.17,28.78
18111,-8.42,-5.14,2.00,0.30,0.12,-0.02,-35.29,-17.17,28.78
18122,-8.78,-4.40,2.37,0.29,0.06,0.03,-35.29,-17.17,28.78
18133,-8.78,-4.40,2.37,0.29,0.06,0.03,-35.29,-17.17,28.78
18144,-8.49,-4.33,2.64,0.34,0.09,-0.01,-35.29,-17.17,28.78
18155,-8.49,-4.33,2.64,0.34,0.09,-0.01,-35.29,-17.17,28.78
18166,-8.44,-4.40,2.78,0.34,0.14,-0.04,-35.29,-17.17,28.78
18177,-8.44,-4.40,2.78,0.34,0.14,-0.04,-35.29,-17.17,28.78
18188,-8.61,-4.26,2.50,0.34,0.19,-0.03,-35.29,-14.58,29.45
18199,-8.27,-4.79,2.72,0.31,0.13,-0.04,-35.29,-14.58,29.45
18210,-8.27,-4.79,2.72,0.31,0.13,-0.04,-35.29,-14.58,29.45
18221,-7.89,-4.98,2.30,0.26,0.15,0.01,-35.29,-14.58,29.45
18232,-7.89,-4.98,2.30,0.26,0.15,0.01,-35.29,-14.58,29.45
18243,-8.13,-4.87,2.02,0.35,0.19,0.05,-35.29,-14.58,29.45
18254,-8.13,-4.87,2.02,0.35,0.19,0.05,-35.29,-14.58,29.45
18265,-7.80,-5.03,2.19,0.41,0.12,0.02,-35.29,-14.58,29.45
18276,-7.80,-5.03,2.19,0.41,0.12,0.02,-35.29,-14.58,29.45
18287,-8.22,-4.78,2.25,0.48,0.11,0.04,-35.29,-14.58,29.45
18298,-8.25,-4.24,2.12,0.44,0.09,-0.00,-35.29,-14.58,29.45
18309,-8.25,-4.24,2.12,0.44,0.09,-0.00,-35.29,-14.58,29.45
18320,-8.34,-4.06,2.74,0.42,-0.04,-0.04,-36.71,-14.10,29.61
18331,-8.34,-4.06,2.74,0.42,-0.04,-0.04,-36.71,-14.10,29.61
18342,-8.84,-3.67,3.30,0.29,-0.18,-0.00,-36.71,-14.10,29.61
18353,-8.84,-3.67,3.30,0.29,-0.18,-0.00,-36.71,-14.10,29.61
18364,-8.60,-3.84,3.07,0.14,-0.19,-0.14,-36.71,-14.10,29.61
18375,-8.60,-3.84,3.07,0.14,-0.19,-0.14,-36.71,-14.10,29.61
18386,-8.42,-4.40,2.58,0.02,-0.23,-0.31,-36.71,-14.10,29.61
18397,-8.42,-4.40,2.58,0.02,-0.23,-0.31,-36.71,-14.10,29.61
18408,-8.97,-4.74,3.54,0.01,-0.29,-0.23,-36.71,-14.10,29.61
18419,-8.76,-4.46,3.59,-0.09,-0.16,-0.06,-36.71,-14.10,29.61
18430,-8.76,-4.46,3.59,-0.09,-0.16,-0.06,-36.71,-14.10,29.61
18441,-8.14,-4.74,2.26,-0.15,-0.01,-0.01,-34.08,-14.58,30.11
18452,-8.14,-4.74,2.26,-0.15,-0.01,-0.01,-34.08,-14.58,30.11
18463,-7.94,-4.93,2.35,-0.07,-0.05,0.07,-34.08,-14.58,30.11
18474,-7.94,-4.93,2.35,-0.07,-0.05,0.07,-34.08,-14.58,30.11
18485,-7.97,-5.01,2.84,0.02,-0.07,0.14,-34.08,-14.58,30.11
18496,-7.97,-5.01,2.84,0.02,-0.07,0.14,-34.08,-14.58,30.11
18507,-8.06,-4.68,2.61,0.09,-0.01,0.23,-34.08,-14.58,30.11
18518,-8.06,-4.66,2.84,0.14,0.01,0.28,-34.08,-14.58,30.11
18529,-8.06,-4.66,2.84,0.14,0.01,0.28,-34.08,-14.58,30.11
18540,-8.50,-4.77,3.04,0.15,0.06,0.35,-34.08,-14.58,30.11
18551,-8.50,-4.77,3.04,0.15,0.06,0.35,-34.08,-14.58,30.11
18562,-9.12,-4.67,3.06,-0.01,0.06,0.27,-34.28,-13.78,30.95
18573,-9.12,-4.67,3.06,-0.01,0.06,0.27,-34.28,-13.78,30.95
18584,-9.24,-3.53,5.19,-0.32,0.21,0.18,-34.28,-13.78,30.95
18595,-9.24,-3.53,5.19,-0.32,0.21,0.18,-34.28,-13.78,30.95
18606,-8.60,-2.26,3.53,-0.37,0.72,0.00,-34.28,-13.78,30.95
18617,-8.60,-2.26,3.53,-0.37,0.72,0.00,-34.28,-13.78,30.95
18628,-10.06,-3.45,1.20,-0.08,0.80,-0.28,-34.28,-13.78,30.95
18639,-10.77,-1.95,0.23,-0.16,0.01,-0.70,-34.28,-13.78,30.95
18650,-10.77,-1.95,0.23,-0.16,0.01,-0.70,-34.28,-13.78,30.95
18661,-6.95,-4.85,4.96,-0.35,-0.83,-1.16,-34.28,-13.78,30.95
18672,-6.95,-4.85,4.96,-0.35,-0.83,-1.16,-34.28,-13.78,30.95
18683,-6.38,-6.53,2.77,-0.43,-0.54,-0.82,-34.28,-13.78,30.95
18694,-6.38,-6.53,2.77,-0.43,-0.54,-0.82,-34.28,-13.78,30.95
18705,-4.84,-6.28,0.51,-0.24,-0.46,-0.12,-34.08,-16.52,29.78
18716,-4.84,-6.28,0.51,-0.24,-0.46,-0.12,-34.08,-16.52,29.78
18727,-7.51,-4.90,3.56,0.20,-0.80,0.51,-34.08,-16.52,29.78
18738,-7.51,-4.90,3.56,0.20,-0.80,0.51,-34.08,-16.52,29.78
18749,-8.13,-6.00,3.92,0.16,-0.45,0.43,-34.08,-16.52,29.78
18760,-7.97,-5.91,1.25,0.12,0.08,0.29,-34.08,-16.52,29.78
18771,-7.97,-5.91,1.25,0.12,0.08,0.29,-34.08,-16.52,29.78
18782,-7.90,-6.56,0.53,0.34,0.25,0.15,-34.08,-16.52,29.78
18793,-7.90,-6.56,0.53,0.34,0.25,0.15,-34.08,-16.52,29.78
18804,-8.40,-3.97,1.60,0.61,0.14,0.30,-34.08,-16.52,29.78
18815,-8.40,-3.97,1.60,0.61,0.14,0.30,-34.08,-16.52,29.78
18826,-9.75,-3.16,4.05,0.70,0.01,0.15,-33.47,-13.78,31.95
18837,-9.75,-3.16,4.05,0.70,0.01,0.15,-33.47,-13.78,31.95
18848,-9.02,-2.90,4.70,0.41,0.02,-0.03,-33.47,-13.78,31.95
18859,-8.39,-4.18,4.16,0.12,0.09,-0.09,-33.47,-13.78,31.95
18870,-8.39,-4.18,4.16,0.12,0.09,-0.09,-33.47,-13.78,31.95
18881,-7.77,-5.09,2.93,-0.02,0.18,-0.01,-33.47,-13.78,31.95
18892,-7.77,-5.09,2.93,-0.02,0.18,-0.01,-33.47,-13.78,31.95
18903,-7.79,-5.22,2.34,0.01,0.19,0.17,-33.47,-13.78,31.95
18914,-7.79,-5.22,2.34,0.01,0.19,0.17,-33.47,-13.78,31.95
18925,-9.15,-3.90,2.84,0.07,0.07,0.28,-33.47,-13.78,31.95
18936,-9.15,-3.90,2.84,0.07,0.07,0.28,-33.47,-13.78,31.95
18947,-8.80,-3.09,3.81,0.05,-0.05,0.26,-36.51,-12.97,30.11
18958,-8.80,-3.09,3.81,0.05,-0.05,0.26,-36.51,-12.97,30.11
18969,-8.16,-4.11,3.29,0.01,-0.07,0.21,-36.51,-12.97,30.11
18980,-8.32,-4.86,2.44,-0.04,-0.13,0.17,-36.51,-12.97,30.11
18991,-8.32,-4.86,2.44,-0.04,-0.13,0.17,-36.51,-12.97,30.11
19002,-8.16,-4.81,1.60,0.15,-0.17,0.12,-36.51,-12.97,30.11
19013,-8.16,-4.81,1.60,0.15,-0.17,0.12,-36.51,-12.97,30.11
19024,-8.42,-3.93,1.99,0.34,-0.30,0.03,-36.51,-12.97,30.11
19035,-8.42,-3.93,1.99,0.34,-0.30,0.03,-36.51,-12.97,30.11
19046,-8.95,-3.76,3.87,0.39,-0.30,-0.15,-36.51,-12.97,30.11
19057,-8.95,-3.76,3.87,0.39,-0.30,-0.15,-36.51,-12.97,30.11
19068,-8.80,-4.01,4.88,0.08,0.01,-0.23,-36.51,-12.97,30.11
19079,-8.89,-3.51,3.76,-0.16,0.28,-0.19,-34.48,-12.00,31.12
19090,-8.89,-3.51,3.76,-0.16,0.28,-0.19,-34.48,-12.00,31.12
19101,-8.69,-3.99,4.17,-0.14,0.37,-0.12,-34.48,-12.00,31.12
19112,-8.69,-3.99,4.17,-0.14,0.37,-0.12,-34.48,-12.00,31.12
19123,-8.26,-4.68,3.76,-0.18,0.41,0.05,-34.48,-12.00,31.12
19134,-8.26,-4.68,3.76,-0.18,0.41,0.05,-34.48,-12.00,31.12
19145,-7.55,-4.14,1.32,-0.12,0.30,0.27,-34.48,-12.00,31.12
19156,-7.55,-4.14,1.32,-0.12,0.30,0.27,-34.48,-12.00,31.12
19167,-7.92,-4.10,1.94,0.21,-0.15,0.32,-34.48,-12.00,31.12
19178,-7.92,-4.10,1.94,0.21,-0.15,0.32,-34.48,-12.00,31.12
19189,-8.35,-4.38,2.55,0.38,-0.41,0.24,-34.48,-12.00,31.12
19200,-8.30,-3.67,3.01,0.40,-0.44,0.14,-34.08,-11.35,31.78
19211,-8.30,-3.67,3.01,0.40,-0.44,0.14,-34.08,-11.35,31.78
19222,-8.60,-3.94,3.54,0.32,-0.35,-0.02,-34.08,-11.35,31.78
19233,-8.60,-3.94,3.54,0.32,-0.35,-0.02,-34.08,-11.35,31.78
19244,-8.73,-3.59,3.50,-0.03,-0.22,-0.08,-34.08,-11.35,31.78
19255,-8.73,-3.59,3.50,-0.03,-0.22,-0.08,-34.08,-11.35,31.78
19266,-8.76,-3.93,3.72,-0.27,-0.10,-0.10,-34.08,-11.35,31.78
19277,-8.76,-3.93,3.72,-0.27,-0.10,-0.10,-34.08,-11.35,31.78
19288,-8.81,-3.78,4.12,-0.36,0.05,-0.07,-34.08,-11.35,31.78
19299,-8.89,-4.12,4.06,-0.33,0.22,0.03,-34.08,-11.35,31.78
19310,-8.89,-4.12,4.06,-0.33,0.22,0.03,-34.08,-11.35,31.78
19321,-8.26,-4.67,3.41,-0.30,0.32,0.18,-34.08,-12.00,31.12
19332,-8.26,-4.67,3.41,-0.30,0.32,0.18,-34.08,-12.00,31.12
19343,-7.69,-3.70,1.55,-0.14,0.18,0.36,-34.08,-12.00,31.12
19354,-7.69,-3.70,1.55,-0.14,0.18,0.36,-34.08,-12.00,31.12
19365,-7.82,-4.31,2.28,0.19,-0.15,0.29,-34.08,-12.00,31.12
19376,-7.82,-4.31,2.28,0.19,-0.15,0.29,-34.08,-12.00,31.12
19387,-8.04,-4.20,2.74,0.33,-0.36,0.17,-34.08,-12.00,31.12
19398,-8.04,-4.20,2.74,0.33,-0.36,0.17,-34.08,-12.00,31.12
19409,-8.25,-4.03,3.46,0.37,-0.38,0.03,-34.08,-12.00,31.12
19420,-8.69,-3.63,3.85,0.21,-0.24,-0.08,-34.08,-12.00,31.12
19431,-8.69,-3.63,3.85,0.21,-0.24,-0.08,-34.08,-12.00,31.12
19442,-8.98,-3.22,3.77,-0.13,-0.10,-0.13,-34.08,-12.00,31.12
19453,-8.98,-3.22,3.77,-0.13,-0.10,-0.13,-34.08,-12.00,31.12
19464,-8.83,-3.55,3.85,-0.31,0.00,-0.12,-34.48,-10.06,32.45
19475,-8.83,-3.55,3.85,-0.31,0.00,-0.12,-34.48,-10.06,32.45
19486,-9.05,-3.88,3.91,-0.31,0.15,-0.08,-34.48,-10.06,32.45
19497,-9.05,-3.88,3.91,-0.31,0.15,-0.08,-34.48,-10.06,32.45
19508,-8.50,-3.99,3.08,-0.23,0.31,0.09,-34.48,-10.06,32.45
19519,-8.26,-3.76,3.04,-0.12,0.23,0.28,-34.48,-10.06,32.45
19530,-8.26,-3.76,3.04,-0.12,0.23,0.28,-34.48,-10.06,32.45
19541,-7.65,-4.13,2.98,0.00,0.07,0.35,-34.48,-10.06,32.45
19552,-7.65,-4.13,2.98,0.00,0.07,0.35,-34.48,-10.06,32.45
19563,-8.03,-4.76,2.15,0.10,-0.14,0.28,-34.48,-10.06,32.45
19574,-8.03,-4.76,2.15,0.10,-0.14,0.28,-34.48,-10.06,32.45
19585,-7.98,-4.53,1.70,0.28,-0.33,0.17,-34.68,-9.90,31.28
19596,-7.98,-4.53,1.70,0.28,-0.33,0.17,-34.68,-9.90,31.28
19607,-8.64,-3.66,3.72,0.40,-0.47,0.06,-34.68,-9.90,31.28
19618,-8.64,-3.66,3.72,0.40,-0.47,0.06,-34.68,-9.90,31.28
19629,-9.07,-3.45,4.90,0.13,-0.32,-0.12,-34.68,-9.90,31.28
19640,-9.11,-2.79,3.69,-0.12,-0.05,-0.14,-34.68,-9.90,31.28
19651,-9.11,-2.79,3.69,-0.12,-0.05,-0.14,-34.68,-9.90,31.28
19662,-9.42,-3.28,3.71,-0.17,0.02,-0.12,-34.68,-9.90,31.28
19673,-9.42,-3.28,3.71,-0.17,0.02,-0.12,-34.68,-9.90,31.28
19684,-9.13,-2.74,3.77,-0.32,0.00,-0.13,-34.68,-9.90,31.28
19695,-9.13,-2.74,3.77,-0.32,0.00,-0.13,-34.68,-9.90,31.28
19706,-7.44,-4.65,4.05,-0.46,-0.02,-0.18,-34.68,-10.54,33.29
19717,-7.44,-4.65,4.05,-0.46,-0.02,-0.18,-34.68,-10.54,33.29
19728,-7.12,-4.93,2.96,-0.37,0.11,0.10,-34.68,-10.54,33.29
19739,-7.12,-4.93,2.96,-0.37,0.11,0.10,-34.68,-10.54,33.29
19750,-9.19,-3.79,2.71,-0.09,0.20,0.36,-34.68,-10.54,33.29
19761,-8.94,-3.20,3.63,-0.06,0.09,0.34,-34.68,-10.54,33.29
19772,-8.94,-3.20,3.63,-0.06,0.09,0.34,-34.68,-10.54,33.29
19783,-8.60,-3.33,3.72,-0.16,0.02,0.25,-34.68,-10.54,33.29
19794,-8.60,-3.33,3.72,-0.16,0.02,0.25,-34.68,-10.54,33.29
19805,-8.27,-3.53,2.58,-0.11,-0.02,0.18,-34.68,-10.54,33.29
19816,-8.27,-3.53,2.58,-0.11,-0.02,0.18,-34.68,-10.54,33.29
19827,-8.37,-4.16,2.85,0.01,-0.19,0.13,-34.28,-11.51,32.29
19838,-8.37,-4.16,2.85,0.01,-0.19,0.13,-34.28,-11.51,32.29
19849,-8.38,-3.94,2.96,0.09,-0.24,0.07,-34.28,-11.51,32.29
19860,-8.52,-3.64,2.83,0.13,-0.21,-0.01,-34.28,-11.51,32.29
19871,-8.52,-3.64,2.83,0.13,-0.21,-0.01,-34.28,-11.51,32.29
19882,-8.95,-3.78,3.35,0.09,-0.18,-0.10,-34.28,-11.51,32.29
19893,-8.95,-3.78,3.35,0.09,-0.18,-0.10,-34.28,-11.51,32.29
19909,-9.06,-3.42,4.22,-0.02,-0.03,-0.12,-34.28,-11.51,32.29
19915,-9.06,-3.42,4.22,-0.02,-0.03,-0.12,-34.28,-11.51,32.29
19926,-8.92,-3.09,4.32,-0.18,0.15,-0.13,-34.28,-11.51,32.29
19937,-8.92,-3.09,4.32,-0.18,0.15,-0.13,-34.28,-11.51,32.29
19948,-8.70,-3.82,4.35,-0.19,0.29,-0.08,-34.28,-11.51,32.29
19959,-8.70,-3.82,4.35,-0.19,0.29,-0.08,-34.28,-11.51,32.29
19970,-8.34,-4.05,3.50,-0.21,0.34,0.09,-32.05,-10.71,32.45
19981,-7.87,-3.78,2.43,-0.12,0.21,0.24,-32.05,-10.71,32.45
19992,-7.87,-3.78,2.43,-0.12,0.21,0.24,-32.05,-10.71,32.45
20003,-7.97,-3.97,2.55,0.11,-0.13,0.28,-32.05,-10.71,32.45
20014,-7.97,-3.97,2.55,0.11,-0.13,0.28,-32.05,-10.71,32.45
20025,-8.22,-3.71,3.79,0.14,-0.42,0.23,-32.05,-10.71,32.45
20036,-8.22,-3.71,3.79,0.14,-0.42,0.23,-32.05,-10.71,32.45
20047,-8.09,-4.00,3.93,0.01,-0.41,0.14,-32.05,-10.71,32.45
20058,-8.09,-4.00,3.93,0.01,-0.41,0.14,-32.05,-10.71,32.45
20069,-8.69,-4.36,2.55,-0.04,-0.23,0.07,-32.05,-10.71,32.45
20080,-8.89,-3.34,2.87,-0.11,-0.17,-0.01,-33.26,-10.06,32.45
20091,-8.89,-3.34,2.87,-0.11,-0.17,-0.01,-33.26,-10.06,32.45
20102,-9.30,-2.95,4.00,-0.17,-0.08,-0.12,-33.26,-10.06,32.45
20113,-9.30,-2.95,4.00,-0.17,-0.08,-0.12,-33.26,-10.06,32.45
20124,-9.14,-3.46,3.68,-0.25,0.17,-0.22,-33.26,-10.06,32.45
20135,-9.14,-3.46,3.68,-0.25,0.17,-0.22,-33.26,-10.06,32.45
20146,-8.84,-3.34,3.69,-0.28,0.32,-0.11,-33.26,-10.06,32.45
20157,-8.84,-3.34,3.69,-0.28,0.32,-0.11,-33.26,-10.06,32.45
20168,-8.60,-3.57,4.47,-0.28,0.33,0.07,-33.26,-10.06,32.45
20179,-8.60,-3.57,4.47,-0.28,0.33,0.07,-33.26,-10.06,32.45
20190,-8.13,-3.22,3.24,-0.25,0.32,0.24,-33.26,-10.06,32.45
20201,-8.40,-2.72,2.18,-0.09,0.02,0.28,-34.28,-11.19,31.95
20212,-8.40,-2.72,2.18,-0.09,0.02,0.28,-34.28,-11.19,31.95
20223,-10.57,-0.83,4.48,-0.08,-0.47,0.22,-34.28,-11.19,31.95
20234,-10.57,-0.83,4.48,-0.08,-0.47,0.22,-34.28,-11.19,31.95
20245,-9.42,-1.96,5.37,-0.48,-0.62,-0.23,-34.28,-11.19,31.95
20256,-9.42,-1.96,5.37,-0.48,-0.62,-0.23,-34.28,-11.19,31.95
20267,-7.12,-3.68,3.33,-0.66,-0.37,-0.49,-34.28,-11.19,31.95
20278,-7.12,-3.68,3.33,-0.66,-0.37,-0.49,-34.28,-11.19,31.95
20289,-7.66,-5.46,2.19,-0.49,-0.17,-0.43,-34.28,-11.19,31.95
20300,-7.96,-5.70,1.87,-0.24,-0.02,-0.30,-34.28,-11.19,31.95
20311,-7.96,-5.70,1.87,-0.24,-0.02,-0.30,-34.28,-11.19,31.95
20322,-7.69,-6.03,1.99,-0.04,0.16,-0.40,-34.28,-11.19,31.95
20333,-7.69,-6.03,1.99,-0.04,0.16,-0.40,-34.28,-11.19,31.95
20345,-6.94,-7.49,1.59,0.22,0.41,-0.56,-33.47,-11.84,32.62
20355,-6.94,-7.49,1.59,0.22,0.41,-0.56,-33.47,-11.84,32.62
20366,-7.58,-5.06,1.67,0.54,0.38,-0.22,-33.47,-11.84,32.62
20377,-7.58,-5.06,1.67,0.54,0.38,-0.22,-33.47,-11.84,32.62
20388,-8.76,-3.23,4.21,0.68,0.13,0.04,-33.47,-11.84,32.62
20399,-8.76,-3.23,4.21,0.68,0.13,0.04,-33.47,-11.84,32.62
20410,-9.43,-2.35,4.97,0.52,0.12,0.04,-33.47,-11.84,32.62
20421,-8.68,-3.24,4.06,0.23,0.17,-0.02,-33.47,-11.84,32.62
20432,-8.68,-3.24,4.06,0.23,0.17,-0.02,-33.47,-11.84,32.62
20443,-8.79,-4.06,3.65,0.03,0.15,0.04,-33.47,-11.84,32.62
20454,-8.79,-4.06,3.65,0.03,0.15,0.04,-33.47,-11.84,32.62
20465,-8.42,-4.42,2.88,-0.12,0.18,0.07,-33.06,-11.84,32.29
20476,-8.42,-4.42,2.88,-0.12,0.18,0.07,-33.06,-11.84,32.29
20487,-8.97,-4.08,3.26,-0.06,0.11,0.17,-33.06,-11.84,32.29
20498,-8.97,-4.08,3.26,-0.06,0.11,0.17,-33.06,-11.84,32.29
20509,-8.17,-3.55,3.68,0.01,0.02,0.29,-33.06,-11.84,32.29
20520,-7.99,-3.82,3.21,0.02,-0.05,0.28,-33.06,-11.84,32.29
20531,-7.99,-3.82,3.21,0.02,-0.05,0.28,-33.06,-11.84,32.29
20542,-8.16,-4.05,2.75,0.03,-0.17,0.25,-33.06,-11.84,32.29
20553,-8.16,-4.05,2.75,0.03,-0.17,0.25,-33.06,-11.84,32.29
20564,-8.08,-4.50,2.43,0.13,-0.29,0.15,-33.06,-11.84,32.29
20575,-8.08,-4.50,2.43,0.13,-0.29,0.15,-33.06,-11.84,32.29
20586,-8.55,-3.77,2.65,0.31,-0.34,0.08,-33.47,-11.84,30.95
20597,-8.55,-3.77,2.65,0.31,-0.34,0.08,-33.47,-11.84,30.95
20608,-8.74,-3.27,3.40,0.29,-0.30,-0.06,-33.47,-11.84,30.95
20619,-8.74,-3.27,3.40,0.29,-0.30,-0.06,-33.47,-11.84,30.95
20630,-9.17,-3.06,4.15,0.01,-0.17,-0.18,-33.47,-11.84,30.95
20641,-8.87,-3.41,4.48,-0.22,0.05,-0.20,-33.47,-11.84,30.95
20652,-8.87,-3.41,4.48,-0.22,0.05,-0.20,-33.47,-11.84,30.95
20663,-8.65,-3.81,4.07,-0.35,0.20,-0.14,-33.47,-11.84,30.95
20674,-8.65,-3.81,4.07,-0.35,0.20,-0.14,-33.47,-11.84,30.95
20685,-8.56,-4.53,4.33,-0.36,0.30,-0.04,-33.47,-11.84,30.95
20696,-8.56,-4.53,4.33,-0.36,0.30,-0.04,-33.47,-11.84,30.95
20707,-8.35,-3.47,3.02,-0.37,0.35,0.19,-33.47,-11.84,30.95
20718,-8.35,-3.47,3.02,-0.37,0.35,0.19,-33.47,-11.84,30.95
20729,-8.05,-3.87,2.94,-0.20,0.21,0.25,-34.68,-11.51,30.95
20740,-8.24,-3.58,2.45,-0.11,-0.02,0.26,-34.68,-11.51,30.95
20751,-8.24,-3.58,2.45,-0.11,-0.02,0.26,-34.68,-11.51,30.95
20762,-8.37,-3.99,2.39,0.01,-0.24,0.21,-34.68,-11.51,30.95
20773,-8.37,-3.99,2.39,0.01,-0.24,0.21,-34.68,-11.51,30.95
20784,-8.48,-3.83,2.71,0.18,-0.31,0.13,-34.68,-11.51,30.95
20795,-8.48,-3.83,2.71,0.18,-0.31,0.13,-34.68,-11.51,30.95
20806,-8.49,-3.38,2.83,0.22,-0.26,-0.01,-34.68,-11.51,30.95
20817,-8.49,-3.38,2.83,0.22,-0.26,-0.01,-34.68,-11.51,30.95
20828,-8.97,-3.42,4.02,0.01,-0.22,-0.12,-34.68,-11.51,30.95
20840,-8.97,-3.42,4.02,0.01,-0.22,-0.12,-34.68,-11.51,30.95
20850,-8.79,-3.38,3.92,-0.18,-0.05,-0.12,-33.26,-12.64,33.46
20861,-8.84,-3.72,4.31,-0.24,0.08,-0.10,-33.26,-12.64,33.46
20872,-8.84,-3.72,4.31,-0.24,0.08,-0.10,-33.26,-12.64,33.46
20883,-8.74,-4.35,3.62,-0.16,0.23,-0.00,-33.26,-12.64,33.46
20894,-8.74,-4.35,3.62,-0.16,0.23,-0.00,-33.26,-12.64,33.46
20905,-8.23,-4.11,3.60,-0.16,0.24,0.16,-33.26,-12.64,33.46
20916,-8.23,-4.11,3.60,-0.16,0.24,0.16,-33.26,-12.64,33.46
20927,-7.95,-3.70,2.47,-0.09,0.12,0.23,-33.26,-12.64,33.46
20938,-7.95,-3.70,2.47,-0.09,0.12,0.23,-33.26,-12.64,33.46
20949,-8.35,-3.63,2.24,0.08,-0.17,0.22,-33.26,-12.64,33.46
20960,-8.35,-3.63,2.24,0.08,-0.17,0.22,-33.26,-12.64,33.46
20971,-8.16,-4.38,3.03,0.13,-0.42,0.06,-32.25,-11.19,31.95
20982,-7.96,-4.13,3.58,0.15,-0.37,-0.02,-32.25,-11.19,31.95
20993,-7.96,-4.13,3.58,0.15,-0.37,-0.02,-32.25,-11.19,31.95
21004,-8.52,-3.68,3.84,0.06,-0.17,-0.08,-32.25,-11.19,31.95
21015,-8.52,-3.68,3.84,0.06,-0.17,-0.08,-32.25,-11.19,31.95
21026,-9.17,-2.84,4.05,-0.15,-0.05,-0.06,-32.25,-11.19,31.95
21037,-9.17,-2.84,4.05,-0.15,-0.05,-0.06,-32.25,-11.19,31.95
21048,-8.87,-3.29,3.64,-0.21,0.05,-0.06,-32.25,-11.19,31.95
21059,-8.87,-3.29,3.64,-0.21,0.05,-0.06,-32.25,-11.19,31.95
21070,-8.78,-3.80,3.11,-0.16,0.08,-0.02,-32.25,-11.19,31.95
21081,-8.79,-4.06,4.00,-0.10,0.09,0.08,-32.86,-11.68,31.45
21092,-8.79,-4.06,4.00,-0.10,0.09,0.08,-32.86,-11.68,31.45
21103,-8.34,-3.80,3.61,-0.17,0.20,0.17,-32.86,-11.68,31.45
21114,-8.34,-3.80,3.61,-0.17,0.20,0.17,-32.86,-11.68,31.45
21125,-8.05,-4.12,3.17,-0.14,0.22,0.14,-32.86,-11.68,31.45
21136,-8.05,-4.12,3.17,-0.14,0.22,0.14,-32.86,-11.68,31.45
21147,-8.29,-3.98,2.95,-0.06,0.12,0.08,-32.86,-11.68,31.45
21158,-8.29,-3.98,2.95,-0.06,0.12,0.08,-32.86,-11.68,31.45
21169,-8.31,-3.68,2.97,-0.02,0.02,0.02,-32.86,-11.68,31.45
21180,-8.31,-3.68,2.97,-0.02,0.02,0.02,-32.86,-11.68,31.45
21191,-8.41,-3.66,2.73,-0.05,-0.09,-0.05,-32.86,-11.68,31.45
21202,-8.62,-3.27,3.54,0.01,-0.23,-0.03,-32.86,-11.68,31.45
21213,-8.62,-3.27,3.54,0.01,-0.23,-0.03,-32.86,-11.68,31.45
21224,-9.07,-3.40,3.96,-0.11,-0.24,-0.02,-32.86,-11.68,32.45
21235,-9.07,-3.40,3.96,-0.11,-0.24,-0.02,-32.86,-11.68,32.45
21246,-8.76,-3.71,3.44,-0.21,-0.13,0.03,-32.86,-11.68,32.45
21257,-8.76,-3.71,3.44,-0.21,-0.13,0.03,-32.86,-11.68,32.45
21268,-9.06,-3.85,3.94,-0.24,-0.01,0.07,-32.86,-11.68,32.45
21279,-9.06,-3.85,3.94,-0.24,-0.01,0.07,-32.86,-11.68,32.45
21290,-8.70,-3.55,3.78,-0.28,0.17,0.16,-32.86,-11.68,32.45
21301,-8.48,-3.54,3.23,-0.23,0.23,0.17,-32.86,-11.68,32.45
21312,-8.48,-3.54,3.23,-0.23,0.23,0.17,-32.86,-11.68,32.45
21323,-8.26,-3.30,1.93,-0.08,0.16,0.14,-32.86,-11.68,32.45
21334,-8.26,-3.30,1.93,-0.08,0.16,0.14,-32.86,-11.68,32.45
21345,-8.61,-3.70,2.30,0.08,-0.12,0.03,-34.28,-12.48,30.95
21356,-8.61,-3.70,2.30,0.08,-0.12,0.03,-34.28,-12.48,30.95
21367,-8.18,-3.78,3.61,0.06,-0.33,-0.05,-34.28,-12.48,30.95
21378,-8.18,-3.78,3.61,0.06,-0.33,-0.05,-34.28,-12.48,30.95
21389,-8.29,-3.79,3.73,0.00,-0.27,-0.08,-34.28,-12.48,30.95
21400,-8.29,-3.79,3.73,0.00,-0.27,-0.08,-34.28,-12.48,30.95
21411,-8.51,-3.56,4.15,-0.15,-0.12,-0.04,-34.28,-12.48,30.95
21422,-8.84,-3.31,3.49,-0.24,0.09,0.00,-34.28,-12.48,30.95
21433,-8.84,-3.31,3.49,-0.24,0.09,0.00,-34.28,-12.48,30.95
21444,-8.76,-3.68,3.03,-0.15,0.13,0.05,-34.28,-12.48,30.95
21455,-8.76,-3.68,3.03,-0.15,0.13,0.05,-34.28,-12.48,30.95
21466,-8.45,-3.73,3.61,-0.06,0.06,0.15,-32.45,-12.32,31.12
21477,-8.45,-3.73,3.61,-0.06,0.06,0.15,-32.45,-12.32,31.12
21488,-8.29,-3.83,3.96,-0.10,0.02,0.19,-32.45,-12.32,31.12
21499,-8.29,-3.83,3.96,-0.10,0.02,0.19,-32.45,-12.32,31.12
21510,-8.39,-3.74,2.98,-0.21,0.02,0.14,-32.45,-12.32,31.12
21521,-8.23,-4.26,2.03,-0.18,0.02,0.05,-32.45,-12.32,31.12
21532,-8.23,-4.26,2.03,-0.18,0.02,0.05,-32.45,-12.32,31.12
21543,-8.61,-3.95,2.04,-0.03,-0.11,-0.02,-32.45,-12.32,31.12
21554,-8.61,-3.95,2.04,-0.03,-0.11,-0.02,-32.45,-12.32,31.12
21565,-8.99,-3.35,2.92,0.11,-0.15,-0.09,-32.45,-12.32,31.12
21576,-8.99,-3.35,2.92,0.11,-0.15,-0.09,-32.45,-12.32,31.12
21587,-9.18,-2.97,4.25,-0.01,-0.03,-0.17,-32.45,-12.32,31.12
21598,-9.18,-2.97,4.25,-0.01,-0.03,-0.17,-32.45,-12.32,31.12
21609,-9.06,-2.77,4.21,-0.22,0.16,-0.17,-32.45,-13.61,30.45
21620,-9.06,-2.77,4.21,-0.22,0.16,-0.17,-32.45,-13.61,30.45
21631,-8.98,-3.44,5.24,-0.39,0.33,-0.11,-32.45,-13.61,30.45
21642,-8.31,-3.80,2.42,-0.51,0.51,0.07,-32.45,-13.61,30.45
21653,-8.31,-3.80,2.42,-0.51,0.51,0.07,-32.45,-13.61,30.45
21664,-7.93,-2.79,2.42,-0.37,0.22,0.23,-32.45,-13.61,30.45
21675,-7.93,-2.79,2.42,-0.37,0.22,0.23,-32.45,-13.61,30.45
21686,-9.75,-1.78,3.95,-0.17,-0.06,-0.01,-32.45,-13.61,30.45
21697,-9.75,-1.78,3.95,-0.17,-0.06,-0.01,-32.45,-13.61,30.45
21708,-12.17,-0.16,4.95,-0.55,-0.23,-0.58,-32.45,-13.61,30.45
21719,-12.17,-0.16,4.95,-0.55,-0.23,-0.58,-32.45,-13.61,30.45
21730,-9.54,-2.42,3.97,-1.21,-0.17,-1.36,-31.64,-13.61,31.12
21741,-8.73,-3.43,1.59,-1.60,-0.18,-1.51,-31.64,-13.61,31.12
21752,-8.73,-3.43,1.59,-1.60,-0.18,-1.51,-31.64,-13.61,31.12
21763,-8.21,-4.25,3.23,-1.79,-0.46,-1.39,-31.64,-13.61,31.12
21774,-8.21,-4.25,3.23,-1.79,-0.46,-1.39,-31.64,-13.61,31.12
21785,-7.63,-5.32,3.20,-1.78,-0.18,-1.14,-31.64,-13.61,31.12
21796,-7.63,-5.32,3.20,-1.78,-0.18,-1.14,-31.64,-13.61,31.12
21807,-7.60,-7.30,1.09,-1.49,0.32,-0.90,-31.64,-13.61,31.12
21818,-7.60,-7.30,1.09,-1.49,0.32,-0.90,-31.64,-13.61,31.12
21829,-7.25,-8.96,-0.96,-0.92,0.52,-0.63,-31.64,-13.61,31.12
21840,-7.25,-8.96,-0.96,-0.92,0.52,-0.63,-31.64,-13.61,31.12
21851,-6.15,-9.80,-1.71,-0.19,0.45,-0.28,-29.61,-22.99,25.44
21862,-5.65,-8.80,-0.86,0.69,0.33,0.14,-29.61,-22.99,25.44
21873,-5.65,-8.80,-0.86,0.69,0.33,0.14,-29.61,-22.99,25.44
21884,-6.13,-6.77,1.80,1.25,0.24,0.45,-29.61,-22.99,25.44
21895,-6.13,-6.77,1.80,1.25,0.24,0.45,-29.61,-22.99,25.44
21906,-6.62,-4.85,3.92,1.24,0.44,0.44,-29.61,-22.99,25.44
21917,-6.62,-4.85,3.92,1.24,0.44,0.44,-29.61,-22.99,25.44
21928,-7.64,-4.39,2.32,1.04,0.72,0.26,-29.61,-22.99,25.44
21939,-7.64,-4.39,2.32,1.04,0.72,0.26,-29.61,-22.99,25.44
21950,-7.11,-5.21,1.04,0.86,0.58,0.09,-29.61,-22.99,25.44
21961,-7.11,-5.21,1.04,0.86,0.58,0.09,-29.61,-22.99,25.44
21972,-7.00,-5.88,1.71,1.12,0.30,0.03,-29.61,-22.99,25.44
21983,-7.38,-5.33,2.98,1.26,0.12,0.05,-31.64,-18.46,28.78
22000,-7.38,-5.33,2.98,1.26,0.12,0.05,-31.64,-18.46,28.78
22005,-6.91,-4.08,4.06,1.10,0.06,0.09,-31.64,-18.46,28.78
22016,-6.91,-4.08,4.06,1.10,0.06,0.09,-31.64,-18.46,28.78
22027,-7.09,-2.91,4.34,0.84,0.13,0.13,-31.64,-18.46,28.78
22038,-7.09,-2.91,4.34,0.84,0.13,0.13,-31.64,-18.46,28.78
22049,-7.89,-1.82,2.90,0.70,0.26,0.21,-31.64,-18.46,28.78
22060,-7.89,-1.82,2.90,0.70,0.26,0.21,-31.64,-18.46,28.78
22071,-8.37,-2.04,2.19,0.57,0.07,0.17,-31.64,-18.46,28.78
22082,-8.76,-3.87,2.88,0.52,-0.06,0.04,-31.64,-18.46,28.78
22093,-8.76,-3.87,2.88,0.52,-0.06,0.04,-31.64,-18.46,28.78
22104,-11.40,-5.78,1.97,0.33,0.01,0.10,-33.67,-13.94,31.78
22115,-11.40,-5.78,1.97,0.33,0.01,0.10,-33.67,-13.94,31.78
22126,-11.81,-5.68,1.26,0.16,-0.15,0.19,-33.67,-13.94,31.78
22137,-11.81,-5.68,1.26,0.16,-0.15,0.19,-33.67,-13.94,31.78
22148,-9.53,-4.96,3.02,0.20,-0.31,-0.09,-33.67,-13.94,31.78
22159,-9.53,-4.96,3.02,0.20,-0.31,-0.09,-33.67,-13.94,31.78
22170,-6.25,-4.77,2.83,0.22,-0.10,-0.35,-33.67,-13.94,31.78
22181,-6.25,-4.77,2.83,0.22,-0.10,-0.35,-33.67,-13.94,31.78
22192,-5.70,-4.59,2.26,0.40,0.15,-0.16,-33.67,-13.94,31.78
22203,-9.05,-5.04,3.22,0.60,0.15,0.12,-33.67,-13.94,31.78
22214,-9.05,-5.04,3.22,0.60,0.15,0.12,-33.67,-13.94,31.78
22225,-11.51,-3.46,4.91,0.63,-0.09,0.07,-34.08,-14.26,30.45
22236,-11.51,-3.46,4.91,0.63,-0.09,0.07,-34.08,-14.26,30.45
22247,-7.46,-3.56,5.15,0.19,-0.20,-0.30,-34.08,-14.26,30.45
22258,-7.46,-3.56,5.15,0.19,-0.20,-0.30,-34.08,-14.26,30.45
22269,-7.48,-4.97,3.23,-0.03,0.04,-0.14,-34.08,-14.26,30.45
22280,-7.48,-4.97,3.23,-0.03,0.04,-0.14,-34.08,-14.26,30.45
22291,-7.86,-5.78,1.95,-0.01,0.18,0.08,-34.08,-14.26,30.45
22302,-7.96,-5.24,1.95,0.13,0.09,0.21,-34.08,-14.26,30.45
22313,-7.96,-5.24,1.95,0.13,0.09,0.21,-34.08,-14.26,30.45
22324,-8.31,-4.25,3.00,0.28,-0.08,0.32,-34.08,-14.26,30.45
22335,-8.31,-4.25,3.00,0.28,-0.08,0.32,-34.08,-14.26,30.45
22346,-8.22,-3.99,4.08,0.29,-0.12,0.37,-34.28,-13.45,31.95
22357,-8.22,-3.99,4.08,0.29,-0.12,0.37,-34.28,-13.45,31.95
22368,-8.18,-4.08,3.89,0.17,0.02,0.42,-34.28,-13.45,31.95
22379,-8.18,-4.08,3.89,0.17,0.02,0.42,-34.28,-13.45,31.95
22390,-8.87,-3.86,3.25,0.02,0.09,0.38,-34.28,-13.45,31.95
22401,-8.87,-3.86,3.25,0.02,0.09,0.38,-34.28,-13.45,31.95
22412,-8.72,-3.32,2.88,0.01,0.01,0.29,-34.28,-13.45,31.95
22423,-8.35,-4.24,3.30,0.07,-0.10,0.16,-34.28,-13.45,31.95
22434,-8.35,-4.24,3.30,0.07,-0.10,0.16,-34.28,-13.45,31.95
22445,-7.79,-4.62,2.25,0.12,-0.11,0.05,-34.28,-13.45,31.95
22456,-7.79,-4.62,2.25,0.12,-0.11,0.05,-34.28,-13.45,31.95
22467,-8.38,-3.96,1.94,0.30,-0.20,-0.05,-34.28,-13.45,31.95
22478,-8.38,-3.96,1.94,0.30,-0.20,-0.05,-34.28,-13.45,31.95
22489,-9.23,-4.09,3.73,0.32,-0.24,-0.18,-36.11,-13.61,31.12
22500,-9.23,-4.09,3.73,0.32,-0.24,-0.18,-36.11,-13.61,31.12
22511,-9.14,-3.15,4.17,0.07,-0.04,-0.20,-36.11,-13.61,31.12
22522,-9.17,-3.18,4.88,-0.18,0.18,-0.23,-36.11,-13.61,31.12
22533,-9.17,-3.18,4.88,-0.18,0.18,-0.23,-36.11,-13.61,31.12
22544,-8.67,-4.07,4.73,-0.26,0.47,-0.18,-36.11,-13.61,31.12
22555,-8.67,-4.07,4.73,-0.26,0.47,-0.18,-36.11,-13.61,31.12
22566,-7.94,-4.57,2.57,-0.30,0.59,0.04,-36.11,-13.61,31.12
22577,-7.94,-4.57,2.57,-0.30,0.59,0.04,-36.11,-13.61,31.12
22588,-7.45,-4.76,1.82,-0.08,0.32,0.25,-36.11,-13.61,31.12
22599,-7.45,-4.76,1.82,-0.08,0.32,0.25,-36.11,-13.61,31.12
22610,-7.80,-4.76,1.82,0.17,-0.06,0.24,-34.89,-11.68,31.78
22621,-7.80,-4.76,1.82,0.17,-0.06,0.24,-34.89,-11.68,31.78
22632,-8.10,-4.32,2.93,0.27,-0.25,0.19,-34.89,-11.68,31.78
22643,-8.62,-3.62,3.20,0.18,-0.27,0.07,-34.89,-11.68,31.78
22654,-8.62,-3.62,3.20,0.18,-0.27,0.07,-34.89,-11.68,31.78
22665,-9.00,-3.62,3.15,0.05,-0.17,-0.03,-34.89,-11.68,31.78
22676,-9.00,-3.62,3.15,0.05,-0.17,-0.03,-34.89,-11.68,31.78
22687,-8.80,-3.29,2.88,-0.07,-0.08,-0.02,-34.89,-11.68,31.78
22698,-8.80,-3.29,2.88,-0.07,-0.08,-0.02,-34.89,-11.68,31.78
22709,-9.28,-3.92,4.03,-0.10,-0.03,-0.03,-34.89,-11.68,31.78
22720,-9.28,-3.92,4.03,-0.10,-0.03,-0.03,-34.89,-11.68,31.78
22731,-9.24,-4.25,4.06,-0.16,0.21,0.09,-33.26,-11.03,31.45
