time,ax,ay,az,gx,gy,gz,mx,my,mz
402,-0.33,6.52,-7.92,-0.02,-0.01,-0.02,-23.32,26.62,-26.86
412,-0.51,6.70,-7.66,-0.16,-0.08,-0.07,-23.32,26.62,-26.86
424,-0.51,6.70,-7.66,-0.16,-0.08,-0.07,-23.32,26.62,-26.86
434,-0.45,6.58,-7.83,0.04,0.03,0.01,-23.32,26.62,-26.86
445,-0.45,6.58,-7.83,0.04,0.03,0.01,-23.32,26.62,-26.86
456,-0.34,6.51,-7.87,0.06,0.04,0.02,-23.32,26.62,-26.86
471,-0.34,6.51,-7.87,0.06,0.04,0.02,-23.32,26.62,-26.86
478,-0.42,6.58,-7.82,-0.08,-0.03,-0.04,-24.34,27.11,-26.02
489,-0.42,6.58,-7.82,-0.08,-0.03,-0.04,-24.34,27.11,-26.02
500,-0.45,6.64,-7.75,-0.04,-0.01,-0.02,-24.34,27.11,-26.02
511,-0.37,6.56,-7.87,0.05,0.03,0.01,-24.34,27.11,-26.02
522,-0.37,6.56,-7.87,0.05,0.03,0.01,-24.34,27.11,-26.02
533,-0.41,6.55,-7.85,-0.03,-0.01,-0.02,-24.34,27.11,-26.02
544,-0.41,6.55,-7.85,-0.03,-0.01,-0.02,-24.34,27.11,-26.02
555,-0.45,6.60,-7.77,-0.04,-0.01,-0.02,-24.34,27.11,-26.02
566,-0.45,6.60,-7.77,-0.04,-0.01,-0.02,-24.34,27.11,-26.02
577,-0.40,6.54,-7.86,0.02,0.02,0.00,-24.34,27.11,-26.02
588,-0.40,6.54,-7.86,0.02,0.02,0.00,-24.34,27.11,-26.02
599,-0.40,6.58,-7.80,-0.02,-0.00,-0.01,-24.95,26.62,-26.52
610,-0.40,6.58,-7.80,-0.02,-0.00,-0.01,-24.95,26.62,-26.52
621,-0.43,6.59,-7.78,-0.03,-0.01,-0.02,-24.95,26.62,-26.52
632,-0.40,6.57,-7.84,0.01,0.01,-0.00,-24.95,26.62,-26.52
643,-0.40,6.57,-7.84,0.01,0.01,-0.00,-24.95,26.62,-26.52
654,-0.41,6.58,-7.84,-0.01,0.00,-0.01,-24.95,26.62,-26.52
665,-0.41,6.58,-7.84,-0.01,0.00,-0.01,-24.95,26.62,-26.52
676,-0.42,6.61,-7.80,-0.02,-0.00,-0.01,-24.95,26.62,-26.52
687,-0.42,6.61,-7.80,-0.02,-0.00,-0.01,-24.95,26.62,-26.52
698,-0.41,6.59,-7.82,-0.00,0.01,-0.01,-24.95,26.62,-26.52
709,-0.41,6.59,-7.82,-0.00,0.01,-0.01,-24.95,26.62,-26.52
720,-0.41,6.59,-7.82,-0.01,0.00,-0.01,-23.32,27.27,-25.86
731,-0.43,6.58,-7.83,-0.02,-0.00,-0.01,-23.32,27.27,-25.86
742,-0.43,6.58,-7.83,-0.02,-0.00,-0.01,-23.32,27.27,-25.86
757,-0.40,6.56,-7.82,-0.00,0.01,-0.01,-23.32,27.27,-25.86
764,-0.40,6.56,-7.82,-0.00,0.01,-0.01,-23.32,27.27,-25.86
775,-0.41,6.57,-7.82,-0.01,0.00,-0.01,-23.32,27.27,-25.86
786,-0.41,6.57,-7.82,-0.01,0.00,-0.01,-23.32,27.27,-25.86
797,-0.41,6.60,-7.79,-0.02,-0.00,-0.01,-23.32,27.27,-25.86
809,-0.41,6.60,-7.79,-0.02,-0.00,-0.01,-23.32,27.27,-25.86
819,-0.41,6.59,-7.82,-0.01,0.00,-0.01,-23.32,27.27,-25.86
830,-0.41,6.59,-7.82,-0.01,0.00,-0.01,-23.32,27.27,-25.86
841,-0.42,6.59,-7.80,-0.01,0.00,-0.01,-23.32,27.27,-25.86
852,-0.42,6.59,-7.83,-0.01,0.00,-0.01,-23.53,26.14,-26.69
863,-0.42,6.59,-7.83,-0.01,0.00,-0.01,-23.53,26.14,-26.69
874,-0.42,6.58,-7.82,-0.01,0.00,-0.01,-23.53,26.14,-26.69
885,-0.42,6.58,-7.82,-0.01,0.00,-0.01,-23.53,26.14,-26.69
901,-0.42,6.61,-7.82,-0.01,0.00,-0.01,-23.53,26.14,-26.69
907,-0.42,6.61,-7.82,-0.01,0.00,-0.01,-23.53,26.14,-26.69
918,-0.42,6.60,-7.80,-0.01,0.00,-0.01,-23.53,26.14,-26.69
929,-0.42,6.60,-7.80,-0.01,0.00,-0.01,-23.53,26.14,-26.69
940,-0.42,6.59,-7.82,-0.01,0.00,-0.01,-23.53,26.14,-26.69
951,-0.42,6.57,-7.82,-0.01,0.00,-0.01,-23.53,26.14,-26.69
962,-0.42,6.57,-7.82,-0.01,0.00,-0.01,-23.53,26.14,-26.69
973,-0.41,6.57,-7.84,-0.01,0.00,-0.01,-25.15,25.82,-27.02
984,-0.41,6.57,-7.84,-0.01,0.00,-0.01,-25.15,25.82,-27.02
995,-0.41,6.60,-7.80,-0.01,0.00,-0.01,-25.15,25.82,-27.02
1006,-0.41,6.60,-7.80,-0.01,0.00,-0.01,-25.15,25.82,-27.02
1017,-0.42,6.61,-7.81,-0.01,0.00,-0.01,-25.15,25.82,-27.02
1028,-0.42,6.61,-7.81,-0.01,0.00,-0.01,-25.15,25.82,-27.02
1039,-0.41,6.59,-7.80,-0.01,0.00,-0.01,-25.15,25.82,-27.02
1050,-0.41,6.59,-7.80,-0.01,0.00,-0.01,-25.15,25.82,-27.02
1062,-0.41,6.57,-7.82,-0.01,0.00,-0.01,-25.15,25.82,-27.02
1072,-0.41,6.59,-7.80,-0.01,0.00,-0.01,-25.15,25.82,-27.02
1083,-0.41,6.59,-7.80,-0.01,0.00,-0.01,-25.15,25.82,-27.02
1094,-0.43,6.59,-7.81,-0.01,0.00,-0.01,-24.74,26.78,-26.36
1105,-0.43,6.59,-7.81,-0.01,0.00,-0.01,-24.74,26.78,-26.36
1116,-0.41,6.59,-7.78,-0.01,0.00,-0.01,-24.74,26.78,-26.36
1127,-0.41,6.59,-7.78,-0.01,0.00,-0.01,-24.74,26.78,-26.36
1138,-0.41,6.57,-7.84,-0.01,0.00,-0.01,-24.74,26.78,-26.36
1149,-0.41,6.57,-7.84,-0.01,0.00,-0.01,-24.74,26.78,-26.36
1160,-0.41,6.57,-7.82,-0.01,0.00,-0.01,-24.74,26.78,-26.36
1171,-0.41,6.59,-7.80,-0.01,0.00,-0.01,-24.74,26.78,-26.36
1182,-0.41,6.59,-7.80,-0.01,0.00,-0.01,-24.74,26.78,-26.36
1193,-0.41,6.60,-7.80,-0.01,0.00,-0.01,-24.74,26.78,-26.36
1204,-0.41,6.60,-7.80,-0.01,0.00,-0.01,-24.74,26.78,-26.36
1215,-0.42,6.60,-7.78,-0.01,0.00,-0.01,-24.74,26.78,-26.36
1226,-0.42,6.60,-7.78,-0.01,0.00,-0.01,-24.74,26.78,-26.36
1237,-0.42,6.57,-7.83,-0.01,0.00,-0.01,-22.31,27.43,-25.69
1248,-0.42,6.57,-7.83,-0.01,0.00,-0.01,-22.31,27.43,-25.69
1259,-0.41,6.58,-7.81,-0.01,0.00,-0.01,-22.31,27.43,-25.69
1270,-0.41,6.58,-7.81,-0.01,0.00,-0.01,-22.31,27.43,-25.69
1281,-0.42,6.60,-7.82,-0.01,0.00,-0.01,-22.31,27.43,-25.69
1292,-0.42,6.60,-7.79,-0.01,0.00,-0.01,-22.31,27.43,-25.69
1303,-0.42,6.60,-7.79,-0.01,0.00,-0.01,-22.31,27.43,-25.69
1314,-0.42,6.61,-7.82,-0.01,0.00,-0.01,-22.31,27.43,-25.69
1325,-0.42,6.61,-7.82,-0.01,0.00,-0.01,-22.31,27.43,-25.69
1336,-0.43,6.59,-7.82,-0.01,0.00,-0.01,-22.31,27.43,-25.69
1347,-0.43,6.59,-7.82,-0.01,0.00,-0.01,-22.31,27.43,-25.69
1358,-0.42,6.57,-7.83,-0.01,0.00,-0.01,-22.10,25.98,-26.19
1369,-0.42,6.57,-7.83,-0.01,0.00,-0.01,-22.10,25.98,-26.19
1380,-0.43,6.58,-7.83,-0.01,0.00,-0.01,-22.10,25.98,-26.19
1391,-0.42,6.60,-7.78,-0.01,0.00,-0.01,-22.10,25.98,-26.19
1402,-0.42,6.60,-7.78,-0.01,0.00,-0.01,-22.10,25.98,-26.19
1413,-0.41,6.60,-7.77,-0.01,0.00,-0.01,-22.10,25.98,-26.19
1424,-0.41,6.60,-7.77,-0.01,0.00,-0.01,-22.10,25.98,-26.19
1435,-0.43,6.59,-7.82,-0.01,0.00,-0.01,-22.10,25.98,-26.19
1446,-0.43,6.59,-7.82,-0.01,0.00,-0.01,-22.10,25.98,-26.19
1457,-0.42,6.59,-7.81,-0.01,0.00,-0.01,-22.10,25.98,-26.19
1468,-0.42,6.59,-7.81,-0.01,0.00,-0.01,-22.10,25.98,-26.19
1479,-0.42,6.61,-7.81,-0.01,0.00,-0.01,-23.32,26.95,-27.53
1491,-0.42,6.61,-7.81,-0.01,0.00,-0.01,-23.32,26.95,-27.53
1501,-0.40,6.61,-7.81,-0.01,0.00,-0.01,-23.32,26.95,-27.53
1512,-0.43,6.60,-7.79,-0.01,0.00,-0.01,-23.32,26.95,-27.53
1523,-0.43,6.60,-7.79,-0.01,0.00,-0.01,-23.32,26.95,-27.53
1534,-0.42,6.57,-7.81,-0.01,0.00,-0.01,-23.32,26.95,-27.53
1545,-0.42,6.57,-7.81,-0.01,0.00,-0.01,-23.32,26.95,-27.53
1556,-0.43,6.60,-7.81,-0.01,0.00,-0.01,-23.32,26.95,-27.53
1567,-0.43,6.60,-7.81,-0.01,0.00,-0.01,-23.32,26.95,-27.53
1578,-0.42,6.59,-7.80,-0.01,0.00,-0.01,-23.32,26.95,-27.53
1589,-0.42,6.59,-7.80,-0.01,0.00,-0.01,-23.32,26.95,-27.53
1600,-0.42,6.60,-7.80,-0.01,0.00,-0.01,-23.32,26.95,-27.53
1611,-0.41,6.61,-7.82,-0.01,0.00,-0.01,-23.32,26.95,-27.53
1622,-0.41,6.61,-7.82,-0.01,0.00,-0.01,-22.92,28.56,-26.52
1633,-0.41,6.60,-7.82,-0.01,0.00,-0.01,-22.92,28.56,-26.52
1644,-0.41,6.60,-7.82,-0.01,0.00,-0.01,-22.92,28.56,-26.52
1655,-0.42,6.59,-7.82,-0.01,0.00,-0.01,-22.92,28.56,-26.52
1666,-0.42,6.59,-7.82,-0.01,0.00,-0.01,-22.92,28.56,-26.52
1677,-0.41,6.59,-7.80,-0.01,0.00,-0.01,-22.92,28.56,-26.52
1688,-0.41,6.59,-7.80,-0.01,0.00,-0.01,-22.92,28.56,-26.52
1699,-0.43,6.61,-7.80,-0.01,0.00,-0.01,-22.92,28.56,-26.52
1710,-0.43,6.61,-7.80,-0.01,0.00,-0.01,-22.92,28.56,-26.52
1721,-0.42,6.62,-7.82,-0.01,0.00,-0.01,-22.92,28.56,-26.52
1732,-0.43,6.59,-7.82,-0.01,0.00,-0.01,-24.74,26.78,-26.69
1743,-0.43,6.59,-7.82,-0.01,0.00,-0.01,-24.74,26.78,-26.69
1754,-0.43,6.60,-7.80,-0.01,0.00,-0.01,-24.74,26.78,-26.69
1765,-0.43,6.60,-7.80,-0.01,0.00,-0.01,-24.74,26.78,-26.69
1776,-0.43,6.60,-7.80,-0.01,0.00,-0.01,-24.74,26.78,-26.69
1787,-0.43,6.60,-7.80,-0.01,0.00,-0.01,-24.74,26.78,-26.69
1798,-0.42,6.60,-7.79,-0.01,0.00,-0.01,-24.74,26.78,-26.69
1809,-0.42,6.60,-7.79,-0.01,0.00,-0.01,-24.74,26.78,-26.69
1820,-0.41,6.61,-7.80,-0.01,0.00,-0.01,-24.74,26.78,-26.69
1831,-0.41,6.61,-7.80,-0.01,0.00,-0.01,-24.74,26.78,-26.69
1842,-0.42,6.59,-7.79,-0.01,0.00,-0.01,-24.74,26.78,-26.69
1853,-0.43,6.59,-7.83,-0.01,0.00,-0.01,-23.32,25.98,-26.19
1864,-0.43,6.59,-7.83,-0.01,0.00,-0.01,-23.32,25.98,-26.19
1875,-0.41,6.59,-7.83,-0.01,0.00,-0.01,-23.32,25.98,-26.19
1886,-0.41,6.59,-7.83,-0.01,0.00,-0.01,-23.32,25.98,-26.19
1897,-0.43,6.59,-7.79,-0.01,0.00,-0.01,-23.32,25.98,-26.19
1908,-0.43,6.59,-7.79,-0.01,0.00,-0.01,-23.32,25.98,-26.19
1919,-0.42,6.60,-7.79,-0.01,0.00,-0.01,-23.32,25.98,-26.19
1930,-0.42,6.60,-7.79,-0.01,0.00,-0.01,-23.32,25.98,-26.19
1941,-0.42,6.61,-7.80,-0.01,0.00,-0.01,-23.32,25.98,-26.19
1952,-0.42,6.58,-7.81,-0.01,0.00,-0.01,-23.32,25.98,-26.19
1963,-0.42,6.58,-7.81,-0.01,0.00,-0.01,-23.32,25.98,-26.19
1974,-0.44,6.59,-7.81,-0.01,0.00,-0.01,-23.32,25.98,-26.19
1985,-0.44,6.59,-7.81,-0.01,0.00,-0.01,-23.32,25.98,-26.19
1996,-0.42,6.61,-7.79,-0.01,0.00,-0.01,-22.71,26.46,-27.36
2007,-0.42,6.61,-7.79,-0.01,0.00,-0.01,-22.71,26.46,-27.36
2018,-0.42,6.60,-7.81,-0.01,0.00,-0.01,-22.71,26.46,-27.36
2029,-0.42,6.60,-7.81,-0.01,0.00,-0.01,-22.71,26.46,-27.36
2040,-0.41,6.60,-7.82,-0.01,0.00,-0.01,-22.71,26.46,-27.36
2051,-0.41,6.60,-7.82,-0.01,0.00,-0.01,-22.71,26.46,-27.36
2062,-0.41,6.59,-7.82,-0.01,0.00,-0.01,-22.71,26.46,-27.36
2073,-0.42,6.60,-7.81,-0.01,0.00,-0.01,-22.71,26.46,-27.36
2084,-0.42,6.60,-7.81,-0.01,0.00,-0.01,-22.71,26.46,-27.36
2095,-0.41,6.60,-7.79,-0.01,0.00,-0.01,-22.71,26.46,-27.36
2106,-0.41,6.60,-7.79,-0.01,0.00,-0.01,-22.71,26.46,-27.36
2117,-0.42,6.60,-7.83,-0.01,0.00,-0.01,-22.92,26.62,-25.86
2128,-0.42,6.60,-7.83,-0.01,0.00,-0.01,-22.92,26.62,-25.86
2139,-0.43,6.58,-7.83,-0.01,0.00,-0.01,-22.92,26.62,-25.86
2150,-0.43,6.58,-7.83,-0.01,0.00,-0.01,-22.92,26.62,-25.86
2161,-0.42,6.58,-7.82,-0.01,0.00,-0.01,-22.92,26.62,-25.86
2172,-0.44,6.61,-7.77,-0.01,0.00,-0.01,-22.92,26.62,-25.86
2183,-0.44,6.61,-7.77,-0.01,0.00,-0.01,-22.92,26.62,-25.86
2194,-0.42,6.61,-7.78,-0.01,0.00,-0.01,-22.92,26.62,-25.86
2205,-0.42,6.61,-7.78,-0.01,0.00,-0.01,-22.92,26.62,-25.86
2216,-0.42,6.61,-7.77,-0.01,0.00,-0.01,-22.92,26.62,-25.86
2227,-0.42,6.61,-7.77,-0.01,0.00,-0.01,-22.92,26.62,-25.86
2239,-0.43,6.59,-7.83,-0.01,0.00,-0.01,-24.13,27.27,-26.52
2249,-0.43,6.59,-7.83,-0.01,0.00,-0.01,-24.13,27.27,-26.52
2260,-0.43,6.60,-7.82,-0.01,0.00,-0.01,-24.13,27.27,-26.52
2271,-0.43,6.60,-7.82,-0.01,0.00,-0.01,-24.13,27.27,-26.52
2282,-0.41,6.60,-7.81,-0.01,0.00,-0.01,-24.13,27.27,-26.52
2293,-0.43,6.61,-7.79,-0.01,0.00,-0.01,-24.13,27.27,-26.52
2304,-0.43,6.61,-7.79,-0.01,0.00,-0.01,-24.13,27.27,-26.52
2315,-0.42,6.60,-7.78,-0.01,0.00,-0.01,-24.13,27.27,-26.52
2326,-0.42,6.60,-7.78,-0.01,0.00,-0.01,-24.13,27.27,-26.52
2337,-0.42,6.58,-7.80,-0.01,0.00,-0.01,-24.13,27.27,-26.52
2348,-0.42,6.58,-7.80,-0.01,0.00,-0.01,-24.13,27.27,-26.52
2359,-0.43,6.60,-7.81,-0.01,0.00,-0.01,-22.71,27.43,-26.36
2370,-0.43,6.60,-7.81,-0.01,0.00,-0.01,-22.71,27.43,-26.36
2381,-0.41,6.60,-7.79,-0.01,0.00,-0.01,-22.71,27.43,-26.36
2392,-0.41,6.62,-7.80,-0.01,0.00,-0.01,-22.71,27.43,-26.36
2403,-0.41,6.62,-7.80,-0.01,0.00,-0.01,-22.71,27.43,-26.36
2414,-0.43,6.60,-7.80,-0.01,0.00,-0.01,-22.71,27.43,-26.36
2425,-0.43,6.60,-7.80,-0.01,0.00,-0.01,-22.71,27.43,-26.36
2436,-0.43,6.61,-7.80,-0.01,0.00,-0.01,-22.71,27.43,-26.36
2447,-0.43,6.61,-7.80,-0.01,0.00,-0.01,-22.71,27.43,-26.36
2458,-0.43,6.60,-7.80,-0.01,0.00,-0.01,-22.71,27.43,-26.36
2469,-0.43,6.60,-7.80,-0.01,0.00,-0.01,-22.71,27.43,-26.36
2480,-0.42,6.61,-7.78,-0.01,0.00,-0.01,-22.71,27.43,-26.36
2491,-0.42,6.61,-7.78,-0.01,0.00,-0.01,-22.71,27.43,-26.36
2502,-0.43,6.62,-7.80,-0.01,0.00,-0.01,-22.92,26.30,-26.19
2513,-0.42,6.59,-7.81,-0.01,0.00,-0.01,-22.92,26.30,-26.19
2524,-0.42,6.59,-7.81,-0.01,0.00,-0.01,-22.92,26.30,-26.19
2535,-0.43,6.60,-7.81,-0.01,0.00,-0.01,-22.92,26.30,-26.19
2546,-0.43,6.60,-7.81,-0.01,0.00,-0.01,-22.92,26.30,-26.19
2557,-0.42,6.61,-7.80,-0.01,0.00,-0.01,-22.92,26.30,-26.19
2568,-0.42,6.61,-7.80,-0.01,0.00,-0.01,-22.92,26.30,-26.19
2579,-0.42,6.60,-7.78,-0.01,0.00,-0.01,-22.92,26.30,-26.19
2590,-0.42,6.60,-7.78,-0.01,0.00,-0.01,-22.92,26.30,-26.19
2601,-0.41,6.60,-7.80,-0.01,0.00,-0.01,-22.92,26.30,-26.19
2612,-0.41,6.60,-7.81,-0.01,0.00,-0.01,-23.93,27.75,-26.69
2623,-0.41,6.60,-7.81,-0.01,0.00,-0.01,-23.93,27.75,-26.69
2634,-0.44,6.61,-7.78,-0.01,0.00,-0.01,-23.93,27.75,-26.69
2645,-0.44,6.61,-7.78,-0.01,0.00,-0.01,-23.93,27.75,-26.69
2656,-0.42,6.59,-7.82,-0.01,0.00,-0.01,-23.93,27.75,-26.69
2667,-0.42,6.59,-7.82,-0.01,0.00,-0.01,-23.93,27.75,-26.69
2678,-0.41,6.61,-7.79,-0.01,0.00,-0.01,-23.93,27.75,-26.69
2689,-0.41,6.61,-7.79,-0.01,0.00,-0.01,-23.93,27.75,-26.69
2700,-0.41,6.61,-7.83,-0.01,0.00,-0.01,-23.93,27.75,-26.69
2712,-0.41,6.61,-7.83,-0.01,0.00,-0.01,-23.93,27.75,-26.69
2722,-0.42,6.60,-7.80,-0.01,0.00,-0.01,-23.93,27.75,-26.69
2733,-0.41,6.58,-7.82,-0.01,0.00,-0.01,-23.53,27.11,-26.36
2744,-0.41,6.58,-7.82,-0.01,0.00,-0.01,-23.53,27.11,-26.36
2755,-0.42,6.60,-7.81,-0.01,0.00,-0.01,-23.53,27.11,-26.36
2766,-0.42,6.60,-7.81,-0.01,0.00,-0.01,-23.53,27.11,-26.36
2777,-0.42,6.60,-7.81,-0.01,0.00,-0.01,-23.53,27.11,-26.36
2788,-0.42,6.60,-7.81,-0.01,0.00,-0.01,-23.53,27.11,-26.36
2799,-0.41,6.61,-7.82,-0.01,0.00,-0.01,-23.53,27.11,-26.36
2810,-0.41,6.61,-7.82,-0.01,0.00,-0.01,-23.53,27.11,-26.36
2821,-0.42,6.62,-7.79,-0.01,0.00,-0.01,-23.53,27.11,-26.36
2832,-0.42,6.62,-7.79,-0.01,0.00,-0.01,-23.53,27.11,-26.36
2843,-0.43,6.60,-7.81,-0.01,0.00,-0.01,-23.53,27.11,-26.36
2854,-0.43,6.61,-7.79,-0.01,0.00,-0.01,-23.53,27.11,-26.36
2865,-0.43,6.61,-7.79,-0.01,0.00,-0.01,-23.53,27.11,-26.36
2876,-0.43,6.61,-7.80,-0.01,0.00,-0.01,-23.32,26.95,-26.19
2887,-0.43,6.61,-7.80,-0.01,0.00,-0.01,-23.32,26.95,-26.19
2898,-0.43,6.62,-7.79,-0.01,0.00,-0.01,-23.32,26.95,-26.19
2909,-0.43,6.62,-7.79,-0.01,0.00,-0.01,-23.32,26.95,-26.19
2920,-0.42,6.59,-7.79,-0.01,0.00,-0.01,-23.32,26.95,-26.19
2931,-0.42,6.59,-7.79,-0.01,0.00,-0.01,-23.32,26.95,-26.19
2942,-0.42,6.59,-7.81,-0.01,0.00,-0.01,-23.32,26.95,-26.19
2953,-0.43,6.58,-7.78,-0.01,0.00,-0.01,-23.32,26.95,-26.19
2965,-0.43,6.58,-7.78,-0.01,0.00,-0.01,-23.32,26.95,-26.19
2975,-0.42,6.60,-7.77,-0.01,0.00,-0.01,-23.32,26.95,-26.19
2986,-0.42,6.60,-7.77,-0.01,0.00,-0.01,-23.32,26.95,-26.19
2997,-0.42,6.61,-7.81,-0.01,0.00,-0.01,-24.95,26.30,-26.52
3008,-0.42,6.61,-7.81,-0.01,0.00,-0.01,-24.95,26.30,-26.52
3019,-0.41,6.60,-7.83,-0.01,0.00,-0.01,-24.95,26.30,-26.52
3030,-0.41,6.60,-7.83,-0.01,0.00,-0.01,-24.95,26.30,-26.52
3041,-0.42,6.60,-7.82,-0.01,0.00,-0.01,-24.95,26.30,-26.52
3052,-0.42,6.60,-7.82,-0.01,0.00,-0.01,-24.95,26.30,-26.52
3063,-0.43,6.60,-7.82,-0.01,0.00,-0.01,-24.95,26.30,-26.52
3074,-0.42,6.60,-7.81,-0.01,0.00,-0.01,-24.95,26.30,-26.52
3085,-0.42,6.60,-7.81,-0.01,0.00,-0.01,-24.95,26.30,-26.52
3096,-0.43,6.60,-7.78,-0.01,0.00,-0.01,-24.95,26.30,-26.52
3107,-0.43,6.60,-7.78,-0.01,0.00,-0.01,-24.95,26.30,-26.52
3118,-0.42,6.60,-7.81,-0.01,0.00,-0.01,-23.53,27.11,-26.69
3129,-0.42,6.60,-7.81,-0.01,0.00,-0.01,-23.53,27.11,-26.69
3140,-0.43,6.60,-7.81,-0.01,0.00,-0.01,-23.53,27.11,-26.69
3151,-0.43,6.60,-7.81,-0.01,0.00,-0.01,-23.53,27.11,-26.69
3162,-0.43,6.61,-7.79,-0.01,0.00,-0.01,-23.53,27.11,-26.69
3173,-0.42,6.60,-7.79,-0.01,0.00,-0.01,-23.53,27.11,-26.69
3184,-0.42,6.60,-7.79,-0.01,0.00,-0.01,-23.53,27.11,-26.69
3195,-0.42,6.59,-7.80,-0.01,0.00,-0.01,-23.53,27.11,-26.69
3206,-0.42,6.59,-7.80,-0.01,0.00,-0.01,-23.53,27.11,-26.69
3217,-0.42,6.60,-7.79,-0.01,0.00,-0.01,-23.53,27.11,-26.69
3228,-0.42,6.60,-7.79,-0.01,0.00,-0.01,-23.53,27.11,-26.69
3239,-0.44,6.60,-7.81,-0.01,0.00,-0.01,-23.53,27.11,-26.69
3250,-0.44,6.60,-7.81,-0.01,0.00,-0.01,-23.53,27.11,-26.69
3261,-0.42,6.60,-7.81,-0.01,0.00,-0.01,-24.13,25.33,-26.86
3272,-0.42,6.60,-7.81,-0.01,0.00,-0.01,-24.13,25.33,-26.86
3283,-0.42,6.61,-7.82,-0.01,0.00,-0.01,-24.13,25.33,-26.86
3294,-0.43,6.62,-7.81,-0.01,0.00,-0.01,-24.13,25.33,-26.86
3305,-0.43,6.62,-7.81,-0.01,0.00,-0.01,-24.13,25.33,-26.86
3316,-0.42,6.61,-7.82,-0.01,0.00,-0.01,-24.13,25.33,-26.86
3327,-0.42,6.61,-7.82,-0.01,0.00,-0.01,-24.13,25.33,-26.86
3338,-0.42,6.60,-7.82,-0.01,0.00,-0.01,-24.13,25.33,-26.86
3349,-0.42,6.60,-7.82,-0.01,0.00,-0.01,-24.13,25.33,-26.86
3360,-0.41,6.60,-7.80,-0.01,0.00,-0.01,-24.13,25.33,-26.86
3371,-0.41,6.60,-7.80,-0.01,0.00,-0.01,-24.13,25.33,-26.86
3382,-0.43,6.60,-7.81,-0.01,0.00,-0.01,-23.73,26.30,-27.19
3393,-0.42,6.62,-7.81,-0.01,0.00,-0.01,-23.73,26.30,-27.19
3404,-0.42,6.62,-7.81,-0.01,0.00,-0.01,-23.73,26.30,-27.19
3415,-0.43,6.60,-7.81,-0.01,0.00,-0.01,-23.73,26.30,-27.19
3426,-0.43,6.60,-7.81,-0.01,0.00,-0.01,-23.73,26.30,-27.19
3437,-0.41,6.60,-7.79,-0.01,0.00,-0.01,-23.73,26.30,-27.19
3448,-0.41,6.60,-7.79,-0.01,0.00,-0.01,-23.73,26.30,-27.19
3459,-0.42,6.60,-7.81,-0.01,0.00,-0.01,-23.73,26.30,-27.19
3470,-0.42,6.60,-7.81,-0.01,0.00,-0.01,-23.73,26.30,-27.19
3482,-0.42,6.61,-7.78,-0.01,0.00,-0.01,-23.73,26.30,-27.19
3492,-0.42,6.61,-7.78,-0.01,0.00,-0.01,-23.73,26.30,-27.19
3503,-0.42,6.60,-7.82,-0.01,0.00,-0.01,-24.95,26.30,-26.52
3514,-0.43,6.61,-7.82,-0.01,0.00,-0.01,-24.95,26.30,-26.52
3525,-0.43,6.61,-7.82,-0.01,0.00,-0.01,-24.95,26.30,-26.52
3536,-0.43,6.58,-7.83,-0.01,0.00,-0.01,-24.95,26.30,-26.52
3547,-0.43,6.58,-7.83,-0.01,0.00,-0.01,-24.95,26.30,-26.52
3558,-0.43,6.59,-7.80,-0.01,0.00,-0.01,-24.95,26.30,-26.52
3569,-0.43,6.59,-7.80,-0.01,0.00,-0.01,-24.95,26.30,-26.52
3580,-0.43,6.61,-7.79,-0.01,0.00,-0.01,-24.95,26.30,-26.52
3591,-0.43,6.61,-7.79,-0.01,0.00,-0.01,-24.95,26.30,-26.52
3602,-0.42,6.59,-7.79,-0.01,0.00,-0.01,-24.95,26.30,-26.52
3613,-0.42,6.62,-7.82,-0.01,0.00,-0.01,-24.54,26.95,-25.86
3624,-0.42,6.62,-7.82,-0.01,0.00,-0.01,-24.54,26.95,-25.86
3635,-0.41,6.59,-7.82,-0.01,0.00,-0.01,-24.54,26.95,-25.86
3646,-0.41,6.59,-7.82,-0.01,0.00,-0.01,-24.54,26.95,-25.86
3657,-0.41,6.60,-7.80,-0.01,0.00,-0.01,-24.54,26.95,-25.86
3668,-0.41,6.60,-7.80,-0.01,0.00,-0.01,-24.54,26.95,-25.86
3679,-0.41,6.60,-7.79,-0.01,0.00,-0.01,-24.54,26.95,-25.86
3690,-0.41,6.60,-7.79,-0.01,0.00,-0.01,-24.54,26.95,-25.86
3701,-0.44,6.60,-7.80,-0.01,0.00,-0.01,-24.54,26.95,-25.86
3712,-0.44,6.60,-7.80,-0.01,0.00,-0.01,-24.54,26.95,-25.86
3723,-0.43,6.59,-7.79,-0.01,0.00,-0.01,-24.54,26.95,-25.86
3734,-0.43,6.61,-7.79,-0.01,0.00,-0.01,-24.54,26.95,-25.86
3745,-0.43,6.61,-7.79,-0.01,0.00,-0.01,-24.54,26.95,-25.86
3756,-0.40,6.61,-7.80,-0.01,0.00,-0.01,-23.73,27.27,-25.86
3767,-0.40,6.61,-7.80,-0.01,0.00,-0.01,-23.73,27.27,-25.86
3778,-0.42,6.61,-7.81,-0.01,0.00,-0.01,-23.73,27.27,-25.86
3789,-0.42,6.61,-7.81,-0.01,0.00,-0.01,-23.73,27.27,-25.86
3800,-0.42,6.61,-7.80,-0.01,0.00,-0.01,-23.73,27.27,-25.86
3811,-0.42,6.61,-7.80,-0.01,0.00,-0.01,-23.73,27.27,-25.86
3822,-0.41,6.62,-7.82,-0.01,0.00,-0.01,-23.73,27.27,-25.86
3833,-0.42,6.61,-7.77,-0.01,0.00,-0.01,-23.73,27.27,-25.86
3844,-0.42,6.61,-7.77,-0.01,0.00,-0.01,-23.73,27.27,-25.86
3855,-0.42,6.59,-7.79,-0.01,0.00,-0.01,-23.73,27.27,-25.86
3866,-0.42,6.59,-7.79,-0.01,0.00,-0.01,-23.73,27.27,-25.86
3877,-0.42,6.60,-7.80,-0.01,0.00,-0.01,-23.53,26.78,-26.36
3888,-0.42,6.60,-7.80,-0.01,0.00,-0.01,-23.53,26.78,-26.36
3899,-0.41,6.62,-7.83,-0.01,0.00,-0.01,-23.53,26.78,-26.36
3910,-0.41,6.62,-7.83,-0.01,0.00,-0.01,-23.53,26.78,-26.36
3921,-0.41,6.61,-7.83,-0.01,0.00,-0.01,-23.53,26.78,-26.36
3932,-0.41,6.61,-7.83,-0.01,0.00,-0.01,-23.53,26.78,-26.36
3943,-0.44,6.61,-7.83,-0.01,0.00,-0.01,-23.53,26.78,-26.36
3954,-0.44,6.60,-7.80,-0.01,0.00,-0.01,-23.53,26.78,-26.36
3965,-0.44,6.60,-7.80,-0.01,0.00,-0.01,-23.53,26.78,-26.36
3976,-0.43,6.60,-7.83,-0.01,0.00,-0.01,-23.53,26.78,-26.36
3987,-0.43,6.60,-7.83,-0.01,0.00,-0.01,-23.53,26.78,-26.36
3998,-0.41,6.61,-7.81,-0.01,0.00,-0.01,-23.12,26.46,-27.02
4009,-0.41,6.61,-7.81,-0.01,0.00,-0.01,-23.12,26.46,-27.02
4020,-0.42,6.61,-7.79,-0.01,0.00,-0.01,-23.12,26.46,-27.02
4031,-0.42,6.61,-7.79,-0.01,0.00,-0.01,-23.12,26.46,-27.02
4042,-0.42,6.60,-7.80,-0.01,0.00,-0.01,-23.12,26.46,-27.02
4053,-0.42,6.60,-7.80,-0.01,0.00,-0.01,-23.12,26.46,-27.02
4064,-0.42,6.59,-7.80,-0.01,0.00,-0.01,-23.12,26.46,-27.02
4075,-0.41,6.62,-7.79,-0.01,0.00,-0.01,-23.12,26.46,-27.02
4086,-0.41,6.62,-7.79,-0.01,0.00,-0.01,-23.12,26.46,-27.02
4097,-0.42,6.63,-7.80,-0.01,0.00,-0.01,-23.12,26.46,-27.02
4108,-0.42,6.63,-7.80,-0.01,0.00,-0.01,-23.12,26.46,-27.02
4119,-0.42,6.61,-7.79,-0.01,0.00,-0.01,-23.12,26.46,-27.02
4130,-0.42,6.61,-7.79,-0.01,0.00,-0.01,-23.12,26.46,-27.02
4141,-0.42,6.61,-7.81,-0.01,0.00,-0.01,-23.53,28.08,-27.36
4152,-0.42,6.61,-7.81,-0.01,0.00,-0.01,-23.53,28.08,-27.36
4163,-0.43,6.60,-7.83,-0.01,0.00,-0.01,-23.53,28.08,-27.36
4174,-0.42,6.58,-7.80,-0.01,0.00,-0.01,-23.53,28.08,-27.36
4185,-0.42,6.58,-7.80,-0.01,0.00,-0.01,-23.53,28.08,-27.36
4196,-0.41,6.58,-7.78,-0.01,0.00,-0.01,-23.53,28.08,-27.36
4207,-0.41,6.58,-7.78,-0.01,0.00,-0.01,-23.53,28.08,-27.36
4218,-0.41,6.59,-7.81,-0.01,0.00,-0.01,-23.53,28.08,-27.36
4229,-0.41,6.59,-7.81,-0.01,0.00,-0.01,-23.53,28.08,-27.36
4240,-0.43,6.60,-7.80,-0.01,0.00,-0.01,-23.53,28.08,-27.36
4251,-0.43,6.60,-7.80,-0.01,0.00,-0.01,-23.53,28.08,-27.36
4262,-0.41,6.61,-7.84,-0.01,0.00,-0.01,-23.12,27.43,-27.02
4273,-0.41,6.61,-7.84,-0.01,0.00,-0.01,-23.12,27.43,-27.02
4284,-0.43,6.61,-7.82,-0.01,0.00,-0.01,-23.12,27.43,-27.02
4295,-0.42,6.63,-7.81,-0.01,0.00,-0.01,-23.12,27.43,-27.02
4306,-0.42,6.63,-7.81,-0.01,0.00,-0.01,-23.12,27.43,-27.02
4317,-0.42,6.61,-7.77,-0.01,0.00,-0.01,-23.12,27.43,-27.02
4328,-0.42,6.61,-7.77,-0.01,0.00,-0.01,-23.12,27.43,-27.02
4339,-0.42,6.61,-7.78,-0.01,0.00,-0.01,-23.12,27.43,-27.02
4351,-0.42,6.61,-7.78,-0.01,0.00,-0.01,-23.12,27.43,-27.02
4361,-0.43,6.60,-7.79,-0.01,0.00,-0.01,-23.12,27.43,-27.02
4372,-0.43,6.60,-7.79,-0.01,0.00,-0.01,-23.12,27.43,-27.02
4383,-0.42,6.61,-7.79,-0.01,0.00,-0.01,-22.51,26.30,-26.52
4394,-0.43,6.60,-7.80,-0.01,0.00,-0.01,-22.51,26.30,-26.52
4405,-0.43,6.60,-7.80,-0.01,0.00,-0.01,-22.51,26.30,-26.52
4416,-0.42,6.61,-7.80,-0.01,0.00,-0.01,-22.51,26.30,-26.52
4427,-0.42,6.61,-7.80,-0.01,0.00,-0.01,-22.51,26.30,-26.52
4438,-0.42,6.60,-7.81,-0.01,0.00,-0.01,-22.51,26.30,-26.52
4449,-0.42,6.60,-7.81,-0.01,0.00,-0.01,-22.51,26.30,-26.52
4460,-0.42,6.61,-7.79,-0.01,0.00,-0.01,-22.51,26.30,-26.52
4471,-0.42,6.61,-7.79,-0.01,0.00,-0.01,-22.51,26.30,-26.52
4482,-0.41,6.62,-7.81,-0.01,0.00,-0.01,-22.51,26.30,-26.52
4493,-0.41,6.62,-7.81,-0.01,0.00,-0.01,-22.51,26.30,-26.52
4504,-0.40,6.57,-7.87,0.01,-0.01,-0.02,-22.51,26.30,-26.52
4515,-0.45,6.62,-7.80,-0.04,-0.05,-0.06,-21.90,25.17,-26.36
4526,-0.45,6.62,-7.80,-0.04,-0.05,-0.06,-21.90,25.17,-26.36
4537,-0.55,6.61,-7.77,-0.03,-0.05,-0.05,-21.90,25.17,-26.36
4548,-0.55,6.61,-7.77,-0.03,-0.05,-0.05,-21.90,25.17,-26.36
4559,-0.96,6.73,-7.71,-0.00,0.18,-0.24,-21.90,25.17,-26.36
4570,-0.96,6.73,-7.71,-0.00,0.18,-0.24,-21.90,25.17,-26.36
4581,-0.23,6.60,-7.89,0.05,0.70,-0.92,-21.90,25.17,-26.36
4592,-0.23,6.60,-7.89,0.05,0.70,-0.92,-21.90,25.17,-26.36
4603,-1.10,6.49,-7.86,-0.03,0.65,-1.00,-21.90,25.17,-26.36
4614,-0.53,6.08,-8.26,0.10,0.35,-0.40,-21.90,25.17,-26.36
4625,-0.53,6.08,-8.26,0.10,0.35,-0.40,-21.90,25.17,-26.36
4636,0.99,5.92,-9.29,0.40,0.34,0.04,-23.73,25.33,-27.86
4647,0.99,5.92,-9.29,0.40,0.34,0.04,-23.73,25.33,-27.86
4658,0.50,5.72,-12.14,1.31,-0.33,0.81,-23.73,25.33,-27.86
4669,0.50,5.72,-12.14,1.31,-0.33,0.81,-23.73,25.33,-27.86
4680,-0.00,4.21,-9.99,3.73,-0.87,1.73,-23.73,25.33,-27.86
4691,-0.00,4.21,-9.99,3.73,-0.87,1.73,-23.73,25.33,-27.86
4702,0.71,4.08,-9.52,4.37,-0.96,2.67,-23.73,25.33,-27.86
4713,0.71,4.08,-9.52,4.37,-0.96,2.67,-23.73,25.33,-27.86
4724,0.28,2.78,-8.02,3.97,-0.89,3.47,-23.73,25.33,-27.86
4735,-1.02,9.49,-6.12,0.77,-0.43,2.95,-23.73,25.33,-27.86
4746,-1.02,9.49,-6.12,0.77,-0.43,2.95,-23.73,25.33,-27.86
4757,-1.38,13.95,-12.48,0.80,0.78,0.80,-18.05,21.78,-34.21
4768,-1.38,13.95,-12.48,0.80,0.78,0.80,-18.05,21.78,-34.21
4779,0.06,8.91,-13.24,5.50,1.47,-1.21,-18.05,21.78,-34.21
4790,0.06,8.91,-13.24,5.50,1.47,-1.21,-18.05,21.78,-34.21
4802,1.31,3.08,-11.65,6.45,0.92,-2.03,-18.05,21.78,-34.21
4812,1.31,3.08,-11.65,6.45,0.92,-2.03,-18.05,21.78,-34.21
4823,1.04,-0.33,-11.86,4.84,-0.13,-1.89,-18.05,21.78,-34.21
4834,0.88,-0.62,-12.84,3.37,-0.80,-1.43,-18.05,21.78,-34.21
4845,0.88,-0.62,-12.84,3.37,-0.80,-1.43,-18.05,21.78,-34.21
4856,0.27,0.47,-11.89,2.79,-1.29,-1.15,-18.05,21.78,-34.21
4867,0.27,0.47,-11.89,2.79,-1.29,-1.15,-18.05,21.78,-34.21
4878,-0.62,2.42,-9.62,1.47,-1.80,-1.27,-21.09,1.58,-40.72
4889,-0.62,2.42,-9.62,1.47,-1.80,-1.27,-21.09,1.58,-40.72
4900,-1.54,3.83,-7.88,-1.98,-2.17,-2.18,-21.09,1.58,-40.72
4911,-1.54,3.83,-7.88,-1.98,-2.17,-2.18,-21.09,1.58,-40.72
4922,-2.14,6.94,-6.06,-8.02,-1.98,-3.91,-21.09,1.58,-40.72
4933,-2.14,6.94,-6.06,-8.02,-1.98,-3.91,-21.09,1.58,-40.72
4944,-1.79,11.67,-3.76,-14.78,-0.80,-6.02,-21.09,1.58,-40.72
4955,0.78,11.13,2.65,-17.48,2.07,-7.31,-21.09,1.58,-40.72
4966,0.78,11.13,2.65,-17.48,2.07,-7.31,-21.09,1.58,-40.72
4977,2.06,13.06,-45.00,-15.08,5.89,-6.54,-21.09,1.58,-40.72
4988,2.06,13.06,-45.00,-15.08,5.89,-6.54,-21.09,1.58,-40.72
4999,3.97,-0.51,-8.12,2.24,2.47,-3.48,-21.09,1.58,-40.72
5010,3.97,-0.51,-8.12,2.24,2.47,-3.48,-21.09,1.58,-40.72
5021,-1.82,2.84,-7.93,-0.28,0.49,-1.87,-31.84,23.07,-26.86
5036,-1.82,2.84,-7.93,-0.28,0.49,-1.87,-31.84,23.07,-26.86
5043,-1.84,2.73,-7.07,0.83,0.86,-0.57,-31.84,23.07,-26.86
5054,-1.84,2.73,-7.07,0.83,0.86,-0.57,-31.84,23.07,-26.86
5065,-2.57,4.64,-7.04,-0.28,0.67,0.52,-31.84,23.07,-26.86
5076,-2.44,6.55,-5.69,-1.21,0.69,0.75,-31.84,23.07,-26.86
5087,-2.44,6.55,-5.69,-1.21,0.69,0.75,-31.84,23.07,-26.86
5098,-0.97,7.70,-5.79,-2.28,0.81,0.40,-31.84,23.07,-26.86
5109,-0.97,7.70,-5.79,-2.28,0.81,0.40,-31.84,23.07,-26.86
5120,-0.77,7.70,-5.06,-3.40,0.80,-0.13,-31.84,23.07,-26.86
5131,-0.77,7.70,-5.06,-3.40,0.80,-0.13,-31.84,23.07,-26.86
5142,-0.46,8.52,-4.19,-4.24,0.90,-0.44,-26.77,25.82,-25.02
5153,-0.46,8.52,-4.19,-4.24,0.90,-0.44,-26.77,25.82,-25.02
5164,-1.49,10.53,-3.15,-4.61,1.08,-0.74,-26.77,25.82,-25.02
5175,-2.77,11.29,-2.15,-3.95,1.50,-1.26,-26.77,25.82,-25.02
5186,-2.77,11.29,-2.15,-3.95,1.50,-1.26,-26.77,25.82,-25.02
5197,-1.88,11.05,-1.48,-2.29,2.05,-1.60,-26.77,25.82,-25.02
5208,-1.88,11.05,-1.48,-2.29,2.05,-1.60,-26.77,25.82,-25.02
5219,-1.72,10.43,-0.09,-0.75,2.92,-1.96,-26.77,25.82,-25.02
5230,-1.72,10.43,-0.09,-0.75,2.92,-1.96,-26.77,25.82,-25.02
5241,-3.35,9.97,-2.22,-0.30,3.85,-2.27,-26.77,25.82,-25.02
5252,-3.35,9.97,-2.22,-0.30,3.85,-2.27,-26.77,25.82,-25.02
5263,-4.64,10.82,-1.95,1.57,4.35,-2.13,-27.99,27.43,-24.02
5274,-4.64,10.82,-1.95,1.57,4.35,-2.13,-27.99,27.43,-24.02
5285,-5.28,11.87,-3.80,1.54,4.58,-2.36,-27.99,27.43,-24.02
5296,-4.84,10.03,-5.47,1.58,4.35,-2.67,-27.99,27.43,-24.02
5307,-4.84,10.03,-5.47,1.58,4.35,-2.67,-27.99,27.43,-24.02
5318,-1.95,7.19,-8.84,2.26,3.49,-2.71,-27.99,27.43,-24.02
5329,-1.95,7.19,-8.84,2.26,3.49,-2.71,-27.99,27.43,-24.02
5340,-2.56,6.01,-7.97,2.40,1.65,-2.39,-27.99,27.43,-24.02
5351,-2.56,6.01,-7.97,2.40,1.65,-2.39,-27.99,27.43,-24.02
5362,-3.92,5.89,-3.97,2.12,0.31,-1.51,-27.99,27.43,-24.02
5373,-3.92,5.89,-3.97,2.12,0.31,-1.51,-27.99,27.43,-24.02
5385,-4.73,4.12,-3.70,2.05,0.54,-0.91,-27.99,27.43,-24.02
5395,-3.20,2.68,-4.54,1.13,0.40,-0.39,-22.71,16.12,-36.05
5406,-3.20,2.68,-4.54,1.13,0.40,-0.39,-22.71,16.12,-36.05
5417,-2.03,2.55,-3.40,-0.37,-0.50,0.20,-22.71,16.12,-36.05
5428,-2.03,2.55,-3.40,-0.37,-0.50,0.20,-22.71,16.12,-36.05
5439,0.17,5.62,-4.97,-2.08,-0.99,0.32,-22.71,16.12,-36.05
5450,0.17,5.62,-4.97,-2.08,-0.99,0.32,-22.71,16.12,-36.05
5461,-0.05,6.82,-4.37,-1.33,-1.28,0.02,-22.71,16.12,-36.05
5472,-0.05,6.82,-4.37,-1.33,-1.28,0.02,-22.71,16.12,-36.05
5483,-1.08,5.81,-1.76,-0.75,-1.57,-0.35,-22.71,16.12,-36.05
5494,-1.08,5.81,-1.76,-0.75,-1.57,-0.35,-22.71,16.12,-36.05
5505,-5.45,7.06,-3.16,-2.44,-1.74,-0.34,-22.71,16.12,-36.05
5516,-6.33,7.72,-1.57,-2.62,-1.47,-0.44,-29.21,21.94,-30.03
5527,-6.33,7.72,-1.57,-2.62,-1.47,-0.44,-29.21,21.94,-30.03
5538,-6.99,8.74,0.40,-4.40,-1.25,-0.81,-29.21,21.94,-30.03
5549,-6.99,8.74,0.40,-4.40,-1.25,-0.81,-29.21,21.94,-30.03
5560,-7.61,9.43,-0.03,-6.81,-1.06,-1.02,-29.21,21.94,-30.03
5571,-7.61,9.43,-0.03,-6.81,-1.06,-1.02,-29.21,21.94,-30.03
5582,-11.37,10.00,0.96,-7.64,-0.69,-0.87,-29.21,21.94,-30.03
5593,-11.37,10.00,0.96,-7.64,-0.69,-0.87,-29.21,21.94,-30.03
5604,-6.80,8.31,2.02,-9.72,-0.74,-0.84,-29.21,21.94,-30.03
5615,-5.08,6.28,2.16,-11.30,-1.02,-0.66,-29.21,21.94,-30.03
5626,-5.08,6.28,2.16,-11.30,-1.02,-0.66,-29.21,21.94,-30.03
5637,-5.35,6.14,3.11,-13.03,-1.31,-0.05,-34.28,29.53,6.22
5648,-5.35,6.14,3.11,-13.03,-1.31,-0.05,-34.28,29.53,6.22
5659,-6.89,14.39,5.27,-14.95,-1.70,0.50,-34.28,29.53,6.22
5670,-6.89,14.39,5.27,-14.95,-1.70,0.50,-34.28,29.53,6.22
5681,-4.02,8.98,6.34,-10.83,-1.28,-0.31,-34.28,29.53,6.22
5692,-4.02,8.98,6.34,-10.83,-1.28,-0.31,-34.28,29.53,6.22
5703,-3.53,3.78,9.26,-5.80,-0.62,-0.77,-34.28,29.53,6.22
5714,-3.53,3.78,9.26,-5.80,-0.62,-0.77,-34.28,29.53,6.22
5725,-4.27,-0.89,8.75,-4.06,-0.08,-0.52,-34.28,29.53,6.22
5736,-4.56,-1.32,6.96,-3.33,-0.22,0.65,-34.28,29.53,6.22
5747,-4.56,-1.32,6.96,-3.33,-0.22,0.65,-34.28,29.53,6.22
5758,-2.61,-2.27,7.62,0.34,-0.21,2.34,-34.28,29.53,6.22
5769,-2.61,-2.27,7.62,0.34,-0.21,2.34,-34.28,29.53,6.22
5780,-1.81,-0.45,8.16,3.76,0.18,4.24,-31.03,19.84,28.61
5791,-1.81,-0.45,8.16,3.76,0.18,4.24,-31.03,19.84,28.61
5802,-1.13,6.68,5.67,6.85,0.94,5.55,-31.03,19.84,28.61
5813,-1.13,6.68,5.67,6.85,0.94,5.55,-31.03,19.84,28.61
5824,-5.97,11.77,6.92,8.26,1.18,4.62,-31.03,19.84,28.61
5835,-7.26,8.57,8.71,6.24,1.19,2.61,-31.03,19.84,28.61
5846,-7.26,8.57,8.71,6.24,1.19,2.61,-31.03,19.84,28.61
5857,-5.07,9.06,5.89,0.55,0.77,1.20,-31.03,19.84,28.61
5868,-5.07,9.06,5.89,0.55,0.77,1.20,-31.03,19.84,28.61
5879,-4.13,8.54,8.14,-3.26,0.26,0.42,-31.03,19.84,28.61
5890,-4.13,8.54,8.14,-3.26,0.26,0.42,-31.03,19.84,28.61
5901,-5.15,6.17,9.40,-7.28,0.19,-0.17,-20.89,34.06,14.91
5912,-5.15,6.17,9.40,-7.28,0.19,-0.17,-20.89,34.06,14.91
5923,-5.60,6.87,7.50,-9.99,-0.33,-0.91,-20.89,34.06,14.91
5934,-5.60,6.87,7.50,-9.99,-0.33,-0.91,-20.89,34.06,14.91
5945,-4.84,7.41,6.28,-7.11,-0.56,-1.62,-20.89,34.06,14.91
5956,-4.54,1.47,9.63,-0.94,0.50,-1.40,-20.89,34.06,14.91
5967,-4.54,1.47,9.63,-0.94,0.50,-1.40,-20.89,34.06,14.91
5978,-6.77,1.49,9.56,-0.85,1.18,-0.72,-20.89,34.06,14.91
5989,-6.77,1.49,9.56,-0.85,1.18,-0.72,-20.89,34.06,14.91
6000,-6.86,2.38,11.54,-1.97,1.61,-0.55,-20.89,34.06,14.91
6011,-6.86,2.38,11.54,-1.97,1.61,-0.55,-20.89,34.06,14.91
6022,-5.96,2.31,9.76,-5.27,2.00,-1.03,-29.21,18.70,32.45
6033,-5.96,2.31,9.76,-5.27,2.00,-1.03,-29.21,18.70,32.45
6044,-5.09,0.65,8.04,-8.99,1.97,-1.33,-29.21,18.70,32.45
6055,-4.26,-2.85,7.92,-10.99,1.94,-1.03,-29.21,18.70,32.45
6066,-4.26,-2.85,7.92,-10.99,1.94,-1.03,-29.21,18.70,32.45
6077,-3.02,-3.82,3.76,-11.79,2.04,-0.21,-29.21,18.70,32.45
6088,-3.02,-3.82,3.76,-11.79,2.04,-0.21,-29.21,18.70,32.45
6099,-2.81,-3.07,-0.80,-10.17,1.51,0.55,-29.21,18.70,32.45
6110,-2.81,-3.07,-0.80,-10.17,1.51,0.55,-29.21,18.70,32.45
6121,-2.92,-3.24,-1.41,-6.88,0.42,0.85,-29.21,18.70,32.45
6132,-2.92,-3.24,-1.41,-6.88,0.42,0.85,-29.21,18.70,32.45
6143,-4.26,-4.30,0.88,-2.74,-0.60,1.02,-29.21,18.70,32.45
6154,-4.26,-4.30,0.88,-2.74,-0.60,1.02,-29.21,18.70,32.45
6165,-5.74,-6.14,5.60,-0.09,-0.98,1.11,-36.92,-14.26,29.45
6176,-6.90,-5.12,5.54,-0.13,-0.83,1.24,-36.92,-14.26,29.45
6187,-6.90,-5.12,5.54,-0.13,-0.83,1.24,-36.92,-14.26,29.45
6198,-5.61,-5.05,6.50,-0.50,-0.68,1.06,-36.92,-14.26,29.45
6209,-5.61,-5.05,6.50,-0.50,-0.68,1.06,-36.92,-14.26,29.45
6220,-5.56,-4.86,4.81,-2.26,-0.45,0.54,-36.92,-14.26,29.45
6231,-5.56,-4.86,4.81,-2.26,-0.45,0.54,-36.92,-14.26,29.45
6242,-9.28,-5.19,3.80,-1.48,-0.51,0.40,-36.92,-14.26,29.45
6253,-9.28,-5.19,3.80,-1.48,-0.51,0.40,-36.92,-14.26,29.45
6264,-8.13,-8.68,6.80,0.19,-0.56,0.46,-36.92,-14.26,29.45
6275,-8.13,-8.68,6.80,0.19,-0.56,0.46,-36.92,-14.26,29.45
6286,-6.89,-7.81,5.94,-1.31,-0.33,0.82,-34.08,-12.64,31.45
6297,-6.84,-5.55,3.16,-1.36,0.00,1.11,-34.08,-12.64,31.45
6308,-6.84,-5.55,3.16,-1.36,0.00,1.11,-34.08,-12.64,31.45
6319,-7.31,-3.89,1.84,1.13,0.02,1.21,-34.08,-12.64,31.45
6330,-7.31,-3.89,1.84,1.13,0.02,1.21,-34.08,-12.64,31.45
6341,-7.12,-4.32,3.29,3.41,-0.13,1.08,-34.08,-12.64,31.45
6352,-7.12,-4.32,3.29,3.41,-0.13,1.08,-34.08,-12.64,31.45
6363,-7.75,-2.93,4.17,3.05,-0.24,0.99,-34.08,-12.64,31.45
6374,-7.75,-2.93,4.17,3.05,-0.24,0.99,-34.08,-12.64,31.45
6385,-8.43,-2.70,5.32,1.94,-0.32,0.61,-34.08,-12.64,31.45
6396,-7.02,-4.77,5.70,0.65,-0.11,0.32,-33.47,-3.43,33.62
6407,-7.02,-4.77,5.70,0.65,-0.11,0.32,-33.47,-3.43,33.62
6418,-7.85,-4.52,3.50,-0.77,0.22,0.49,-33.47,-3.43,33.62
6429,-7.85,-4.52,3.50,-0.77,0.22,0.49,-33.47,-3.43,33.62
6440,-7.59,-2.84,2.39,-1.12,0.29,0.65,-33.47,-3.43,33.62
6451,-7.59,-2.84,2.39,-1.12,0.29,0.65,-33.47,-3.43,33.62
6462,-6.58,-5.87,3.90,-0.55,0.20,0.57,-33.47,-3.43,33.62
6473,-6.58,-5.87,3.90,-0.55,0.20,0.57,-33.47,-3.43,33.62
6484,-12.77,-5.94,5.93,1.11,0.22,0.95,-33.47,-3.43,33.62
6495,-12.77,-5.94,5.93,1.11,0.22,0.95,-33.47,-3.43,33.62
6506,-7.02,-0.97,4.73,0.57,-0.07,0.63,-33.47,-3.43,33.62
6517,-5.30,-1.58,7.20,0.25,-0.03,0.16,-34.89,-2.95,33.79
6528,-5.30,-1.58,7.20,0.25,-0.03,0.16,-34.89,-2.95,33.79
6539,-8.79,-2.42,4.85,-0.02,0.55,0.13,-34.89,-2.95,33.79
6550,-8.79,-2.42,4.85,-0.02,0.55,0.13,-34.89,-2.95,33.79
6561,-9.62,-2.66,4.51,-0.17,0.50,0.04,-34.89,-2.95,33.79
6572,-9.62,-2.66,4.51,-0.17,0.50,0.04,-34.89,-2.95,33.79
6583,-8.16,-3.51,4.59,-0.33,0.22,-0.23,-34.89,-2.95,33.79
6594,-8.16,-3.51,4.59,-0.33,0.22,-0.23,-34.89,-2.95,33.79
6605,-7.24,-4.88,4.17,-0.40,0.19,-0.36,-34.89,-2.95,33.79
6616,-7.06,-5.81,3.74,-0.37,0.36,-0.24,-34.89,-2.95,33.79
6627,-7.06,-5.81,3.74,-0.37,0.36,-0.24,-34.89,-2.95,33.79
6638,-7.96,-5.21,2.81,-0.21,0.49,-0.05,-34.89,-2.95,33.79
6649,-7.96,-5.21,2.81,-0.21,0.49,-0.05,-34.89,-2.95,33.79
6660,-8.61,-3.97,3.38,-0.02,0.29,0.02,-36.71,-4.40,33.62
6671,-8.61,-3.97,3.38,-0.02,0.29,0.02,-36.71,-4.40,33.62
6682,-8.32,-2.98,5.06,-0.09,0.13,0.01,-36.71,-4.40,33.62
6693,-8.32,-2.98,5.06,-0.09,0.13,0.01,-36.71,-4.40,33.62
6704,-8.40,-3.15,4.78,-0.23,0.30,-0.05,-36.71,-4.40,33.62
6715,-8.40,-3.15,4.78,-0.23,0.30,-0.05,-36.71,-4.40,33.62
6726,-8.27,-3.81,3.49,-0.25,0.37,-0.10,-36.71,-4.40,33.62
6737,-8.03,-4.21,3.92,-0.19,0.24,-0.10,-36.71,-4.40,33.62
6748,-8.03,-4.21,3.92,-0.19,0.24,-0.10,-36.71,-4.40,33.62
6759,-7.94,-4.41,3.86,-0.21,0.25,-0.11,-36.71,-4.40,33.62
6770,-7.94,-4.41,3.86,-0.21,0.25,-0.11,-36.71,-4.40,33.62
6781,-7.82,-4.69,3.03,-0.13,0.26,-0.06,-38.13,-4.89,29.45
6792,-7.82,-4.69,3.03,-0.13,0.26,-0.06,-38.13,-4.89,29.45
6803,-7.72,-4.26,3.49,-0.01,0.12,0.07,-38.13,-4.89,29.45
6814,-7.72,-4.26,3.49,-0.01,0.12,0.07,-38.13,-4.89,29.45
6825,-8.13,-3.80,4.16,0.09,0.06,0.18,-38.13,-4.89,29.45
6836,-8.36,-3.66,4.07,0.07,0.10,0.17,-38.13,-4.89,29.45
6847,-8.36,-3.66,4.07,0.07,0.10,0.17,-38.13,-4.89,29.45
6858,-8.60,-3.71,3.59,-0.01,0.12,0.12,-38.13,-4.89,29.45
6869,-8.60,-3.71,3.59,-0.01,0.12,0.12,-38.13,-4.89,29.45
6880,-8.12,-4.01,3.88,-0.06,0.07,0.06,-38.13,-4.89,29.45
6891,-8.12,-4.01,3.88,-0.06,0.07,0.06,-38.13,-4.89,29.45
6902,-8.21,-4.05,3.67,-0.05,0.08,0.08,-38.95,-3.27,28.78
6913,-8.21,-4.05,3.67,-0.05,0.08,0.08,-38.95,-3.27,28.78
6924,-8.14,-4.07,3.61,-0.02,0.12,0.14,-38.95,-3.27,28.78
6935,-8.14,-4.07,3.61,-0.02,0.12,0.14,-38.95,-3.27,28.78
6946,-8.40,-4.33,3.77,0.03,0.14,0.22,-38.95,-3.27,28.78
6957,-8.32,-3.74,3.78,0.01,0.13,0.31,-38.95,-3.27,28.78
6968,-8.32,-3.74,3.78,0.01,0.13,0.31,-38.95,-3.27,28.78
6979,-8.53,-3.17,3.92,-0.01,0.10,0.41,-38.95,-3.27,28.78
6990,-8.53,-3.17,3.92,-0.01,0.10,0.41,-38.95,-3.27,28.78
7001,-8.85,-2.90,3.93,-0.10,0.03,0.46,-38.95,-3.27,28.78
7012,-8.85,-2.90,3.93,-0.10,0.03,0.46,-38.95,-3.27,28.78
7023,-8.26,-3.22,3.49,-0.20,-0.07,0.34,-38.95,-3.27,28.78
7034,-8.26,-3.22,3.49,-0.20,-0.07,0.34,-38.95,-3.27,28.78
7045,-7.97,-3.60,3.27,-0.10,-0.17,0.28,-39.35,-2.95,29.11
7056,-8.25,-3.80,3.49,-0.03,-0.29,0.28,-39.35,-2.95,29.11
7067,-8.25,-3.80,3.49,-0.03,-0.29,0.28,-39.35,-2.95,29.11
7078,-8.43,-3.70,3.65,-0.05,-0.40,0.32,-39.35,-2.95,29.11
7090,-8.43,-3.70,3.65,-0.05,-0.40,0.32,-39.35,-2.95,29.11
7100,-8.19,-3.61,3.35,-0.04,-0.46,0.34,-39.35,-2.95,29.11
7111,-8.19,-3.61,3.35,-0.04,-0.46,0.34,-39.35,-2.95,29.11
7122,-8.19,-3.70,3.98,0.12,-0.55,0.35,-39.35,-2.95,29.11
7133,-8.19,-3.70,3.98,0.12,-0.55,0.35,-39.35,-2.95,29.11
7144,-7.99,-3.39,3.56,0.26,-0.64,0.36,-39.35,-2.95,29.11
7155,-7.99,-3.39,3.56,0.26,-0.64,0.36,-39.35,-2.95,29.11
7166,-7.98,-3.48,4.08,0.39,-0.69,0.31,-36.92,-1.98,31.12
7177,-7.81,-3.46,3.52,0.48,-0.67,0.27,-36.92,-1.98,31.12
7188,-7.81,-3.46,3.52,0.48,-0.67,0.27,-36.92,-1.98,31.12
7199,-8.76,-3.52,4.83,0.51,-0.69,0.25,-36.92,-1.98,31.12
7210,-8.76,-3.52,4.83,0.51,-0.69,0.25,-36.92,-1.98,31.12
7221,-8.52,-2.95,4.78,0.39,-0.57,0.18,-36.92,-1.98,31.12
7232,-8.52,-2.95,4.78,0.39,-0.57,0.18,-36.92,-1.98,31.12
7243,-8.38,-2.85,4.93,0.23,-0.48,0.08,-36.92,-1.98,31.12
7254,-8.38,-2.85,4.93,0.23,-0.48,0.08,-36.92,-1.98,31.12
7265,-8.43,-2.58,5.24,0.08,-0.34,0.00,-36.92,-1.98,31.12
7276,-8.21,-2.92,4.57,0.00,-0.17,-0.09,-36.92,-1.98,31.12
7287,-8.21,-2.92,4.57,0.00,-0.17,-0.09,-33.67,0.28,35.13
7298,-8.29,-3.27,4.35,0.07,-0.14,-0.12,-33.67,0.28,35.13
7309,-8.29,-3.27,4.35,0.07,-0.14,-0.12,-33.67,0.28,35.13
7320,-8.32,-3.15,5.12,0.08,-0.10,-0.13,-33.67,0.28,35.13
7331,-8.32,-3.15,5.12,0.08,-0.10,-0.13,-33.67,0.28,35.13
7342,-8.36,-3.12,5.17,-0.04,0.04,-0.17,-33.67,0.28,35.13
7353,-8.36,-3.12,5.17,-0.04,0.04,-0.17,-33.67,0.28,35.13
7364,-8.61,-2.68,5.27,-0.29,0.22,-0.18,-33.67,0.28,35.13
7375,-8.61,-2.68,5.27,-0.29,0.22,-0.18,-33.67,0.28,35.13
7386,-8.56,-2.85,4.64,-0.44,0.41,-0.23,-33.67,0.28,35.13
7397,-8.16,-2.82,4.14,-0.43,0.53,-0.22,-33.67,0.28,35.13
7408,-8.16,-2.82,4.14,-0.43,0.53,-0.22,-33.67,0.28,35.13
7419,-8.32,-3.26,4.60,-0.31,0.52,-0.20,-36.51,-0.69,34.12
7430,-8.32,-3.26,4.60,-0.31,0.52,-0.20,-36.51,-0.69,34.12
7441,-8.17,-2.94,4.25,-0.19,0.55,-0.15,-36.51,-0.69,34.12
7452,-8.17,-2.94,4.25,-0.19,0.55,-0.15,-36.51,-0.69,34.12
7463,-8.20,-3.31,4.61,-0.05,0.55,-0.16,-36.51,-0.69,34.12
7474,-8.20,-3.31,4.61,-0.05,0.55,-0.16,-36.51,-0.69,34.12
7485,-7.91,-3.45,4.66,0.02,0.52,-0.11,-36.51,-0.69,34.12
7496,-7.91,-3.45,4.66,0.02,0.52,-0.11,-36.51,-0.69,34.12
7507,-8.27,-3.51,4.29,-0.03,0.49,-0.10,-36.51,-0.69,34.12
7518,-8.22,-3.45,3.25,-0.10,0.53,-0.07,-36.51,-0.69,34.12
7529,-8.22,-3.45,3.25,-0.10,0.53,-0.07,-36.51,-0.69,34.12
7540,-8.58,-3.47,3.92,-0.09,0.46,-0.05,-37.93,-1.82,30.28
7551,-8.58,-3.47,3.92,-0.09,0.46,-0.05,-37.93,-1.82,30.28
7562,-8.25,-3.50,4.12,-0.06,0.44,0.00,-37.93,-1.82,30.28
7573,-8.25,-3.50,4.12,-0.06,0.44,0.00,-37.93,-1.82,30.28
7584,-8.22,-3.11,4.53,-0.12,0.41,0.02,-37.93,-1.82,30.28
7595,-8.22,-3.11,4.53,-0.12,0.41,0.02,-37.93,-1.82,30.28
7606,-8.32,-3.68,4.20,-0.18,0.40,0.07,-37.93,-1.82,30.28
7617,-8.42,-3.67,3.73,-0.28,0.36,0.17,-37.93,-1.82,30.28
7628,-8.42,-3.67,3.73,-0.28,0.36,0.17,-37.93,-1.82,30.28
7639,-8.40,-3.31,3.47,-0.34,0.29,0.23,-37.93,-1.82,30.28
7650,-8.40,-3.31,3.47,-0.34,0.29,0.23,-37.93,-1.82,30.28
7661,-8.50,-3.40,3.75,-0.37,0.19,0.26,-40.37,-1.82,28.94
7672,-8.50,-3.40,3.75,-0.37,0.19,0.26,-40.37,-1.82,28.94
7683,-8.55,-3.28,3.20,-0.39,0.11,0.31,-40.37,-1.82,28.94
7694,-8.55,-3.28,3.20,-0.39,0.11,0.31,-40.37,-1.82,28.94
7705,-8.67,-3.24,3.21,-0.30,-0.06,0.36,-40.37,-1.82,28.94
7716,-8.67,-3.24,3.21,-0.30,-0.06,0.36,-40.37,-1.82,28.94
7727,-8.08,-3.42,3.18,-0.15,-0.22,0.37,-40.37,-1.82,28.94
7738,-8.49,-2.89,3.25,-0.09,-0.33,0.38,-40.37,-1.82,28.94
7749,-8.49,-2.89,3.25,-0.09,-0.33,0.38,-40.37,-1.82,28.94
7760,-8.35,-3.41,3.43,-0.01,-0.41,0.30,-40.37,-1.82,28.94
7771,-8.35,-3.41,3.43,-0.01,-0.41,0.30,-40.37,-1.82,28.94
7782,-8.32,-2.87,3.59,0.06,-0.48,0.29,-40.37,-1.82,28.94
7793,-8.32,-2.87,3.59,0.06,-0.48,0.29,-40.37,-1.82,28.94
7804,-8.44,-2.99,3.74,0.08,-0.54,0.24,-40.37,-1.82,28.94
7815,-8.44,-2.99,3.74,0.08,-0.54,0.24,-40.37,-1.82,28.94
7826,-8.17,-3.13,3.56,0.09,-0.55,0.16,-40.37,-1.82,28.94
7837,-7.99,-3.11,3.82,0.19,-0.62,0.13,-40.37,-1.82,28.94
7848,-7.99,-3.11,3.82,0.19,-0.62,0.13,-40.37,-1.82,28.94
7859,-8.28,-2.98,3.92,0.27,-0.67,0.14,-40.37,-1.82,28.94
7870,-8.28,-2.98,3.92,0.27,-0.67,0.14,-40.37,-1.82,28.94
7881,-8.50,-2.79,4.64,0.21,-0.60,0.11,-40.37,-1.82,28.94
7892,-8.50,-2.79,4.64,0.21,-0.60,0.11,-40.37,-1.82,28.94
7903,-8.34,-3.01,4.33,0.15,-0.46,0.03,-40.37,-1.82,28.94
7914,-8.34,-3.01,4.33,0.15,-0.46,0.03,-40.37,-1.82,28.94
7925,-8.34,-3.05,4.38,0.17,-0.42,-0.02,-34.48,0.28,34.12
7936,-8.34,-3.05,4.38,0.17,-0.42,-0.02,-34.48,0.28,34.12
7947,-8.39,-3.09,4.44,0.15,-0.41,-0.02,-34.48,0.28,34.12
7964,-8.47,-2.91,4.70,0.05,-0.33,-0.02,-34.48,0.28,34.12
7969,-8.47,-2.91,4.70,0.05,-0.33,-0.02,-34.48,0.28,34.12
7980,-8.56,-2.58,4.91,-0.05,-0.18,-0.05,-34.48,0.28,34.12
7991,-8.56,-2.58,4.91,-0.05,-0.18,-0.05,-34.48,0.28,34.12
8002,-8.53,-2.81,4.36,-0.15,-0.06,-0.12,-34.48,0.28,34.12
8013,-8.53,-2.81,4.36,-0.15,-0.06,-0.12,-34.48,0.28,34.12
8024,-8.59,-2.98,4.55,-0.17,0.01,-0.13,-34.48,0.28,34.12
8035,-8.59,-2.98,4.55,-0.17,0.01,-0.13,-34.48,0.28,34.12
8046,-8.49,-2.96,4.97,-0.25,0.11,-0.15,-34.08,-1.01,33.46
8057,-8.46,-3.10,4.21,-0.34,0.27,-0.18,-34.08,-1.01,33.46
8068,-8.46,-3.10,4.21,-0.34,0.27,-0.18,-34.08,-1.01,33.46
8079,-8.42,-3.32,4.23,-0.28,0.29,-0.13,-34.08,-1.01,33.46
8090,-8.42,-3.32,4.23,-0.28,0.29,-0.13,-34.08,-1.01,33.46
8101,-8.58,-3.03,4.98,-0.19,0.30,-0.07,-34.08,-1.01,33.46
8112,-8.58,-3.03,4.98,-0.19,0.30,-0.07,-34.08,-1.01,33.46
8123,-8.52,-3.33,3.85,-0.13,0.39,-0.09,-34.08,-1.01,33.46
8134,-8.52,-3.33,3.85,-0.13,0.39,-0.09,-34.08,-1.01,33.46
8145,-8.35,-2.91,3.77,-0.05,0.39,-0.02,-34.08,-1.01,33.46
8156,-8.35,-2.91,3.77,-0.05,0.39,-0.02,-34.08,-1.01,33.46
8167,-8.53,-2.84,4.13,0.02,0.39,-0.04,-36.51,-0.69,29.78
8178,-8.26,-2.98,4.14,0.09,0.39,-0.03,-36.51,-0.69,29.78
8189,-8.26,-2.98,4.14,0.09,0.39,-0.03,-36.51,-0.69,29.78
8201,-8.22,-2.83,4.51,0.15,0.35,-0.02,-36.51,-0.69,29.78
8211,-8.22,-2.83,4.51,0.15,0.35,-0.02,-36.51,-0.69,29.78
8222,-8.42,-3.15,4.65,0.13,0.38,-0.05,-36.51,-0.69,29.78
8233,-8.42,-3.15,4.65,0.13,0.38,-0.05,-36.51,-0.69,29.78
8244,-8.62,-3.15,3.83,0.07,0.43,-0.06,-36.51,-0.69,29.78
8255,-8.62,-3.15,3.83,0.07,0.43,-0.06,-36.51,-0.69,29.78
8266,-8.52,-3.23,4.93,0.07,0.43,-0.06,-36.51,-0.69,29.78
8277,-8.40,-3.15,3.64,0.08,0.47,-0.03,-36.51,-0.69,29.78
8288,-8.40,-3.15,3.64,0.08,0.47,-0.03,-36.51,-0.69,29.78
8299,-8.73,-3.36,3.08,0.09,0.38,0.01,-39.96,-0.85,28.61
8310,-8.73,-3.36,3.08,0.09,0.38,0.01,-39.96,-0.85,28.61
8321,-8.88,-2.71,4.43,0.02,0.33,0.07,-39.96,-0.85,28.61
8332,-8.88,-2.71,4.43,0.02,0.33,0.07,-39.96,-0.85,28.61
8343,-8.39,-3.32,3.65,-0.07,0.41,0.04,-39.96,-0.85,28.61
8354,-8.39,-3.32,3.65,-0.07,0.41,0.04,-39.96,-0.85,28.61
8365,-8.54,-3.16,3.58,-0.14,0.35,0.09,-39.96,-0.85,28.61
8376,-8.54,-3.16,3.58,-0.14,0.35,0.09,-39.96,-0.85,28.61
8387,-8.60,-3.09,3.36,-0.21,0.31,0.16,-39.96,-0.85,28.61
8398,-8.77,-2.89,3.27,-0.24,0.21,0.23,-39.96,-0.85,28.61
8409,-8.77,-2.89,3.27,-0.24,0.21,0.23,-39.96,-0.85,28.61
8420,-8.74,-2.37,3.57,-0.28,0.10,0.33,-38.54,-0.69,28.11
8431,-8.74,-2.37,3.57,-0.28,0.10,0.33,-38.54,-0.69,28.11
8442,-8.65,-2.70,3.34,-0.30,-0.01,0.33,-38.54,-0.69,28.11
8453,-8.65,-2.70,3.34,-0.30,-0.01,0.33,-38.54,-0.69,28.11
8464,-8.76,-2.52,3.48,-0.23,-0.10,0.37,-38.54,-0.69,28.11
8475,-8.76,-2.52,3.48,-0.23,-0.10,0.37,-38.54,-0.69,28.11
8486,-8.43,-3.11,2.66,-0.06,-0.20,0.32,-38.54,-0.69,28.11
8497,-8.43,-3.11,2.66,-0.06,-0.20,0.32,-38.54,-0.69,28.11
8508,-8.29,-2.89,3.56,-0.03,-0.37,0.35,-38.54,-0.69,28.11
8519,-8.57,-2.50,3.46,-0.04,-0.48,0.32,-38.54,-0.69,28.11
8530,-8.57,-2.50,3.46,-0.04,-0.48,0.32,-38.54,-0.69,28.11
8541,-8.67,-2.70,3.57,0.05,-0.52,0.22,-40.16,-1.01,29.78
8552,-8.67,-2.70,3.57,0.05,-0.52,0.22,-40.16,-1.01,29.78
8563,-8.78,-2.79,3.43,0.06,-0.54,0.14,-40.16,-1.01,29.78
8574,-8.78,-2.79,3.43,0.06,-0.54,0.14,-40.16,-1.01,29.78
8585,-8.95,-2.94,3.79,0.07,-0.55,0.14,-40.16,-1.01,29.78
8596,-8.95,-2.94,3.79,0.07,-0.55,0.14,-40.16,-1.01,29.78
8607,-8.85,-2.45,3.76,0.10,-0.58,0.17,-40.16,-1.01,29.78
8618,-8.32,-2.68,3.85,0.10,-0.60,0.13,-40.16,-1.01,29.78
8629,-8.32,-2.68,3.85,0.10,-0.60,0.13,-40.16,-1.01,29.78
8640,-8.50,-2.79,4.04,0.21,-0.64,0.12,-40.16,-1.01,29.78
8651,-8.50,-2.79,4.04,0.21,-0.64,0.12,-40.16,-1.01,29.78
8662,-8.82,-2.53,4.72,0.28,-0.63,0.11,-40.16,-1.01,29.78
8673,-8.82,-2.53,4.72,0.28,-0.63,0.11,-40.16,-1.01,29.78
8684,-8.85,-2.26,4.39,0.19,-0.52,0.04,-35.09,1.09,32.29
8695,-8.85,-2.26,4.39,0.19,-0.52,0.04,-35.09,1.09,32.29
8706,-8.57,-2.45,4.43,0.13,-0.40,-0.04,-35.09,1.09,32.29
8717,-8.57,-2.45,4.43,0.13,-0.40,-0.04,-35.09,1.09,32.29
8728,-8.59,-2.48,4.86,0.09,-0.34,-0.10,-35.09,1.09,32.29
8739,-8.71,-2.35,5.09,-0.04,-0.22,-0.13,-35.09,1.09,32.29
8750,-8.71,-2.35,5.09,-0.04,-0.22,-0.13,-35.09,1.09,32.29
8761,-8.69,-2.40,4.84,-0.20,-0.04,-0.19,-35.09,1.09,32.29
8772,-8.69,-2.40,4.84,-0.20,-0.04,-0.19,-35.09,1.09,32.29
8783,-8.53,-2.60,4.15,-0.21,0.07,-0.22,-35.09,1.09,32.29
8794,-8.53,-2.60,4.15,-0.21,0.07,-0.22,-35.09,1.09,32.29
8805,-8.74,-2.89,4.32,-0.13,0.10,-0.22,-35.09,1.41,31.62
8816,-8.74,-2.89,4.32,-0.13,0.10,-0.22,-35.09,1.41,31.62
8827,-8.67,-2.52,5.26,-0.18,0.18,-0.18,-35.09,1.41,31.62
8838,-8.50,-2.56,4.22,-0.30,0.37,-0.22,-35.09,1.41,31.62
8849,-8.50,-2.56,4.22,-0.30,0.37,-0.22,-35.09,1.41,31.62
8860,-8.49,-2.74,5.03,-0.22,0.37,-0.17,-35.09,1.41,31.62
8871,-8.49,-2.74,5.03,-0.22,0.37,-0.17,-35.09,1.41,31.62
8882,-8.50,-3.05,4.20,-0.18,0.43,-0.14,-35.09,1.41,31.62
8893,-8.50,-3.05,4.20,-0.18,0.43,-0.14,-35.09,1.41,31.62
8904,-8.61,-2.80,4.04,-0.17,0.46,-0.10,-35.09,1.41,31.62
8915,-8.61,-2.80,4.04,-0.17,0.46,-0.10,-35.09,1.41,31.62
8926,-8.44,-2.81,3.28,-0.15,0.51,-0.07,-38.54,-1.01,30.78
8937,-8.44,-2.81,3.28,-0.15,0.51,-0.07,-38.54,-1.01,30.78
8948,-8.72,-2.61,3.69,-0.11,0.46,-0.03,-38.54,-1.01,30.78
8959,-8.79,-2.70,4.25,-0.12,0.50,-0.04,-38.54,-1.01,30.78
8970,-8.79,-2.70,4.25,-0.12,0.50,-0.04,-38.54,-1.01,30.78
8981,-8.85,-2.21,3.83,-0.19,0.53,-0.05,-38.54,-1.01,30.78
8992,-8.85,-2.21,3.83,-0.19,0.53,-0.05,-38.54,-1.01,30.78
9003,-8.69,-2.80,3.34,-0.27,0.57,-0.10,-38.54,-1.01,30.78
9014,-8.69,-2.80,3.34,-0.27,0.57,-0.10,-38.54,-1.01,30.78
9025,-8.54,-2.89,3.18,-0.24,0.53,-0.05,-38.54,-1.01,30.78
9036,-8.54,-2.89,3.18,-0.24,0.53,-0.05,-38.54,-1.01,30.78
9047,-8.87,-2.39,3.36,-0.20,0.43,-0.03,-38.54,-1.01,30.78
9058,-8.68,-2.73,3.03,-0.16,0.41,-0.01,-37.93,-2.46,29.28
9069,-8.68,-2.73,3.03,-0.16,0.41,-0.01,-37.93,-2.46,29.28
9080,-8.79,-2.89,4.11,-0.13,0.28,0.05,-37.93,-2.46,29.28
9091,-8.79,-2.89,4.11,-0.13,0.28,0.05,-37.93,-2.46,29.28
9102,-8.54,-2.80,3.04,-0.11,0.26,0.12,-37.93,-2.46,29.28
9113,-8.54,-2.80,3.04,-0.11,0.26,0.12,-37.93,-2.46,29.28
9124,-8.60,-3.09,3.01,-0.05,0.10,0.13,-37.93,-2.46,29.28
9135,-8.60,-3.09,3.01,-0.05,0.10,0.13,-37.93,-2.46,29.28
9146,-8.51,-2.89,2.97,-0.04,-0.01,0.20,-37.93,-2.46,29.28
9157,-8.51,-2.89,2.97,-0.04,-0.01,0.20,-37.93,-2.46,29.28
9168,-8.64,-2.78,3.45,-0.07,-0.14,0.23,-37.93,-2.46,29.28
9179,-8.71,-2.94,3.53,-0.14,-0.18,0.25,-39.76,-1.98,29.11
9190,-8.71,-2.94,3.53,-0.14,-0.18,0.25,-39.76,-1.98,29.11
9201,-8.67,-2.80,3.40,-0.13,-0.24,0.28,-39.76,-1.98,29.11
9212,-8.67,-2.80,3.40,-0.13,-0.24,0.28,-39.76,-1.98,29.11
9223,-8.46,-3.10,3.58,-0.09,-0.33,0.24,-39.76,-1.98,29.11
9234,-8.46,-3.10,3.58,-0.09,-0.33,0.24,-39.76,-1.98,29.11
9245,-8.45,-3.25,3.05,-0.00,-0.40,0.19,-39.76,-1.98,29.11
9256,-8.45,-3.25,3.05,-0.00,-0.40,0.19,-39.76,-1.98,29.11
9267,-8.87,-3.15,3.36,0.12,-0.55,0.15,-39.76,-1.98,29.11
9278,-8.54,-2.82,3.43,0.18,-0.57,0.11,-39.76,-1.98,29.11
9289,-8.54,-2.82,3.43,0.18,-0.57,0.11,-39.76,-1.98,29.11
9300,-8.23,-2.69,3.75,0.27,-0.62,0.12,-37.73,-1.33,30.78
9311,-8.23,-2.69,3.75,0.27,-0.62,0.12,-37.73,-1.33,30.78
9322,-8.46,-2.62,3.65,0.28,-0.68,0.07,-37.73,-1.33,30.78
9333,-8.46,-2.62,3.65,0.28,-0.68,0.07,-37.73,-1.33,30.78
9344,-8.73,-2.80,3.98,0.27,-0.76,0.02,-37.73,-1.33,30.78
9355,-8.73,-2.80,3.98,0.27,-0.76,0.02,-37.73,-1.33,30.78
9366,-8.80,-2.68,4.52,0.20,-0.71,-0.01,-37.73,-1.33,30.78
9377,-8.80,-2.68,4.52,0.20,-0.71,-0.01,-37.73,-1.33,30.78
9388,-9.05,-2.24,5.00,0.17,-0.53,-0.01,-37.73,-1.33,30.78
9399,-8.42,-2.58,4.45,0.09,-0.38,-0.06,-37.73,-1.33,30.78
9410,-8.42,-2.58,4.45,0.09,-0.38,-0.06,-37.73,-1.33,30.78
9421,-8.79,-2.49,4.65,0.06,-0.32,-0.06,-34.48,-0.04,33.12
9432,-8.79,-2.49,4.65,0.06,-0.32,-0.06,-34.48,-0.04,33.12
9443,-8.80,-2.49,4.69,-0.01,-0.22,-0.08,-34.48,-0.04,33.12
9454,-8.80,-2.49,4.69,-0.01,-0.22,-0.08,-34.48,-0.04,33.12
9465,-8.80,-2.22,4.57,-0.17,-0.06,-0.13,-34.48,-0.04,33.12
9476,-8.80,-2.22,4.57,-0.17,-0.06,-0.13,-34.48,-0.04,33.12
9487,-8.79,-2.55,4.73,-0.25,0.07,-0.21,-34.48,-0.04,33.12
9498,-8.73,-2.74,4.64,-0.31,0.23,-0.26,-34.48,-0.04,33.12
9509,-8.73,-2.74,4.64,-0.31,0.23,-0.26,-34.48,-0.04,33.12
9520,-8.68,-2.40,3.60,-0.37,0.41,-0.25,-34.48,-0.04,33.12
9531,-8.68,-2.40,3.60,-0.37,0.41,-0.25,-34.48,-0.04,33.12
9542,-8.84,-2.77,4.62,-0.39,0.47,-0.23,-34.48,-0.04,33.12
9553,-8.84,-2.77,4.62,-0.39,0.47,-0.23,-34.48,-0.04,33.12
9564,-8.64,-2.89,3.89,-0.38,0.61,-0.19,-35.70,-1.01,32.45
9575,-8.64,-2.89,3.89,-0.38,0.61,-0.19,-35.70,-1.01,32.45
9586,-8.47,-2.91,4.09,-0.26,0.61,-0.12,-35.70,-1.01,32.45
9597,-8.47,-2.91,4.09,-0.26,0.61,-0.12,-35.70,-1.01,32.45
9608,-8.52,-3.14,3.84,-0.15,0.58,-0.09,-35.70,-1.01,32.45
9619,-8.65,-2.93,4.31,-0.16,0.54,-0.04,-35.70,-1.01,32.45
9630,-8.65,-2.93,4.31,-0.16,0.54,-0.04,-35.70,-1.01,32.45
9641,-8.64,-2.48,4.08,-0.19,0.55,-0.04,-35.70,-1.01,32.45
9652,-8.64,-2.48,4.08,-0.19,0.55,-0.04,-35.70,-1.01,32.45
9663,-8.62,-2.97,3.38,-0.18,0.57,-0.04,-35.70,-1.01,32.45
9674,-8.62,-2.97,3.38,-0.18,0.57,-0.04,-35.70,-1.01,32.45
9685,-8.77,-2.48,3.03,-0.23,0.52,0.03,-39.35,-1.33,29.78
9696,-8.77,-2.48,3.03,-0.23,0.52,0.03,-39.35,-1.33,29.78
9707,-8.55,-2.88,3.39,-0.23,0.45,0.05,-39.35,-1.33,29.78
9718,-8.55,-2.88,3.39,-0.23,0.45,0.05,-39.35,-1.33,29.78
9729,-8.78,-2.94,2.77,-0.24,0.39,0.02,-39.35,-1.33,29.78
9740,-8.67,-2.90,3.38,-0.16,0.30,0.07,-39.35,-1.33,29.78
9751,-8.67,-2.90,3.38,-0.16,0.30,0.07,-39.35,-1.33,29.78
9762,-8.53,-2.72,3.17,-0.09,0.23,0.11,-39.35,-1.33,29.78
9773,-8.53,-2.72,3.17,-0.09,0.23,0.11,-39.35,-1.33,29.78
9784,-8.70,-2.84,2.99,-0.05,0.08,0.11,-39.35,-1.33,29.78
9795,-8.70,-2.84,2.99,-0.05,0.08,0.11,-39.35,-1.33,29.78
9806,-8.48,-3.13,3.04,-0.05,-0.07,0.16,-39.15,-2.79,28.28
9817,-8.48,-3.13,3.04,-0.05,-0.07,0.16,-39.15,-2.79,28.28
9828,-8.68,-3.06,3.02,-0.03,-0.21,0.20,-39.15,-2.79,28.28
9839,-8.72,-3.08,3.31,0.01,-0.34,0.21,-39.15,-2.79,28.28
9850,-8.72,-3.08,3.31,0.01,-0.34,0.21,-39.15,-2.79,28.28
9861,-8.85,-2.94,3.17,0.09,-0.40,0.19,-39.15,-2.79,28.28
9872,-8.85,-2.94,3.17,0.09,-0.40,0.19,-39.15,-2.79,28.28
9884,-8.20,-3.04,3.01,0.16,-0.50,0.12,-39.15,-2.79,28.28
9894,-8.20,-3.04,3.01,0.16,-0.50,0.12,-39.15,-2.79,28.28
9905,-8.62,-3.17,3.62,0.20,-0.60,0.09,-39.15,-2.79,28.28
9916,-8.62,-3.17,3.62,0.20,-0.60,0.09,-39.15,-2.79,28.28
9927,-9.12,-2.64,3.97,0.25,-0.58,0.11,-39.15,-2.79,28.28
9938,-9.12,-2.64,3.97,0.25,-0.58,0.11,-39.15,-2.79,28.28
9949,-8.36,-2.58,3.61,0.24,-0.54,0.07,-37.73,-1.33,30.11
9960,-8.37,-2.57,3.61,0.25,-0.56,0.05,-37.73,-1.33,30.11
9971,-8.37,-2.57,3.61,0.25,-0.56,0.05,-37.73,-1.33,30.11
9982,-8.14,-2.88,4.52,0.25,-0.57,-0.01,-37.73,-1.33,30.11
9993,-8.14,-2.88,4.52,0.25,-0.57,-0.01,-37.73,-1.33,30.11
10004,-8.60,-3.01,3.46,0.30,-0.50,-0.04,-37.73,-1.33,30.11
10015,-8.60,-3.01,3.46,0.30,-0.50,-0.04,-37.73,-1.33,30.11
10026,-8.94,-3.12,4.54,0.28,-0.55,-0.03,-37.73,-1.33,30.11
10037,-8.94,-3.12,4.54,0.28,-0.55,-0.03,-37.73,-1.33,30.11
10048,-8.92,-2.57,4.85,0.12,-0.37,-0.03,-37.73,-1.33,30.11
10059,-8.76,-2.45,4.55,0.00,-0.17,-0.08,-35.90,0.44,32.95
10070,-8.76,-2.45,4.55,0.00,-0.17,-0.08,-35.90,0.44,32.95
10081,-8.81,-2.73,4.45,-0.09,-0.08,-0.11,-35.90,0.44,32.95
10092,-8.81,-2.73,4.45,-0.09,-0.08,-0.11,-35.90,0.44,32.95
10103,-8.68,-2.34,4.20,-0.14,0.00,-0.12,-35.90,0.44,32.95
10114,-8.68,-2.34,4.20,-0.14,0.00,-0.12,-35.90,0.44,32.95
10125,-8.78,-2.55,4.49,-0.18,0.07,-0.16,-35.90,0.44,32.95
10136,-8.78,-2.55,4.49,-0.18,0.07,-0.16,-35.90,0.44,32.95
10147,-8.90,-2.62,5.46,-0.31,0.21,-0.22,-35.90,0.44,32.95
10158,-8.90,-2.62,5.46,-0.31,0.21,-0.22,-35.90,0.44,32.95
10169,-8.67,-3.21,4.03,-0.41,0.42,-0.29,-35.90,0.44,32.95
10180,-8.49,-3.24,3.34,-0.43,0.48,-0.25,-35.90,-0.85,31.62
10191,-8.49,-3.24,3.34,-0.43,0.48,-0.25,-35.90,-0.85,31.62
10202,-8.82,-3.12,4.09,-0.38,0.42,-0.17,-35.90,-0.85,31.62
10213,-8.82,-3.12,4.09,-0.38,0.42,-0.17,-35.90,-0.85,31.62
10224,-8.71,-2.82,3.92,-0.36,0.50,-0.15,-35.90,-0.85,31.62
10235,-8.71,-2.82,3.92,-0.36,0.50,-0.15,-35.90,-0.85,31.62
10246,-8.50,-3.04,3.80,-0.33,0.57,-0.17,-35.90,-0.85,31.62
10257,-8.50,-3.04,3.80,-0.33,0.57,-0.17,-35.90,-0.85,31.62
10268,-8.50,-3.02,3.93,-0.25,0.51,-0.11,-35.90,-0.85,31.62
10279,-8.53,-3.21,3.66,-0.23,0.50,-0.08,-35.90,-0.85,31.62
10290,-8.53,-3.21,3.66,-0.23,0.50,-0.08,-35.90,-0.85,31.62
10301,-8.73,-2.94,3.53,-0.21,0.47,-0.03,-35.90,-0.85,31.62
10317,-8.73,-2.94,3.53,-0.21,0.47,-0.03,-35.90,-0.85,31.62
10323,-8.42,-3.36,3.57,-0.21,0.43,0.01,-38.34,-3.11,29.61
10334,-8.42,-3.36,3.57,-0.21,0.43,0.01,-38.34,-3.11,29.61
10345,-8.85,-2.70,3.58,-0.23,0.35,0.05,-38.34,-3.11,29.61
10356,-8.85,-2.70,3.58,-0.23,0.35,0.05,-38.34,-3.11,29.61
10367,-8.73,-3.39,3.74,-0.22,0.36,0.01,-38.34,-3.11,29.61
10378,-8.73,-3.39,3.74,-0.22,0.36,0.01,-38.34,-3.11,29.61
10389,-8.71,-3.10,2.63,-0.24,0.40,0.02,-38.34,-3.11,29.61
10400,-8.91,-2.58,2.53,-0.19,0.31,0.08,-38.34,-3.11,29.61
10411,-8.91,-2.58,2.53,-0.19,0.31,0.08,-38.34,-3.11,29.61
10422,-8.82,-2.51,2.33,-0.11,0.17,0.13,-38.34,-3.11,29.61
10433,-8.82,-2.51,2.33,-0.11,0.17,0.13,-38.34,-3.11,29.61
10444,-8.48,-3.67,3.16,-0.04,-0.03,0.14,-40.16,-4.24,28.78
10460,-8.48,-3.67,3.16,-0.04,-0.03,0.14,-40.16,-4.24,28.78
10466,-8.75,-3.14,3.29,-0.02,-0.15,0.18,-40.16,-4.24,28.78
10477,-8.75,-3.14,3.29,-0.02,-0.15,0.18,-40.16,-4.24,28.78
10488,-8.57,-2.67,2.58,-0.04,-0.26,0.20,-40.16,-4.24,28.78
10499,-8.43,-3.51,3.54,0.04,-0.40,0.16,-40.16,-4.24,28.78
10510,-8.43,-3.51,3.54,0.04,-0.40,0.16,-40.16,-4.24,28.78
10521,-8.23,-3.16,2.58,0.18,-0.48,0.14,-40.16,-4.24,28.78
10532,-8.23,-3.16,2.58,0.18,-0.48,0.14,-40.16,-4.24,28.78
10543,-8.50,-3.06,3.51,0.27,-0.62,0.12,-40.16,-4.24,28.78
10554,-8.50,-3.06,3.51,0.27,-0.62,0.12,-40.16,-4.24,28.78
10565,-9.12,-2.77,4.26,0.28,-0.61,0.07,-37.32,-1.98,31.78
10576,-9.12,-2.77,4.26,0.28,-0.61,0.07,-37.32,-1.98,31.78
10587,-8.67,-2.79,3.61,0.28,-0.54,0.03,-37.32,-1.98,31.78
10598,-8.67,-2.79,3.61,0.28,-0.54,0.03,-37.32,-1.98,31.78
10609,-8.22,-3.08,3.90,0.22,-0.51,0.01,-37.32,-1.98,31.78
10620,-8.20,-3.30,3.93,0.12,-0.47,-0.01,-37.32,-1.98,31.78
10631,-8.20,-3.30,3.93,0.12,-0.47,-0.01,-37.32,-1.98,31.78
10642,-8.85,-3.12,3.87,0.04,-0.47,-0.04,-37.32,-1.98,31.78
10653,-8.85,-3.12,3.87,0.04,-0.47,-0.04,-37.32,-1.98,31.78
10664,-8.76,-3.18,4.47,-0.11,-0.44,-0.11,-37.32,-1.98,31.78
10675,-8.76,-3.18,4.47,-0.11,-0.44,-0.11,-37.32,-1.98,31.78
10686,-8.79,-3.10,3.82,-0.08,-0.28,-0.14,-36.11,-2.63,33.12
10697,-8.79,-3.10,3.82,-0.08,-0.28,-0.14,-36.11,-2.63,33.12
10708,-8.67,-3.19,3.75,-0.05,-0.20,-0.15,-36.11,-2.63,33.12
10719,-8.67,-3.19,3.75,-0.05,-0.20,-0.15,-36.11,-2.63,33.12
10730,-8.75,-2.79,4.06,-0.03,-0.14,-0.14,-36.11,-2.63,33.12
10741,-8.73,-2.99,4.00,0.01,-0.05,-0.16,-36.11,-2.63,33.12
10752,-8.73,-2.99,4.00,0.01,-0.05,-0.16,-36.11,-2.63,33.12
10763,-8.83,-2.91,4.93,-0.11,0.07,-0.20,-36.11,-2.63,33.12
10774,-8.83,-2.91,4.93,-0.11,0.07,-0.20,-36.11,-2.63,33.12
10785,-8.77,-2.94,4.56,-0.28,0.30,-0.25,-36.11,-2.63,33.12
10796,-8.77,-2.94,4.56,-0.28,0.30,-0.25,-36.11,-2.63,33.12
10808,-8.75,-3.06,4.00,-0.38,0.45,-0.25,-36.11,-2.63,33.12
10818,-8.75,-3.06,4.00,-0.38,0.45,-0.25,-36.11,-2.63,33.12
10829,-8.65,-3.47,3.83,-0.47,0.51,-0.21,-35.70,-4.89,30.45
10840,-8.35,-3.51,3.34,-0.41,0.54,-0.09,-35.70,-4.89,30.45
10851,-8.35,-3.51,3.34,-0.41,0.54,-0.09,-35.70,-4.89,30.45
10862,-8.67,-3.31,2.92,-0.29,0.49,-0.03,-35.70,-4.89,30.45
10873,-8.67,-3.31,2.92,-0.29,0.49,-0.03,-35.70,-4.89,30.45
10884,-8.62,-3.39,3.83,-0.16,0.43,0.01,-35.70,-4.89,30.45
10895,-8.62,-3.39,3.83,-0.16,0.43,0.01,-35.70,-4.89,30.45
10906,-8.71,-3.00,3.41,-0.16,0.43,0.04,-35.70,-4.89,30.45
10917,-8.71,-3.00,3.41,-0.16,0.43,0.04,-35.70,-4.89,30.45
10928,-8.69,-2.87,3.51,-0.19,0.44,0.05,-35.70,-4.89,30.45
10939,-8.69,-2.87,3.51,-0.19,0.44,0.05,-35.70,-4.89,30.45
10950,-8.62,-3.30,3.76,-0.18,0.43,0.04,-39.76,-2.63,30.11
10961,-8.70,-3.80,3.33,-0.18,0.38,0.04,-39.76,-2.63,30.11
10972,-8.70,-3.80,3.33,-0.18,0.38,0.04,-39.76,-2.63,30.11
10983,-8.69,-3.39,2.96,-0.16,0.36,0.08,-39.76,-2.63,30.11
10994,-8.69,-3.39,2.96,-0.16,0.36,0.08,-39.76,-2.63,30.11
11005,-8.78,-3.26,3.41,-0.11,0.32,0.09,-39.76,-2.63,30.11
11016,-8.78,-3.26,3.41,-0.11,0.32,0.09,-39.76,-2.63,30.11
11027,-8.72,-3.24,2.35,-0.10,0.28,0.10,-39.76,-2.63,30.11
11038,-8.72,-3.24,2.35,-0.10,0.28,0.10,-39.76,-2.63,30.11
11049,-8.94,-2.98,2.96,-0.09,0.14,0.14,-39.76,-2.63,30.11
11060,-8.76,-2.77,2.82,-0.14,0.09,0.16,-39.35,-4.89,28.11
11071,-8.76,-2.77,2.82,-0.14,0.09,0.16,-39.35,-4.89,28.11
11082,-8.57,-3.49,2.52,-0.16,-0.02,0.15,-39.35,-4.89,28.11
11093,-8.57,-3.49,2.52,-0.16,-0.02,0.15,-39.35,-4.89,28.11
11104,-8.98,-3.12,2.85,-0.08,-0.23,0.22,-39.35,-4.89,28.11
11115,-8.98,-3.12,2.85,-0.08,-0.23,0.22,-39.35,-4.89,28.11
11126,-8.81,-3.24,3.40,-0.05,-0.35,0.25,-39.35,-4.89,28.11
11137,-8.81,-3.24,3.40,-0.05,-0.35,0.25,-39.35,-4.89,28.11
11148,-8.84,-2.89,3.06,-0.05,-0.37,0.25,-39.35,-4.89,28.11
11159,-8.84,-2.89,3.06,-0.05,-0.37,0.25,-39.35,-4.89,28.11
11170,-8.53,-3.05,3.32,-0.03,-0.38,0.20,-39.35,-4.89,28.11
11181,-8.93,-3.12,2.85,0.01,-0.39,0.14,-39.35,-4.89,28.11
11192,-8.93,-3.12,2.85,0.01,-0.39,0.14,-39.35,-4.89,28.11
11203,-8.31,-3.07,2.79,0.14,-0.50,0.09,-38.34,-3.76,30.28
11214,-8.31,-3.07,2.79,0.14,-0.50,0.09,-38.34,-3.76,30.28
11225,-8.71,-3.27,3.14,0.26,-0.66,0.02,-38.34,-3.76,30.28
11236,-8.71,-3.27,3.14,0.26,-0.66,0.02,-38.34,-3.76,30.28
11247,-8.39,-3.62,3.19,0.21,-0.76,-0.07,-38.34,-3.76,30.28
11263,-8.39,-3.62,3.19,0.21,-0.76,-0.07,-38.34,-3.76,30.28
11269,-8.48,-3.56,3.24,0.11,-0.83,-0.09,-38.34,-3.76,30.28
11280,-8.87,-3.56,3.98,0.11,-0.82,-0.09,-38.34,-3.76,30.28
11291,-8.87,-3.56,3.98,0.11,-0.82,-0.09,-38.34,-3.76,30.28
11302,-8.81,-3.05,4.77,0.14,-0.61,-0.03,-38.34,-3.76,30.28
11313,-8.81,-3.05,4.77,0.14,-0.61,-0.03,-38.34,-3.76,30.28
11324,-8.61,-2.72,4.42,-0.01,-0.36,-0.09,-34.68,-3.11,33.62
11335,-8.61,-2.72,4.42,-0.01,-0.36,-0.09,-34.68,-3.11,33.62
11346,-8.43,-3.26,3.95,-0.12,-0.23,-0.19,-34.68,-3.11,33.62
11357,-8.43,-3.26,3.95,-0.12,-0.23,-0.19,-34.68,-3.11,33.62
11368,-8.52,-3.20,3.57,-0.17,-0.17,-0.20,-34.68,-3.11,33.62
11379,-8.52,-3.20,3.57,-0.17,-0.17,-0.20,-34.68,-3.11,33.62
11390,-9.04,-2.96,4.05,-0.09,-0.09,-0.19,-34.68,-3.11,33.62
11401,-8.98,-2.54,5.02,-0.21,0.04,-0.17,-34.68,-3.11,33.62
11412,-8.98,-2.54,5.02,-0.21,0.04,-0.17,-34.68,-3.11,33.62
11423,-8.74,-3.07,4.44,-0.30,0.33,-0.25,-34.68,-3.11,33.62
11434,-8.74,-3.07,4.44,-0.30,0.33,-0.25,-34.68,-3.11,33.62
11445,-8.62,-3.50,3.83,-0.34,0.45,-0.22,-34.68,-5.70,33.29
11456,-8.62,-3.50,3.83,-0.34,0.45,-0.22,-34.68,-5.70,33.29
11467,-8.80,-3.30,4.03,-0.37,0.49,-0.17,-34.68,-5.70,33.29
11478,-8.80,-3.30,4.03,-0.37,0.49,-0.17,-34.68,-5.70,33.29
11489,-8.63,-3.61,3.11,-0.35,0.59,-0.14,-34.68,-5.70,33.29
11500,-8.62,-3.53,3.38,-0.22,0.57,-0.07,-34.68,-5.70,33.29
11511,-8.62,-3.53,3.38,-0.22,0.57,-0.07,-34.68,-5.70,33.29
11522,-8.70,-3.47,2.71,-0.03,0.54,-0.02,-34.68,-5.70,33.29
11533,-8.70,-3.47,2.71,-0.03,0.54,-0.02,-34.68,-5.70,33.29
11544,-8.69,-3.03,3.48,0.05,0.47,0.06,-34.68,-5.70,33.29
11555,-8.69,-3.03,3.48,0.05,0.47,0.06,-34.68,-5.70,33.29
11566,-8.66,-3.13,3.00,0.03,0.48,0.05,-34.68,-5.70,33.29
11577,-8.66,-3.13,3.00,0.03,0.48,0.05,-34.68,-5.70,33.29
11588,-8.76,-3.20,3.20,-0.01,0.46,0.06,-37.93,-5.70,31.28
11599,-8.76,-3.20,3.20,-0.01,0.46,0.06,-37.93,-5.70,31.28
11610,-8.57,-3.18,3.17,-0.03,0.45,0.11,-37.93,-5.70,31.28
11621,-8.78,-3.00,3.14,-0.12,0.41,0.11,-37.93,-5.70,31.28
11632,-8.78,-3.00,3.14,-0.12,0.41,0.11,-37.93,-5.70,31.28
11643,-8.67,-3.37,2.51,-0.17,0.37,0.11,-37.93,-5.70,31.28
11654,-8.67,-3.37,2.51,-0.17,0.37,0.11,-37.93,-5.70,31.28
11665,-8.84,-3.28,3.15,-0.21,0.26,0.18,-37.93,-5.70,31.28
11676,-8.84,-3.28,3.15,-0.21,0.26,0.18,-37.93,-5.70,31.28
11687,-8.75,-2.88,2.78,-0.24,0.24,0.21,-37.93,-5.70,31.28
11698,-8.75,-2.88,2.78,-0.24,0.24,0.21,-37.93,-5.70,31.28
11709,-8.55,-3.38,2.60,-0.22,0.10,0.19,-38.95,-5.21,29.11
11720,-8.87,-2.78,2.99,-0.22,-0.07,0.23,-38.95,-5.21,29.11
11731,-8.87,-2.78,2.99,-0.22,-0.07,0.23,-38.95,-5.21,29.11
11742,-8.35,-3.35,2.46,-0.16,-0.16,0.18,-38.95,-5.21,29.11
11754,-8.35,-3.35,2.46,-0.16,-0.16,0.18,-38.95,-5.21,29.11
11764,-8.47,-4.08,3.33,-0.10,-0.33,0.18,-38.95,-5.21,29.11
11775,-8.47,-4.08,3.33,-0.10,-0.33,0.18,-38.95,-5.21,29.11
11786,-7.93,-3.57,2.64,-0.04,-0.36,0.17,-38.95,-5.21,29.11
11797,-7.93,-3.57,2.64,-0.04,-0.36,0.17,-38.95,-5.21,29.11
11808,-8.45,-3.60,2.78,0.12,-0.43,0.09,-38.95,-5.21,29.11
11819,-8.45,-3.60,2.78,0.12,-0.43,0.09,-38.95,-5.21,29.11
11830,-8.11,-3.37,2.56,0.20,-0.59,0.00,-38.13,-4.24,29.45
11841,-8.47,-3.74,2.46,0.27,-0.91,-0.08,-38.13,-4.24,29.45
11852,-8.47,-3.74,2.46,0.27,-0.91,-0.08,-38.13,-4.24,29.45
11863,-8.83,-3.69,4.57,0.47,-0.98,-0.03,-38.13,-4.24,29.45
11874,-8.83,-3.69,4.57,0.47,-0.98,-0.03,-38.13,-4.24,29.45
11885,-8.93,-2.90,4.65,0.34,-0.65,0.00,-38.13,-4.24,29.45
11896,-8.93,-2.90,4.65,0.34,-0.65,0.00,-38.13,-4.24,29.45
11907,-8.58,-2.79,3.92,0.12,-0.40,-0.06,-38.13,-4.24,29.45
11918,-8.58,-2.79,3.92,0.12,-0.40,-0.06,-38.13,-4.24,29.45
11929,-8.21,-3.11,3.48,-0.02,-0.40,-0.12,-38.13,-4.24,29.45
11940,-8.21,-3.11,3.48,-0.02,-0.40,-0.12,-38.13,-4.24,29.45
11951,-8.44,-3.65,3.53,-0.04,-0.47,-0.14,-38.13,-4.24,29.45
11962,-8.74,-3.40,4.19,0.06,-0.42,-0.08,-34.68,-4.40,33.29
11973,-8.74,-3.40,4.19,0.06,-0.42,-0.08,-34.68,-4.40,33.29
11984,-8.72,-2.52,4.25,0.07,-0.20,-0.07,-34.68,-4.40,33.29
11995,-8.72,-2.52,4.25,0.07,-0.20,-0.07,-34.68,-4.40,33.29
12006,-8.68,-2.82,3.83,0.03,-0.05,-0.16,-34.68,-4.40,33.29
12017,-8.68,-2.82,3.83,0.03,-0.05,-0.16,-34.68,-4.40,33.29
12028,-8.70,-3.45,3.95,-0.01,0.01,-0.21,-34.68,-4.40,33.29
12039,-8.70,-3.45,3.95,-0.01,0.01,-0.21,-34.68,-4.40,33.29
12050,-8.74,-3.37,4.67,-0.09,0.11,-0.21,-34.68,-4.40,33.29
12061,-9.02,-2.87,4.32,-0.22,0.37,-0.21,-34.68,-4.40,33.29
12072,-9.02,-2.87,4.32,-0.22,0.37,-0.21,-34.68,-4.40,33.29
12083,-8.71,-3.36,4.03,-0.38,0.54,-0.20,-35.29,-3.27,32.79
12094,-8.71,-3.36,4.03,-0.38,0.54,-0.20,-35.29,-3.27,32.79
12105,-8.74,-3.33,3.39,-0.42,0.62,-0.16,-35.29,-3.27,32.79
12116,-8.74,-3.33,3.39,-0.42,0.62,-0.16,-35.29,-3.27,32.79
12127,-8.39,-3.82,3.06,-0.27,0.64,-0.09,-35.29,-3.27,32.79
12138,-8.39,-3.82,3.06,-0.27,0.64,-0.09,-35.29,-3.27,32.79
12149,-8.48,-3.84,3.42,-0.14,0.53,0.01,-35.29,-3.27,32.79
12160,-8.48,-3.84,3.42,-0.14,0.53,0.01,-35.29,-3.27,32.79
12171,-8.35,-3.90,3.22,-0.04,0.50,0.07,-35.29,-3.27,32.79
12182,-8.71,-3.28,3.77,-0.00,0.44,0.11,-35.29,-3.27,32.79
12193,-8.71,-3.28,3.77,-0.00,0.44,0.11,-35.29,-3.27,32.79
12204,-8.92,-3.12,3.48,-0.04,0.50,0.08,-38.54,-6.18,31.12
12215,-8.92,-3.12,3.48,-0.04,0.50,0.08,-38.54,-6.18,31.12
12226,-8.72,-3.17,3.37,-0.09,0.58,0.08,-38.54,-6.18,31.12
12237,-8.72,-3.17,3.37,-0.09,0.58,0.08,-38.54,-6.18,31.12
12253,-8.71,-3.04,2.62,-0.12,0.57,0.09,-38.54,-6.18,31.12
12259,-8.71,-3.04,2.62,-0.12,0.57,0.09,-38.54,-6.18,31.12
12270,-8.71,-3.38,3.31,-0.16,0.43,0.12,-38.54,-6.18,31.12
12281,-8.67,-3.25,3.19,-0.21,0.37,0.16,-38.54,-6.18,31.12
12292,-8.67,-3.25,3.19,-0.21,0.37,0.16,-38.54,-6.18,31.12
12303,-8.47,-3.23,2.38,-0.21,0.26,0.16,-38.54,-6.18,31.12
12314,-8.47,-3.23,2.38,-0.21,0.26,0.16,-38.54,-6.18,31.12
12325,-8.69,-3.18,2.50,-0.15,0.00,0.17,-41.58,-5.05,27.94
12336,-8.69,-3.18,2.50,-0.15,0.00,0.17,-41.58,-5.05,27.94
12347,-8.44,-3.41,3.40,-0.16,-0.13,0.20,-41.58,-5.05,27.94
12358,-8.44,-3.41,3.40,-0.16,-0.13,0.20,-41.58,-5.05,27.94
12369,-8.40,-3.82,2.64,-0.20,-0.22,0.18,-41.58,-5.05,27.94
12380,-8.40,-3.82,2.64,-0.20,-0.22,0.18,-41.58,-5.05,27.94
12391,-8.57,-3.30,2.71,-0.15,-0.40,0.23,-41.58,-5.05,27.94
12402,-8.70,-3.13,3.21,0.06,-0.48,0.22,-41.58,-5.05,27.94
12413,-8.70,-3.13,3.21,0.06,-0.48,0.22,-41.58,-5.05,27.94
12424,-8.57,-3.39,2.90,0.20,-0.49,0.09,-41.58,-5.05,27.94
12435,-8.57,-3.39,2.90,0.20,-0.49,0.09,-41.58,-5.05,27.94
12446,-8.14,-3.38,2.79,0.21,-0.56,0.00,-41.58,-5.05,27.94
12457,-8.14,-3.38,2.79,0.21,-0.56,0.00,-41.58,-5.05,27.94
12468,-7.90,-3.25,3.04,0.31,-0.71,-0.03,-37.32,-6.18,29.78
12479,-7.90,-3.25,3.04,0.31,-0.71,-0.03,-37.32,-6.18,29.78
12490,-8.55,-3.40,3.58,0.42,-0.80,-0.04,-37.32,-6.18,29.78
12501,-9.15,-3.32,4.66,0.24,-0.72,-0.05,-37.32,-6.18,29.78
12512,-9.15,-3.32,4.66,0.24,-0.72,-0.05,-37.32,-6.18,29.78
12523,-8.81,-3.08,3.91,-0.02,-0.49,-0.09,-37.32,-6.18,29.78
12534,-8.81,-3.08,3.91,-0.02,-0.49,-0.09,-37.32,-6.18,29.78
12545,-8.66,-3.22,3.83,-0.06,-0.37,-0.12,-37.32,-6.18,29.78
12557,-8.66,-3.22,3.83,-0.06,-0.37,-0.12,-37.32,-6.18,29.78
12567,-8.96,-3.28,3.56,0.01,-0.35,-0.11,-37.32,-6.18,29.78
12578,-8.96,-3.28,3.56,0.01,-0.35,-0.11,-37.32,-6.18,29.78
12589,-8.97,-3.38,4.32,0.05,-0.29,-0.09,-36.92,-5.21,32.12
12600,-8.97,-3.38,4.32,0.05,-0.29,-0.09,-36.92,-5.21,32.12
12611,-8.84,-2.80,3.85,-0.02,-0.10,-0.11,-36.92,-5.21,32.12
12622,-8.79,-2.93,3.82,-0.03,0.01,-0.16,-36.92,-5.21,32.12
12633,-8.79,-2.93,3.82,-0.03,0.01,-0.16,-36.92,-5.21,32.12
12644,-8.91,-3.20,4.35,-0.09,0.15,-0.22,-36.92,-5.21,32.12
12655,-8.91,-3.20,4.35,-0.09,0.15,-0.22,-36.92,-5.21,32.12
12666,-8.81,-3.36,3.40,-0.18,0.36,-0.25,-36.92,-5.21,32.12
12677,-8.81,-3.36,3.40,-0.18,0.36,-0.25,-36.92,-5.21,32.12
12688,-9.02,-3.30,3.31,-0.32,0.44,-0.20,-36.92,-5.21,32.12
12699,-9.02,-3.30,3.31,-0.32,0.44,-0.20,-36.92,-5.21,32.12
12710,-8.78,-3.11,3.80,-0.34,0.49,-0.12,-36.11,-4.89,30.11
12721,-8.66,-3.30,3.02,-0.29,0.58,-0.10,-36.11,-4.89,30.11
12732,-8.66,-3.30,3.02,-0.29,0.58,-0.10,-36.11,-4.89,30.11
12743,-8.66,-3.30,3.15,-0.23,0.54,0.00,-36.11,-4.89,30.11
12754,-8.66,-3.30,3.15,-0.23,0.54,0.00,-36.11,-4.89,30.11
12765,-8.70,-3.37,4.10,-0.17,0.52,0.07,-36.11,-4.89,30.11
12776,-8.70,-3.37,4.10,-0.17,0.52,0.07,-36.11,-4.89,30.11
12787,-8.44,-3.64,2.83,-0.16,0.58,0.07,-36.11,-4.89,30.11
12798,-8.44,-3.64,2.83,-0.16,0.58,0.07,-36.11,-4.89,30.11
12809,-8.58,-3.74,3.50,-0.09,0.44,0.13,-36.11,-4.89,30.11
12820,-8.58,-3.74,3.50,-0.09,0.44,0.13,-36.11,-4.89,30.11
12831,-8.80,-3.37,3.61,-0.12,0.42,0.16,-36.11,-4.89,30.11
12842,-8.80,-3.00,2.95,-0.21,0.47,0.14,-37.53,-5.70,29.61
12853,-8.80,-3.00,2.95,-0.21,0.47,0.14,-37.53,-5.70,29.61
12864,-8.97,-3.06,2.76,-0.25,0.42,0.11,-37.53,-5.70,29.61
12875,-8.97,-3.06,2.76,-0.25,0.42,0.11,-37.53,-5.70,29.61
12886,-8.78,-3.46,3.22,-0.30,0.38,0.12,-37.53,-5.70,29.61
12897,-8.78,-3.46,3.22,-0.30,0.38,0.12,-37.53,-5.70,29.61
12908,-8.54,-3.46,1.58,-0.30,0.33,0.12,-37.53,-5.70,29.61
12919,-8.54,-3.46,1.58,-0.30,0.33,0.12,-37.53,-5.70,29.61
12930,-8.58,-3.13,2.76,-0.26,0.13,0.15,-37.53,-5.70,29.61
12941,-8.58,-3.13,2.76,-0.26,0.13,0.15,-37.53,-5.70,29.61
12952,-8.75,-3.35,2.55,-0.22,-0.01,0.15,-37.53,-5.70,29.61
12963,-8.55,-3.76,2.98,-0.14,-0.20,0.14,-39.15,-7.31,27.61
12974,-8.55,-3.76,2.98,-0.14,-0.20,0.14,-39.15,-7.31,27.61
12985,-8.79,-3.09,1.95,-0.09,-0.29,0.13,-39.15,-7.31,27.61
12996,-8.79,-3.09,1.95,-0.09,-0.29,0.13,-39.15,-7.31,27.61
13007,-8.60,-3.38,2.34,0.09,-0.46,0.06,-39.15,-7.31,27.61
13018,-8.60,-3.38,2.34,0.09,-0.46,0.06,-39.15,-7.31,27.61
13030,-7.91,-3.34,2.47,0.29,-0.63,0.00,-39.15,-7.31,27.61
13040,-7.91,-3.34,2.47,0.29,-0.63,0.00,-39.15,-7.31,27.61
13051,-8.99,-3.52,3.06,0.41,-0.75,-0.05,-39.15,-7.31,27.61
13062,-8.88,-3.63,3.40,0.39,-0.78,-0.06,-39.15,-7.31,27.61
13073,-8.88,-3.63,3.40,0.39,-0.78,-0.06,-39.15,-7.31,27.61
13084,-8.91,-3.70,3.60,0.28,-0.73,-0.07,-36.71,-5.70,30.61
13095,-8.91,-3.70,3.60,0.28,-0.73,-0.07,-36.71,-5.70,30.61
13106,-9.03,-3.12,3.96,0.20,-0.65,-0.07,-36.71,-5.70,30.61
13117,-9.03,-3.12,3.96,0.20,-0.65,-0.07,-36.71,-5.70,30.61
13128,-8.72,-3.12,3.84,0.11,-0.53,-0.12,-36.71,-5.70,30.61
13139,-8.72,-3.12,3.84,0.11,-0.53,-0.12,-36.71,-5.70,30.61
13150,-8.48,-3.40,3.77,0.06,-0.43,-0.15,-36.71,-5.70,30.61
13161,-8.48,-3.40,3.77,0.06,-0.43,-0.15,-36.71,-5.70,30.61
13172,-9.30,-3.71,3.29,-0.04,-0.33,-0.16,-36.71,-5.70,30.61
13183,-8.84,-3.24,3.75,-0.02,-0.22,-0.12,-36.71,-5.70,30.61
13194,-8.84,-3.24,3.75,-0.02,-0.22,-0.12,-36.71,-5.70,30.61
13205,-8.91,-3.19,3.83,0.03,-0.11,-0.13,-36.71,-5.70,30.61
13216,-8.91,-3.19,3.83,0.03,-0.11,-0.13,-36.71,-5.70,30.61
13227,-8.73,-3.35,3.38,0.01,-0.03,-0.15,-35.70,-5.86,32.45
13238,-8.73,-3.35,3.38,0.01,-0.03,-0.15,-35.70,-5.86,32.45
13249,-8.85,-3.44,4.47,-0.04,0.06,-0.16,-35.70,-5.86,32.45
13260,-8.85,-3.44,4.47,-0.04,0.06,-0.16,-35.70,-5.86,32.45
13271,-8.74,-3.43,4.10,-0.12,0.29,-0.20,-35.70,-5.86,32.45
13282,-8.79,-3.34,3.17,-0.23,0.39,-0.18,-35.70,-5.86,32.45
13293,-8.79,-3.34,3.17,-0.23,0.39,-0.18,-35.70,-5.86,32.45
13304,-8.61,-3.16,3.83,-0.21,0.41,-0.12,-35.70,-5.86,32.45
13315,-8.61,-3.16,3.83,-0.21,0.41,-0.12,-35.70,-5.86,32.45
13326,-8.72,-3.20,3.79,-0.25,0.47,-0.11,-35.70,-5.86,32.45
13337,-8.72,-3.20,3.79,-0.25,0.47,-0.11,-35.70,-5.86,32.45
13348,-8.67,-3.34,3.26,-0.25,0.52,-0.06,-36.71,-6.67,30.95
13359,-8.67,-3.34,3.26,-0.25,0.52,-0.06,-36.71,-6.67,30.95
13370,-8.81,-3.33,2.59,-0.15,0.51,0.02,-36.71,-6.67,30.95
13381,-8.81,-3.33,2.59,-0.15,0.51,0.02,-36.71,-6.67,30.95
13392,-8.73,-3.42,2.85,-0.13,0.50,0.06,-36.71,-6.67,30.95
13403,-8.75,-3.43,3.07,-0.16,0.50,0.09,-36.71,-6.67,30.95
13414,-8.75,-3.43,3.07,-0.16,0.50,0.09,-36.71,-6.67,30.95
13425,-8.71,-3.37,2.91,-0.17,0.49,0.12,-36.71,-6.67,30.95
13436,-8.71,-3.37,2.91,-0.17,0.49,0.12,-36.71,-6.67,30.95
13447,-8.78,-3.29,3.44,-0.21,0.45,0.17,-36.71,-6.67,30.95
13458,-8.78,-3.29,3.44,-0.21,0.45,0.17,-36.71,-6.67,30.95
13469,-8.90,-2.98,2.02,-0.31,0.46,0.18,-37.93,-6.99,29.28
13480,-8.90,-2.98,2.02,-0.31,0.46,0.18,-37.93,-6.99,29.28
13491,-8.93,-3.09,3.10,-0.28,0.37,0.20,-37.93,-6.99,29.28
13502,-8.74,-3.00,2.83,-0.29,0.37,0.22,-37.93,-6.99,29.28
13513,-8.74,-3.00,2.83,-0.29,0.37,0.22,-37.93,-6.99,29.28
13524,-8.81,-2.99,1.75,-0.27,0.27,0.20,-37.93,-6.99,29.28
13535,-8.81,-2.99,1.75,-0.27,0.27,0.20,-37.93,-6.99,29.28
13546,-8.53,-3.57,2.56,-0.16,0.01,0.22,-37.93,-6.99,29.28
13557,-8.53,-3.57,2.56,-0.16,0.01,0.22,-37.93,-6.99,29.28
13568,-8.66,-3.51,1.98,-0.16,-0.14,0.21,-37.93,-6.99,29.28
13579,-8.66,-3.51,1.98,-0.16,-0.14,0.21,-37.93,-6.99,29.28
13590,-8.68,-3.54,2.49,-0.10,-0.33,0.15,-38.74,-7.64,29.28
13601,-8.68,-3.54,2.49,-0.10,-0.33,0.15,-38.74,-7.64,29.28
13612,-8.27,-3.46,2.51,0.05,-0.45,0.07,-38.74,-7.64,29.28
13623,-8.43,-3.54,1.70,0.24,-0.63,-0.03,-38.74,-7.64,29.28
13634,-8.43,-3.54,1.70,0.24,-0.63,-0.03,-38.74,-7.64,29.28
13645,-8.39,-3.81,2.82,0.45,-0.91,-0.07,-38.74,-7.64,29.28
13656,-8.39,-3.81,2.82,0.45,-0.91,-0.07,-38.74,-7.64,29.28
13667,-8.62,-3.63,3.78,0.47,-0.95,-0.05,-38.74,-7.64,29.28
13678,-8.62,-3.63,3.78,0.47,-0.95,-0.05,-38.74,-7.64,29.28
13689,-8.67,-3.25,3.53,0.36,-0.87,-0.05,-38.74,-7.64,29.28
13700,-8.67,-3.25,3.53,0.36,-0.87,-0.05,-38.74,-7.64,29.28
13711,-8.98,-3.30,4.76,0.29,-0.74,-0.05,-38.74,-7.64,29.28
13722,-9.01,-3.22,3.98,0.00,-0.48,-0.09,-35.70,-5.21,32.12
13733,-9.01,-3.22,3.98,0.00,-0.48,-0.09,-35.70,-5.21,32.12
13744,-8.96,-3.54,3.44,-0.12,-0.31,-0.14,-35.70,-5.21,32.12
13755,-8.96,-3.54,3.44,-0.12,-0.31,-0.14,-35.70,-5.21,32.12
13766,-9.09,-3.53,3.46,-0.07,-0.19,-0.13,-35.70,-5.21,32.12
13777,-9.09,-3.53,3.46,-0.07,-0.19,-0.13,-35.70,-5.21,32.12
13788,-9.01,-3.25,3.08,-0.02,-0.06,-0.15,-35.70,-5.21,32.12
13799,-9.01,-3.25,3.08,-0.02,-0.06,-0.15,-35.70,-5.21,32.12
13810,-8.66,-3.33,3.48,0.03,0.00,-0.17,-35.70,-5.21,32.12
13821,-8.66,-3.33,3.48,0.03,0.00,-0.17,-35.70,-5.21,32.12
13832,-8.83,-3.77,3.49,0.08,0.08,-0.20,-35.70,-5.21,32.12
13843,-8.79,-3.24,3.72,0.08,0.16,-0.17,-35.70,-6.83,32.12
13854,-8.79,-3.24,3.72,0.08,0.16,-0.17,-35.70,-6.83,32.12
13865,-8.98,-3.25,4.09,0.01,0.27,-0.17,-35.70,-6.83,32.12
13876,-8.98,-3.25,4.09,0.01,0.27,-0.17,-35.70,-6.83,32.12
13887,-8.88,-2.68,4.12,-0.18,0.42,-0.17,-35.70,-6.83,32.12
13898,-8.88,-2.68,4.12,-0.18,0.42,-0.17,-35.70,-6.83,32.12
13909,-8.72,-3.44,3.14,-0.22,0.56,-0.19,-35.70,-6.83,32.12
13920,-8.72,-3.44,3.14,-0.22,0.56,-0.19,-35.70,-6.83,32.12
13931,-8.62,-3.52,3.11,-0.20,0.53,-0.09,-35.70,-6.83,32.12
13942,-8.51,-3.57,3.15,-0.13,0.48,-0.01,-35.70,-6.83,32.12
13953,-8.51,-3.57,3.15,-0.13,0.48,-0.01,-35.70,-6.83,32.12
13964,-8.68,-3.60,3.15,-0.11,0.45,0.06,-37.53,-6.02,30.28
13975,-8.68,-3.60,3.15,-0.11,0.45,0.06,-37.53,-6.02,30.28
13986,-8.68,-3.34,2.93,-0.13,0.45,0.11,-37.53,-6.02,30.28
13997,-8.68,-3.34,2.93,-0.13,0.45,0.11,-37.53,-6.02,30.28
14008,-8.94,-3.24,2.89,-0.13,0.42,0.13,-37.53,-6.02,30.28
14020,-8.94,-3.24,2.89,-0.13,0.42,0.13,-37.53,-6.02,30.28
14030,-8.82,-3.11,3.46,-0.26,0.42,0.12,-37.53,-6.02,30.28
14041,-8.82,-3.11,3.46,-0.26,0.42,0.12,-37.53,-6.02,30.28
14052,-8.74,-2.96,2.47,-0.38,0.48,0.09,-37.53,-6.02,30.28
14063,-8.65,-3.29,2.77,-0.36,0.42,0.10,-37.53,-6.02,30.28
14074,-8.65,-3.29,2.77,-0.36,0.42,0.10,-37.53,-6.02,30.28
14085,-8.78,-3.13,1.70,-0.30,0.28,0.13,-37.53,-6.02,30.28
14096,-8.78,-3.13,1.70,-0.30,0.28,0.13,-37.53,-6.02,30.28
14107,-8.75,-3.48,2.68,-0.23,0.05,0.15,-38.13,-7.80,28.44
14118,-8.75,-3.48,2.68,-0.23,0.05,0.15,-38.13,-7.80,28.44
14129,-8.72,-3.54,2.62,-0.23,-0.06,0.18,-38.13,-7.80,28.44
14140,-8.72,-3.54,2.62,-0.23,-0.06,0.18,-38.13,-7.80,28.44
14151,-8.63,-3.94,2.44,-0.21,-0.18,0.18,-38.13,-7.80,28.44
14162,-8.63,-3.94,2.44,-0.21,-0.18,0.18,-38.13,-7.80,28.44
14173,-8.58,-3.51,2.54,-0.18,-0.32,0.19,-38.13,-7.80,28.44
14189,-8.38,-3.46,2.61,-0.04,-0.39,0.18,-38.13,-7.80,28.44
14195,-8.38,-3.46,2.61,-0.04,-0.39,0.18,-38.13,-7.80,28.44
14206,-8.39,-3.41,2.39,0.11,-0.45,0.13,-38.13,-7.80,28.44
14217,-8.39,-3.41,2.39,0.11,-0.45,0.13,-38.13,-7.80,28.44
14228,-8.17,-3.34,2.24,0.24,-0.57,0.08,-39.55,-8.28,28.61
14239,-8.17,-3.34,2.24,0.24,-0.57,0.08,-39.55,-8.28,28.61
14250,-8.63,-3.09,2.66,0.43,-0.73,0.04,-39.55,-8.28,28.61
14261,-8.63,-3.09,2.66,0.43,-0.73,0.04,-39.55,-8.28,28.61
14272,-8.51,-3.38,3.97,0.42,-0.81,-0.02,-39.55,-8.28,28.61
14283,-8.32,-3.40,3.68,0.22,-0.70,-0.05,-39.55,-8.28,28.61
14294,-8.32,-3.40,3.68,0.22,-0.70,-0.05,-39.55,-8.28,28.61
14305,-8.37,-3.86,3.21,0.14,-0.57,-0.10,-39.55,-8.28,28.61
14316,-8.37,-3.86,3.21,0.14,-0.57,-0.10,-39.55,-8.28,28.61
14327,-8.57,-3.80,3.37,0.14,-0.60,-0.08,-39.55,-8.28,28.61
14338,-8.57,-3.80,3.37,0.14,-0.60,-0.08,-39.55,-8.28,28.61
14349,-8.94,-3.46,3.98,0.14,-0.58,-0.08,-35.50,-6.02,31.28
14360,-8.94,-3.46,3.98,0.14,-0.58,-0.08,-35.50,-6.02,31.28
14371,-8.83,-3.10,3.95,0.11,-0.40,-0.10,-35.50,-6.02,31.28
14382,-8.83,-3.10,3.95,0.11,-0.40,-0.10,-35.50,-6.02,31.28
14393,-8.79,-3.21,3.74,0.17,-0.25,-0.13,-35.50,-6.02,31.28
14404,-9.00,-3.18,3.65,0.13,-0.12,-0.15,-35.50,-6.02,31.28
14415,-9.00,-3.18,3.65,0.13,-0.12,-0.15,-35.50,-6.02,31.28
14426,-8.94,-2.83,4.14,0.05,-0.02,-0.15,-35.50,-6.02,31.28
14437,-8.94,-2.83,4.14,0.05,-0.02,-0.15,-35.50,-6.02,31.28
14448,-8.93,-3.24,4.02,-0.04,0.19,-0.24,-35.50,-6.02,31.28
14459,-8.93,-3.24,4.02,-0.04,0.19,-0.24,-35.50,-6.02,31.28
14470,-8.91,-3.46,3.87,-0.13,0.37,-0.24,-35.50,-6.02,31.28
14481,-8.91,-3.46,3.87,-0.13,0.37,-0.24,-35.50,-6.02,31.28
14493,-8.77,-3.10,3.70,-0.26,0.44,-0.16,-35.09,-6.99,31.28
14503,-8.82,-3.43,3.81,-0.29,0.53,-0.13,-35.09,-6.99,31.28
14514,-8.82,-3.43,3.81,-0.29,0.53,-0.13,-35.09,-6.99,31.28
14525,-8.60,-3.54,3.43,-0.26,0.62,-0.08,-35.09,-6.99,31.28
14536,-8.60,-3.54,3.43,-0.26,0.62,-0.08,-35.09,-6.99,31.28
14547,-8.54,-3.40,2.66,-0.17,0.63,-0.03,-35.09,-6.99,31.28
14558,-8.54,-3.40,2.66,-0.17,0.63,-0.03,-35.09,-6.99,31.28
14569,-8.53,-3.31,3.13,-0.09,0.53,0.04,-35.09,-6.99,31.28
14580,-8.53,-3.31,3.13,-0.09,0.53,0.04,-35.09,-6.99,31.28
14591,-8.85,-3.04,3.11,-0.08,0.48,0.06,-35.09,-6.99,31.28
14602,-8.85,-3.04,3.11,-0.08,0.48,0.06,-35.09,-6.99,31.28
14613,-8.67,-3.36,3.03,-0.16,0.49,0.09,-36.11,-6.18,30.78
14624,-8.63,-3.24,3.00,-0.27,0.46,0.13,-36.11,-6.18,30.78
14635,-8.63,-3.24,3.00,-0.27,0.46,0.13,-36.11,-6.18,30.78
14646,-8.72,-3.19,3.38,-0.29,0.40,0.14,-36.11,-6.18,30.78
14657,-8.72,-3.19,3.38,-0.29,0.40,0.14,-36.11,-6.18,30.78
14668,-8.84,-2.96,2.47,-0.31,0.37,0.18,-36.11,-6.18,30.78
14679,-8.84,-2.96,2.47,-0.31,0.37,0.18,-36.11,-6.18,30.78
14690,-8.80,-3.09,2.73,-0.30,0.28,0.19,-36.11,-6.18,30.78
14701,-8.80,-3.09,2.73,-0.30,0.28,0.19,-36.11,-6.18,30.78
14712,-8.51,-3.23,2.44,-0.29,0.17,0.20,-36.11,-6.18,30.78
14723,-8.66,-3.63,2.58,-0.25,-0.03,0.20,-38.34,-6.99,28.28
14734,-8.66,-3.63,2.58,-0.25,-0.03,0.20,-38.34,-6.99,28.28
14745,-8.35,-3.57,2.66,-0.22,-0.20,0.18,-38.34,-6.99,28.28
14756,-8.35,-3.57,2.66,-0.22,-0.20,0.18,-38.34,-6.99,28.28
14767,-8.53,-3.76,2.60,-0.16,-0.28,0.16,-38.34,-6.99,28.28
14778,-8.53,-3.76,2.60,-0.16,-0.28,0.16,-38.34,-6.99,28.28
14789,-8.20,-3.65,2.64,0.04,-0.39,0.12,-38.34,-6.99,28.28
14800,-8.20,-3.65,2.64,0.04,-0.39,0.12,-38.34,-6.99,28.28
14811,-8.07,-3.31,2.24,0.24,-0.53,0.04,-38.34,-6.99,28.28
14822,-8.07,-3.31,2.24,0.24,-0.53,0.04,-38.34,-6.99,28.28
14833,-8.31,-3.55,2.53,0.36,-0.77,-0.07,-38.34,-6.99,28.28
14844,-9.03,-3.99,3.84,0.35,-0.91,-0.09,-35.09,-6.99,31.62
14855,-9.03,-3.99,3.84,0.35,-0.91,-0.09,-35.09,-6.99,31.62
14866,-8.69,-3.26,3.94,0.18,-0.75,-0.05,-35.09,-6.99,31.62
14877,-8.69,-3.26,3.94,0.18,-0.75,-0.05,-35.09,-6.99,31.62
14888,-8.37,-2.98,3.42,0.07,-0.67,-0.07,-35.09,-6.99,31.62
14899,-8.37,-2.98,3.42,0.07,-0.67,-0.07,-35.09,-6.99,31.62
14910,-9.08,-3.40,3.71,0.07,-0.71,-0.10,-35.09,-6.99,31.62
14921,-9.08,-3.40,3.71,0.07,-0.71,-0.10,-35.09,-6.99,31.62
14932,-9.20,-3.33,4.54,0.10,-0.50,-0.06,-35.09,-6.99,31.62
14943,-8.58,-2.90,3.92,-0.00,-0.20,-0.09,-35.09,-6.99,31.62
14954,-8.58,-2.90,3.92,-0.00,-0.20,-0.09,-35.09,-6.99,31.62
14965,-8.58,-3.49,3.35,-0.02,-0.09,-0.17,-35.09,-6.99,31.62
14976,-8.58,-3.49,3.35,-0.02,-0.09,-0.17,-35.09,-6.99,31.62
14987,-8.55,-3.60,3.46,0.04,-0.07,-0.16,-34.08,-7.47,33.79
14998,-8.55,-3.60,3.46,0.04,-0.07,-0.16,-34.08,-7.47,33.79
15010,-8.86,-3.41,3.97,0.07,-0.04,-0.15,-34.08,-7.47,33.79
15020,-8.86,-3.41,3.97,0.07,-0.04,-0.15,-34.08,-7.47,33.79
15031,-9.04,-3.24,4.81,-0.04,0.12,-0.17,-34.08,-7.47,33.79
15042,-9.04,-3.24,4.81,-0.04,0.12,-0.17,-34.08,-7.47,33.79
15053,-8.97,-3.01,3.44,-0.20,0.39,-0.19,-34.08,-7.47,33.79
15064,-8.95,-3.08,3.12,-0.34,0.51,-0.18,-34.08,-7.47,33.79
15075,-8.95,-3.08,3.12,-0.34,0.51,-0.18,-34.08,-7.47,33.79
15086,-8.73,-3.44,3.76,-0.35,0.55,-0.12,-34.08,-7.47,33.79
15097,-8.73,-3.44,3.76,-0.35,0.55,-0.12,-34.08,-7.47,33.79
15108,-8.52,-3.79,3.15,-0.26,0.63,-0.05,-37.12,-8.60,31.62
15119,-8.52,-3.79,3.15,-0.26,0.63,-0.05,-37.12,-8.60,31.62
15130,-8.73,-3.58,2.40,-0.17,0.56,0.03,-37.12,-8.60,31.62
15141,-8.73,-3.58,2.40,-0.17,0.56,0.03,-37.12,-8.60,31.62
15152,-8.58,-3.47,3.16,-0.05,0.49,0.10,-37.12,-8.60,31.62
15163,-8.58,-3.47,3.16,-0.05,0.49,0.10,-37.12,-8.60,31.62
15180,-8.53,-3.80,2.67,-0.04,0.48,0.12,-37.12,-8.60,31.62
15185,-8.60,-3.54,3.37,-0.04,0.42,0.17,-37.12,-8.60,31.62
15196,-8.60,-3.54,3.37,-0.04,0.42,0.17,-37.12,-8.60,31.62
15207,-8.58,-3.32,2.97,-0.10,0.41,0.19,-37.12,-8.60,31.62
15218,-8.58,-3.32,2.97,-0.10,0.41,0.19,-37.12,-8.60,31.62
15229,-8.80,-3.22,2.57,-0.18,0.35,0.16,-39.15,-9.25,28.28
15240,-8.80,-3.22,2.57,-0.18,0.35,0.16,-39.15,-9.25,28.28
15251,-8.77,-3.01,3.29,-0.20,0.31,0.17,-39.15,-9.25,28.28
15262,-8.77,-3.01,3.29,-0.20,0.31,0.17,-39.15,-9.25,28.28
15273,-8.72,-3.30,2.71,-0.25,0.30,0.15,-39.15,-9.25,28.28
15284,-8.80,-3.11,2.32,-0.22,0.20,0.17,-39.15,-9.25,28.28
15295,-8.80,-3.11,2.32,-0.22,0.20,0.17,-39.15,-9.25,28.28
15306,-8.60,-3.16,2.96,-0.20,0.09,0.17,-39.15,-9.25,28.28
15317,-8.60,-3.16,2.96,-0.20,0.09,0.17,-39.15,-9.25,28.28
15328,-8.71,-3.45,2.46,-0.21,0.02,0.14,-39.15,-9.25,28.28
15339,-8.71,-3.45,2.46,-0.21,0.02,0.14,-39.15,-9.25,28.28
15350,-8.70,-3.66,2.34,-0.17,-0.13,0.15,-39.15,-9.25,28.28
15361,-8.70,-3.66,2.34,-0.17,-0.13,0.15,-39.15,-9.25,28.28
15372,-8.28,-3.65,2.33,-0.06,-0.26,0.15,-39.35,-9.09,28.11
15383,-8.28,-3.65,2.33,-0.06,-0.26,0.15,-39.35,-9.09,28.11
15395,-8.52,-3.38,2.62,0.11,-0.37,0.13,-39.35,-9.09,28.11
15405,-8.60,-3.29,2.69,0.29,-0.47,0.07,-39.35,-9.09,28.11
15416,-8.60,-3.29,2.69,0.29,-0.47,0.07,-39.35,-9.09,28.11
15427,-8.17,-3.07,2.94,0.35,-0.58,0.01,-39.35,-9.09,28.11
15438,-8.17,-3.07,2.94,0.35,-0.58,0.01,-39.35,-9.09,28.11
15449,-8.48,-3.15,3.19,0.34,-0.63,-0.06,-39.35,-9.09,28.11
15460,-8.48,-3.15,3.19,0.34,-0.63,-0.06,-39.35,-9.09,28.11
15471,-8.55,-3.69,3.41,0.28,-0.66,-0.12,-39.35,-9.09,28.11
15482,-8.55,-3.69,3.41,0.28,-0.66,-0.12,-39.35,-9.09,28.11
15493,-8.46,-3.80,3.57,0.16,-0.66,-0.14,-34.28,-6.67,32.29
15504,-8.80,-3.71,3.64,0.12,-0.61,-0.18,-34.28,-6.67,32.29
15515,-8.80,-3.71,3.64,0.12,-0.61,-0.18,-34.28,-6.67,32.29
15526,-9.11,-3.53,3.70,0.15,-0.49,-0.19,-34.28,-6.67,32.29
15537,-9.11,-3.53,3.70,0.15,-0.49,-0.19,-34.28,-6.67,32.29
15548,-9.03,-3.21,3.76,0.14,-0.34,-0.16,-34.28,-6.67,32.29
15559,-9.03,-3.21,3.76,0.14,-0.34,-0.16,-34.28,-6.67,32.29
15570,-8.84,-3.38,3.62,0.09,-0.19,-0.18,-34.28,-6.67,32.29
15581,-8.84,-3.38,3.62,0.09,-0.19,-0.18,-34.28,-6.67,32.29
15592,-9.06,-3.34,3.23,0.15,-0.09,-0.18,-34.28,-6.67,32.29
15603,-9.06,-3.34,3.23,0.15,-0.09,-0.18,-34.28,-6.67,32.29
15614,-9.08,-3.00,3.87,0.10,-0.01,-0.16,-36.71,-6.99,31.95
15625,-9.22,-3.35,4.06,-0.03,0.23,-0.23,-36.71,-6.99,31.95
15636,-9.22,-3.35,4.06,-0.03,0.23,-0.23,-36.71,-6.99,31.95
15647,-8.98,-3.00,3.33,-0.22,0.43,-0.18,-36.71,-6.99,31.95
15658,-8.98,-3.00,3.33,-0.22,0.43,-0.18,-36.71,-6.99,31.95
15669,-8.80,-3.38,3.72,-0.27,0.52,-0.13,-36.71,-6.99,31.95
15680,-8.80,-3.38,3.72,-0.27,0.52,-0.13,-36.71,-6.99,31.95
15691,-8.66,-3.30,3.15,-0.21,0.57,-0.08,-36.71,-6.99,31.95
15702,-8.66,-3.30,3.15,-0.21,0.57,-0.08,-36.71,-6.99,31.95
15713,-8.67,-3.49,3.24,-0.16,0.53,0.02,-36.71,-6.99,31.95
15724,-8.51,-3.68,3.58,-0.14,0.51,0.07,-36.71,-6.99,31.95
15735,-8.51,-3.68,3.58,-0.14,0.51,0.07,-36.71,-6.99,31.95
15746,-8.59,-3.54,2.99,-0.12,0.52,0.11,-35.90,-8.28,30.61
15757,-8.59,-3.54,2.99,-0.12,0.52,0.11,-35.90,-8.28,30.61
15768,-8.64,-3.17,2.99,-0.13,0.42,0.17,-35.90,-8.28,30.61
15779,-8.64,-3.17,2.99,-0.13,0.42,0.17,-35.90,-8.28,30.61
15790,-8.85,-3.09,2.90,-0.19,0.31,0.19,-35.90,-8.28,30.61
15801,-8.85,-3.09,2.90,-0.19,0.31,0.19,-35.90,-8.28,30.61
15812,-8.81,-3.50,3.06,-0.28,0.27,0.18,-35.90,-8.28,30.61
15823,-8.81,-3.50,3.06,-0.28,0.27,0.18,-35.90,-8.28,30.61
15834,-8.70,-3.17,2.81,-0.30,0.26,0.20,-35.90,-8.28,30.61
15845,-8.93,-3.14,3.11,-0.30,0.17,0.18,-35.90,-8.28,30.61
15856,-8.93,-3.14,3.11,-0.30,0.17,0.18,-35.90,-8.28,30.61
15867,-8.45,-3.36,2.51,-0.33,0.11,0.18,-36.51,-6.18,28.78
15878,-8.45,-3.36,2.51,-0.33,0.11,0.18,-36.51,-6.18,28.78
15889,-8.69,-3.52,2.53,-0.26,-0.05,0.15,-36.51,-6.18,28.78
15900,-8.69,-3.52,2.53,-0.26,-0.05,0.15,-36.51,-6.18,28.78
15911,-8.87,-3.33,2.91,-0.17,-0.18,0.17,-36.51,-6.18,28.78
15922,-8.87,-3.33,2.91,-0.17,-0.18,0.17,-36.51,-6.18,28.78
15933,-8.48,-3.28,2.27,-0.08,-0.28,0.15,-36.51,-6.18,28.78
15944,-8.72,-3.43,2.74,0.08,-0.41,0.10,-36.51,-6.18,28.78
15955,-8.72,-3.43,2.74,0.08,-0.41,0.10,-36.51,-6.18,28.78
15966,-8.40,-3.04,2.45,0.27,-0.55,0.07,-36.51,-6.18,28.78
15977,-8.40,-3.04,2.45,0.27,-0.55,0.07,-36.51,-6.18,28.78
15988,-8.93,-3.41,3.57,0.36,-0.71,0.00,-37.12,-7.31,29.95
15999,-8.93,-3.41,3.57,0.36,-0.71,0.00,-37.12,-7.31,29.95
16010,-8.45,-3.28,3.49,0.29,-0.71,-0.05,-37.12,-7.31,29.95
16021,-8.45,-3.28,3.49,0.29,-0.71,-0.05,-37.12,-7.31,29.95
16032,-8.74,-3.36,3.17,0.27,-0.72,-0.10,-37.12,-7.31,29.95
16043,-8.74,-3.36,3.17,0.27,-0.72,-0.10,-37.12,-7.31,29.95
16055,-8.96,-3.54,3.67,0.42,-0.68,-0.08,-37.12,-7.31,29.95
16065,-9.20,-3.40,4.07,0.34,-0.56,-0.10,-37.12,-7.31,29.95
16076,-9.20,-3.40,4.07,0.34,-0.56,-0.10,-37.12,-7.31,29.95
16087,-8.78,-3.37,4.11,0.12,-0.35,-0.18,-37.12,-7.31,29.95
16098,-8.78,-3.37,4.11,0.12,-0.35,-0.18,-37.12,-7.31,29.95
16109,-8.96,-3.45,3.12,0.07,-0.20,-0.23,-34.08,-7.80,31.78
16120,-8.96,-3.45,3.12,0.07,-0.20,-0.23,-34.08,-7.80,31.78
16131,-9.03,-3.28,3.91,0.14,-0.16,-0.19,-34.08,-7.80,31.78
16142,-9.03,-3.28,3.91,0.14,-0.16,-0.19,-34.08,-7.80,31.78
16153,-8.82,-3.15,3.85,0.11,-0.01,-0.18,-34.08,-7.80,31.78
16164,-9.02,-2.97,3.66,0.05,0.10,-0.17,-34.08,-7.80,31.78
16175,-9.02,-2.97,3.66,0.05,0.10,-0.17,-34.08,-7.80,31.78
16186,-9.11,-2.97,4.66,-0.10,0.23,-0.18,-34.08,-7.80,31.78
16197,-9.11,-2.97,4.66,-0.10,0.23,-0.18,-34.08,-7.80,31.78
16208,-8.86,-2.93,3.62,-0.28,0.47,-0.16,-34.08,-7.80,31.78
16219,-8.86,-2.93,3.62,-0.28,0.47,-0.16,-34.08,-7.80,31.78
16230,-8.80,-3.25,3.55,-0.32,0.56,-0.11,-34.08,-7.80,31.78
16241,-8.80,-3.25,3.55,-0.32,0.56,-0.11,-34.08,-7.80,31.78
16252,-8.33,-3.74,3.74,-0.28,0.59,0.01,-35.70,-6.83,31.78
16263,-8.33,-3.74,3.74,-0.28,0.59,0.01,-35.70,-6.83,31.78
16274,-8.57,-3.27,3.32,-0.22,0.54,0.11,-35.70,-6.83,31.78
16285,-8.61,-3.17,3.29,-0.19,0.50,0.16,-35.70,-6.83,31.78
16296,-8.61,-3.17,3.29,-0.19,0.50,0.16,-35.70,-6.83,31.78
16307,-8.52,-3.38,3.13,-0.22,0.48,0.16,-35.70,-6.83,31.78
16318,-8.52,-3.38,3.13,-0.22,0.48,0.16,-35.70,-6.83,31.78
16329,-8.51,-3.48,3.21,-0.25,0.38,0.20,-35.70,-6.83,31.78
16340,-8.51,-3.48,3.21,-0.25,0.38,0.20,-35.70,-6.83,31.78
16351,-8.83,-2.92,3.29,-0.31,0.30,0.23,-35.70,-6.83,31.78
16362,-8.83,-2.92,3.29,-0.31,0.30,0.23,-35.70,-6.83,31.78
16373,-8.84,-2.66,2.74,-0.37,0.26,0.25,-35.90,-7.31,30.28
16384,-8.84,-2.66,2.74,-0.37,0.26,0.25,-35.90,-7.31,30.28
16395,-8.48,-3.29,2.77,-0.34,0.14,0.25,-35.90,-7.31,30.28
16406,-8.72,-3.26,2.71,-0.31,0.02,0.22,-35.90,-7.31,30.28
16417,-8.72,-3.26,2.71,-0.31,0.02,0.22,-35.90,-7.31,30.28
16428,-8.71,-3.93,2.98,-0.23,-0.13,0.20,-35.90,-7.31,30.28
16439,-8.71,-3.93,2.98,-0.23,-0.13,0.20,-35.90,-7.31,30.28
16450,-7.91,-3.35,2.35,-0.18,-0.29,0.20,-35.90,-7.31,30.28
16461,-7.91,-3.35,2.35,-0.18,-0.29,0.20,-35.90,-7.31,30.28
16472,-8.49,-3.38,3.40,-0.00,-0.39,0.18,-35.90,-7.31,30.28
16483,-8.49,-3.38,3.40,-0.00,-0.39,0.18,-35.90,-7.31,30.28
16494,-8.37,-3.34,2.41,0.17,-0.43,0.11,-36.51,-7.47,30.11
16505,-8.30,-3.44,2.72,0.31,-0.61,0.01,-36.51,-7.47,30.11
16516,-8.30,-3.44,2.72,0.31,-0.61,0.01,-36.51,-7.47,30.11
16527,-8.42,-3.80,3.36,0.38,-0.73,-0.07,-36.51,-7.47,30.11
16538,-8.42,-3.80,3.36,0.38,-0.73,-0.07,-36.51,-7.47,30.11
16549,-8.78,-3.78,3.82,0.23,-0.77,-0.13,-36.51,-7.47,30.11
16560,-8.78,-3.78,3.82,0.23,-0.77,-0.13,-36.51,-7.47,30.11
16571,-8.78,-3.56,3.96,0.02,-0.64,-0.17,-36.51,-7.47,30.11
16582,-8.78,-3.56,3.96,0.02,-0.64,-0.17,-36.51,-7.47,30.11
16593,-8.35,-3.15,3.21,-0.00,-0.56,-0.18,-36.51,-7.47,30.11
16604,-8.35,-3.15,3.21,-0.00,-0.56,-0.18,-36.51,-7.47,30.11
16615,-8.61,-3.45,3.34,0.13,-0.61,-0.22,-36.51,-7.47,30.11
16626,-8.92,-3.61,3.67,0.29,-0.61,-0.20,-33.06,-7.64,33.29
16637,-8.92,-3.61,3.67,0.29,-0.61,-0.20,-33.06,-7.64,33.29
16648,-9.05,-2.97,5.02,0.32,-0.43,-0.11,-33.06,-7.64,33.29
16659,-9.05,-2.97,5.02,0.32,-0.43,-0.11,-33.06,-7.64,33.29
16670,-9.09,-2.62,4.42,0.15,-0.13,-0.14,-33.06,-7.64,33.29
16681,-9.09,-2.62,4.42,0.15,-0.13,-0.14,-33.06,-7.64,33.29
16692,-8.97,-2.64,3.99,0.00,0.06,-0.18,-33.06,-7.64,33.29
16703,-8.97,-2.64,3.99,0.00,0.06,-0.18,-33.06,-7.64,33.29
16714,-9.22,-3.04,4.56,-0.13,0.17,-0.20,-33.06,-7.64,33.29
16725,-8.78,-3.34,4.57,-0.34,0.43,-0.18,-33.06,-7.64,33.29
16736,-8.78,-3.34,4.57,-0.34,0.43,-0.18,-33.06,-7.64,33.29
16747,-8.51,-3.63,3.64,-0.43,0.60,-0.11,-33.67,-8.44,31.45
16758,-8.51,-3.63,3.64,-0.43,0.60,-0.11,-33.67,-8.44,31.45
16769,-8.62,-3.61,3.53,-0.34,0.59,-0.00,-33.67,-8.44,31.45
16780,-8.62,-3.61,3.53,-0.34,0.59,-0.00,-33.67,-8.44,31.45
16791,-8.64,-3.21,3.48,-0.25,0.57,0.11,-33.67,-8.44,31.45
16802,-8.64,-3.21,3.48,-0.25,0.57,0.11,-33.67,-8.44,31.45
16813,-8.37,-3.27,3.82,-0.16,0.58,0.12,-33.67,-8.44,31.45
16824,-8.37,-3.27,3.82,-0.16,0.58,0.12,-33.67,-8.44,31.45
16835,-8.40,-3.43,3.36,-0.09,0.55,0.09,-33.67,-8.44,31.45
16846,-8.49,-3.34,3.59,-0.07,0.47,0.13,-33.67,-8.44,31.45
16857,-8.49,-3.34,3.59,-0.07,0.47,0.13,-33.67,-8.44,31.45
16868,-8.74,-2.95,2.95,-0.13,0.40,0.18,-35.90,-8.28,30.61
16879,-8.74,-2.95,2.95,-0.13,0.40,0.18,-35.90,-8.28,30.61
16890,-8.59,-3.11,3.02,-0.19,0.28,0.21,-35.90,-8.28,30.61
16902,-8.59,-3.11,3.02,-0.19,0.28,0.21,-35.90,-8.28,30.61
16912,-8.69,-3.05,2.95,-0.24,0.15,0.23,-35.90,-8.28,30.61
16923,-8.69,-3.05,2.95,-0.24,0.15,0.23,-35.90,-8.28,30.61
16934,-8.97,-2.61,2.97,-0.27,0.09,0.25,-35.90,-8.28,30.61
16945,-8.82,-3.09,3.12,-0.28,0.05,0.22,-35.90,-8.28,30.61
16956,-8.82,-3.09,3.12,-0.28,0.05,0.22,-35.90,-8.28,30.61
16967,-8.78,-3.24,3.08,-0.30,-0.01,0.22,-35.90,-8.28,30.61
16978,-8.78,-3.24,3.08,-0.30,-0.01,0.22,-35.90,-8.28,30.61
16989,-8.50,-3.24,3.12,-0.28,-0.07,0.22,-35.90,-8.28,30.61
17000,-8.50,-3.24,3.12,-0.28,-0.07,0.22,-35.90,-8.28,30.61
17011,-8.44,-3.63,2.76,-0.20,-0.14,0.16,-36.71,-8.28,29.61
17022,-8.44,-3.63,2.76,-0.20,-0.14,0.16,-36.71,-8.28,29.61
17033,-8.30,-3.58,2.91,-0.09,-0.25,0.17,-36.71,-8.28,29.61
17044,-8.30,-3.58,2.91,-0.09,-0.25,0.17,-36.71,-8.28,29.61
17055,-8.35,-3.37,3.03,0.03,-0.35,0.11,-36.71,-8.28,29.61
17066,-8.10,-3.78,2.45,0.18,-0.42,0.00,-36.71,-8.28,29.61
17077,-8.10,-3.78,2.45,0.18,-0.42,0.00,-36.71,-8.28,29.61
17088,-8.44,-3.31,2.62,0.38,-0.57,-0.01,-36.71,-8.28,29.61
17099,-8.44,-3.31,2.62,0.38,-0.57,-0.01,-36.71,-8.28,29.61
17110,-8.36,-3.29,3.36,0.49,-0.76,-0.06,-36.71,-8.28,29.61
17121,-8.36,-3.29,3.36,0.49,-0.76,-0.06,-36.71,-8.28,29.61
17132,-8.63,-3.28,3.76,0.48,-0.90,-0.10,-34.28,-6.67,31.95
17143,-8.63,-3.28,3.76,0.48,-0.90,-0.10,-34.28,-6.67,31.95
17154,-8.87,-3.57,4.23,0.37,-0.82,-0.13,-34.28,-6.67,31.95
17165,-8.77,-3.03,4.09,0.23,-0.58,-0.09,-34.28,-6.67,31.95
17176,-8.77,-3.03,4.09,0.23,-0.58,-0.09,-34.28,-6.67,31.95
17187,-8.89,-2.80,4.36,0.22,-0.44,-0.12,-34.28,-6.67,31.95
17198,-8.89,-2.80,4.36,0.22,-0.44,-0.12,-34.28,-6.67,31.95
17209,-8.75,-2.83,4.00,0.23,-0.30,-0.17,-34.28,-6.67,31.95
17220,-8.75,-2.83,4.00,0.23,-0.30,-0.17,-34.28,-6.67,31.95
17231,-8.99,-3.17,4.25,0.22,-0.19,-0.20,-34.28,-6.67,31.95
17242,-8.99,-3.17,4.25,0.22,-0.19,-0.20,-34.28,-6.67,31.95
17253,-9.04,-2.66,4.58,0.02,-0.03,-0.16,-33.26,-6.18,32.79
17264,-9.04,-2.66,4.58,0.02,-0.03,-0.16,-33.26,-6.18,32.79
17275,-8.95,-2.53,4.30,-0.09,0.19,-0.20,-33.26,-6.18,32.79
17286,-9.10,-2.72,4.43,-0.29,0.38,-0.23,-33.26,-6.18,32.79
17297,-9.10,-2.72,4.43,-0.29,0.38,-0.23,-33.26,-6.18,32.79
17308,-8.72,-2.93,4.47,-0.46,0.54,-0.17,-33.26,-6.18,32.79
17319,-8.72,-2.93,4.47,-0.46,0.54,-0.17,-33.26,-6.18,32.79
17330,-8.72,-3.41,3.69,-0.50,0.61,-0.06,-33.26,-6.18,32.79
17341,-8.72,-3.41,3.69,-0.50,0.61,-0.06,-33.26,-6.18,32.79
17352,-8.45,-3.18,3.82,-0.44,0.60,0.10,-33.26,-6.18,32.79
17363,-8.45,-3.18,3.82,-0.44,0.60,0.10,-33.26,-6.18,32.79
17375,-8.45,-3.00,3.05,-0.40,0.58,0.17,-33.26,-6.18,32.79
17385,-8.45,-3.00,3.05,-0.40,0.58,0.17,-33.26,-6.18,32.79
17401,-8.44,-3.39,3.47,-0.34,0.47,0.18,-35.09,-8.60,30.61
17407,-8.70,-3.12,3.53,-0.28,0.42,0.22,-35.09,-8.60,30.61
17418,-8.70,-3.12,3.53,-0.28,0.42,0.22,-35.09,-8.60,30.61
17429,-8.48,-2.87,2.88,-0.28,0.42,0.23,-35.09,-8.60,30.61
17440,-8.48,-2.87,2.88,-0.28,0.42,0.23,-35.09,-8.60,30.61
17451,-8.64,-2.75,3.47,-0.27,0.30,0.24,-35.09,-8.60,30.61
17462,-8.64,-2.75,3.47,-0.27,0.30,0.24,-35.09,-8.60,30.61
17473,-8.55,-3.45,3.65,-0.29,0.24,0.21,-35.09,-8.60,30.61
17484,-8.55,-3.45,3.65,-0.29,0.24,0.21,-35.09,-8.60,30.61
17495,-8.66,-2.88,2.50,-0.26,0.15,0.24,-35.09,-8.60,30.61
17506,-8.48,-2.85,3.05,-0.20,-0.04,0.22,-35.29,-8.44,31.12
17517,-8.48,-2.85,3.05,-0.20,-0.04,0.22,-35.29,-8.44,31.12
17528,-8.27,-3.50,2.62,-0.13,-0.14,0.15,-35.29,-8.44,31.12
17539,-8.27,-3.50,2.62,-0.13,-0.14,0.15,-35.29,-8.44,31.12
17550,-8.58,-3.44,3.33,-0.07,-0.29,0.15,-35.29,-8.44,31.12
17561,-8.58,-3.44,3.33,-0.07,-0.29,0.15,-35.29,-8.44,31.12
17572,-8.16,-3.06,2.72,0.06,-0.36,0.11,-35.29,-8.44,31.12
17583,-8.16,-3.06,2.72,0.06,-0.36,0.11,-35.29,-8.44,31.12
17594,-8.23,-3.36,2.76,0.23,-0.47,0.02,-35.29,-8.44,31.12
17605,-8.23,-3.36,2.76,0.23,-0.47,0.02,-35.29,-8.44,31.12
17616,-8.45,-3.37,3.43,0.28,-0.59,-0.01,-35.29,-8.44,31.12
17627,-8.45,-3.33,3.42,0.26,-0.62,-0.07,-33.67,-6.83,31.78
17638,-8.45,-3.33,3.42,0.26,-0.62,-0.07,-33.67,-6.83,31.78
17649,-8.68,-3.19,3.59,0.27,-0.63,-0.10,-33.67,-6.83,31.78
17660,-8.68,-3.19,3.59,0.27,-0.63,-0.10,-33.67,-6.83,31.78
17671,-8.51,-3.27,3.47,0.27,-0.61,-0.10,-33.67,-6.83,31.78
17682,-8.51,-3.27,3.47,0.27,-0.61,-0.10,-33.67,-6.83,31.78
17693,-8.83,-3.50,4.00,0.25,-0.61,-0.12,-33.67,-6.83,31.78
17704,-8.83,-3.50,4.00,0.25,-0.61,-0.12,-33.67,-6.83,31.78
17715,-8.71,-3.20,3.93,0.24,-0.51,-0.12,-33.67,-6.83,31.78
17726,-8.70,-2.98,3.94,0.29,-0.43,-0.11,-33.67,-6.83,31.78
17737,-8.70,-2.98,3.94,0.29,-0.43,-0.11,-33.67,-6.83,31.78
17748,-8.65,-2.81,4.04,0.33,-0.38,-0.14,-32.05,-6.83,34.79
17759,-8.65,-2.81,4.04,0.33,-0.38,-0.14,-32.05,-6.83,34.79
17770,-9.21,-2.77,5.03,0.30,-0.28,-0.18,-32.05,-6.83,34.79
17781,-9.21,-2.77,5.03,0.30,-0.28,-0.18,-32.05,-6.83,34.79
17792,-8.92,-2.57,4.08,0.13,-0.03,-0.20,-32.05,-6.83,34.79
17803,-8.92,-2.57,4.08,0.13,-0.03,-0.20,-32.05,-6.83,34.79
17814,-9.23,-2.52,4.33,-0.07,0.09,-0.23,-32.05,-6.83,34.79
17826,-9.23,-2.52,4.33,-0.07,0.09,-0.23,-32.05,-6.83,34.79
17836,-9.21,-2.64,4.71,-0.30,0.32,-0.24,-32.05,-6.83,34.79
17847,-8.78,-3.11,4.37,-0.54,0.59,-0.23,-32.05,-6.83,34.79
17858,-8.78,-3.11,4.37,-0.54,0.59,-0.23,-32.05,-6.83,34.79
17869,-8.45,-3.29,4.22,-0.49,0.73,-0.15,-32.05,-6.83,34.79
17880,-8.45,-3.29,4.22,-0.49,0.73,-0.15,-32.05,-6.83,34.79
17891,-8.50,-3.57,3.37,-0.33,0.77,-0.07,-32.25,-7.64,31.62
17902,-8.50,-3.57,3.37,-0.33,0.77,-0.07,-32.25,-7.64,31.62
17913,-8.36,-3.39,3.50,-0.23,0.67,0.04,-32.25,-7.64,31.62
17924,-8.36,-3.39,3.50,-0.23,0.67,0.04,-32.25,-7.64,31.62
17935,-8.53,-2.97,3.05,-0.21,0.56,0.13,-32.25,-7.64,31.62
17946,-8.43,-3.22,3.86,-0.16,0.44,0.20,-32.25,-7.64,31.62
17957,-8.43,-3.22,3.86,-0.16,0.44,0.20,-32.25,-7.64,31.62
17968,-8.58,-3.15,3.70,-0.23,0.35,0.24,-32.25,-7.64,31.62
17979,-8.58,-3.15,3.70,-0.23,0.35,0.24,-32.25,-7.64,31.62
17990,-8.63,-2.87,3.01,-0.24,0.24,0.26,-32.25,-7.64,31.62
18001,-8.63,-2.87,3.01,-0.24,0.24,0.26,-32.25,-7.64,31.62
18012,-8.63,-2.63,3.17,-0.25,0.12,0.28,-35.50,-9.90,31.28
18023,-8.63,-2.63,3.17,-0.25,0.12,0.28,-35.50,-9.90,31.28
18034,-8.34,-2.65,2.99,-0.26,0.01,0.24,-35.50,-9.90,31.28
18045,-8.34,-2.65,2.99,-0.26,0.01,0.24,-35.50,-9.90,31.28
18056,-8.49,-3.54,3.62,-0.28,-0.07,0.20,-35.50,-9.90,31.28
18067,-8.84,-3.17,3.10,-0.36,-0.10,0.23,-35.50,-9.90,31.28
18078,-8.84,-3.17,3.10,-0.36,-0.10,0.23,-35.50,-9.90,31.28
18089,-8.41,-3.28,3.08,-0.34,-0.14,0.20,-35.50,-9.90,31.28
18100,-8.41,-3.28,3.08,-0.34,-0.14,0.20,-35.50,-9.90,31.28
18111,-8.47,-3.75,2.72,-0.23,-0.14,0.14,-35.50,-9.90,31.28
18122,-8.47,-3.75,2.72,-0.23,-0.14,0.14,-35.50,-9.90,31.28
18133,-8.30,-3.52,2.97,-0.06,-0.23,0.11,-35.29,-9.41,30.78
18144,-8.30,-3.52,2.97,-0.06,-0.23,0.11,-35.29,-9.41,30.78
18155,-8.40,-3.45,3.07,0.14,-0.30,0.03,-35.29,-9.41,30.78
18166,-8.43,-3.04,2.85,0.23,-0.42,-0.05,-35.29,-9.41,30.78
18177,-8.43,-3.04,2.85,0.23,-0.42,-0.05,-35.29,-9.41,30.78
18188,-8.65,-3.23,3.42,0.17,-0.54,-0.14,-35.29,-9.41,30.78
18204,-8.65,-3.23,3.42,0.17,-0.54,-0.14,-35.29,-9.41,30.78
18210,-8.31,-3.45,3.31,0.15,-0.64,-0.19,-35.29,-9.41,30.78
18221,-8.31,-3.45,3.31,0.15,-0.64,-0.19,-35.29,-9.41,30.78
18232,-9.09,-3.70,4.01,0.26,-0.74,-0.18,-35.29,-9.41,30.78
18243,-9.09,-3.70,4.01,0.26,-0.74,-0.18,-35.29,-9.41,30.78
18254,-8.46,-2.81,4.67,0.36,-0.59,-0.10,-35.29,-9.41,30.78
18265,-8.46,-2.81,4.67,0.36,-0.59,-0.10,-35.29,-9.41,30.78
18276,-8.90,-2.82,4.23,0.30,-0.40,-0.13,-31.44,-8.60,33.29
18287,-9.13,-2.92,3.82,0.20,-0.32,-0.17,-31.44,-8.60,33.29
18298,-9.13,-2.92,3.82,0.20,-0.32,-0.17,-31.44,-8.60,33.29
18309,-9.11,-3.15,4.19,0.16,-0.19,-0.17,-31.44,-8.60,33.29
18320,-9.11,-3.15,4.19,0.16,-0.19,-0.17,-31.44,-8.60,33.29
18331,-8.81,-2.88,3.57,0.05,-0.04,-0.15,-31.44,-8.60,33.29
18342,-8.81,-2.88,3.57,0.05,-0.04,-0.15,-31.44,-8.60,33.29
18353,-8.83,-2.78,4.35,0.04,0.03,-0.18,-31.44,-8.60,33.29
18364,-8.83,-2.78,4.35,0.04,0.03,-0.18,-31.44,-8.60,33.29
18375,-8.86,-2.93,4.75,-0.04,0.18,-0.21,-31.44,-8.60,33.29
18386,-8.77,-2.95,4.39,-0.23,0.38,-0.20,-33.26,-8.44,32.79
18397,-8.77,-2.95,4.39,-0.23,0.38,-0.20,-33.26,-8.44,32.79
18408,-8.77,-3.07,4.02,-0.33,0.47,-0.13,-33.26,-8.44,32.79
18419,-8.77,-3.07,4.02,-0.33,0.47,-0.13,-33.26,-8.44,32.79
18430,-8.88,-2.93,4.03,-0.34,0.56,-0.03,-33.26,-8.44,32.79
18441,-8.88,-2.93,4.03,-0.34,0.56,-0.03,-33.26,-8.44,32.79
18452,-8.64,-3.47,3.70,-0.32,0.71,0.01,-33.26,-8.44,32.79
18463,-8.64,-3.47,3.70,-0.32,0.71,0.01,-33.26,-8.44,32.79
18474,-8.39,-3.29,3.12,-0.30,0.69,0.12,-33.26,-8.44,32.79
18485,-8.39,-3.29,3.12,-0.30,0.69,0.12,-33.26,-8.44,32.79
18496,-8.46,-3.28,3.32,-0.21,0.52,0.24,-33.26,-8.44,32.79
18507,-8.44,-3.15,2.99,-0.20,0.39,0.31,-35.50,-8.60,31.28
18518,-8.44,-3.15,2.99,-0.20,0.39,0.31,-35.50,-8.60,31.28
18534,-8.51,-3.03,3.42,-0.22,0.23,0.32,-35.50,-8.60,31.28
18540,-8.51,-3.03,3.42,-0.22,0.23,0.32,-35.50,-8.60,31.28
18551,-8.68,-2.47,2.74,-0.26,0.14,0.31,-35.50,-8.60,31.28
18562,-8.68,-2.47,2.74,-0.26,0.14,0.31,-35.50,-8.60,31.28
18573,-8.58,-2.84,3.22,-0.29,0.05,0.28,-35.50,-8.60,31.28
18584,-8.58,-2.84,3.22,-0.29,0.05,0.28,-35.50,-8.60,31.28
18595,-8.75,-2.88,2.89,-0.30,0.01,0.23,-35.50,-8.60,31.28
18606,-8.75,-2.88,2.89,-0.30,0.01,0.23,-35.50,-8.60,31.28
18617,-8.59,-3.28,2.83,-0.26,-0.09,0.19,-35.50,-8.60,31.28
18628,-8.49,-3.49,3.16,-0.14,-0.22,0.18,-35.50,-8.60,31.28
18639,-8.49,-3.49,3.16,-0.14,-0.22,0.18,-35.50,-8.60,31.28
18650,-8.48,-3.28,3.08,-0.04,-0.28,0.17,-35.50,-9.57,31.62
18661,-8.48,-3.28,3.08,-0.04,-0.28,0.17,-35.50,-9.57,31.62
18672,-8.26,-2.99,2.90,0.11,-0.34,0.08,-35.50,-9.57,31.62
18683,-8.26,-2.99,2.90,0.11,-0.34,0.08,-35.50,-9.57,31.62
18694,-8.26,-3.06,3.06,0.25,-0.51,-0.04,-35.50,-9.57,31.62
18705,-8.26,-3.06,3.06,0.25,-0.51,-0.04,-35.50,-9.57,31.62
18716,-8.89,-3.46,2.85,0.32,-0.72,-0.14,-35.50,-9.57,31.62
18727,-9.04,-3.27,4.30,0.35,-0.74,-0.10,-35.50,-9.57,31.62
18738,-9.04,-3.27,4.30,0.35,-0.74,-0.10,-35.50,-9.57,31.62
18749,-8.95,-2.83,4.16,0.34,-0.58,-0.08,-35.50,-9.57,31.62
18760,-8.95,-2.83,4.16,0.34,-0.58,-0.08,-35.50,-9.57,31.62
18771,-8.08,-3.04,3.63,0.32,-0.55,-0.17,-32.66,-7.64,32.29
18782,-8.08,-3.04,3.63,0.32,-0.55,-0.17,-32.66,-7.64,32.29
18794,-8.47,-3.28,3.63,0.26,-0.62,-0.21,-32.66,-7.64,32.29
18804,-8.47,-3.28,3.63,0.26,-0.62,-0.21,-32.66,-7.64,32.29
18815,-9.16,-3.32,4.83,0.23,-0.61,-0.18,-32.66,-7.64,32.29
18826,-9.16,-3.32,4.83,0.23,-0.61,-0.18,-32.66,-7.64,32.29
18837,-8.96,-2.44,4.81,0.20,-0.34,-0.11,-32.66,-7.64,32.29
18848,-8.93,-2.54,4.00,0.14,-0.13,-0.17,-32.66,-7.64,32.29
18859,-8.93,-2.54,4.00,0.14,-0.13,-0.17,-32.66,-7.64,32.29
18870,-8.97,-2.64,4.51,0.01,-0.05,-0.20,-32.66,-7.64,32.29
18881,-8.97,-2.64,4.51,0.01,-0.05,-0.20,-32.66,-7.64,32.29
18892,-8.93,-3.20,5.44,-0.16,0.17,-0.26,-29.61,-7.47,34.46
18903,-8.93,-3.20,5.44,-0.16,0.17,-0.26,-29.61,-7.47,34.46
18914,-8.39,-3.15,4.19,-0.40,0.46,-0.22,-29.61,-7.47,34.46
18925,-8.39,-3.15,4.19,-0.40,0.46,-0.22,-29.61,-7.47,34.46
18936,-8.61,-3.19,4.57,-0.42,0.50,-0.13,-29.61,-7.47,34.46
18947,-8.74,-3.30,4.54,-0.39,0.57,-0.05,-29.61,-7.47,34.46
18958,-8.74,-3.30,4.54,-0.39,0.57,-0.05,-29.61,-7.47,34.46
18969,-8.28,-3.60,4.00,-0.32,0.66,0.04,-29.61,-7.47,34.46
18980,-8.28,-3.60,4.00,-0.32,0.66,0.04,-29.61,-7.47,34.46
18991,-8.30,-3.34,3.86,-0.26,0.63,0.12,-29.61,-7.47,34.46
19002,-8.30,-3.34,3.86,-0.26,0.63,0.12,-29.61,-7.47,34.46
19013,-8.46,-3.49,3.46,-0.24,0.56,0.18,-33.26,-8.77,32.45
19024,-8.46,-3.49,3.46,-0.24,0.56,0.18,-33.26,-8.77,32.45
19035,-8.32,-3.31,3.49,-0.21,0.44,0.28,-33.26,-8.77,32.45
19046,-8.32,-3.31,3.49,-0.21,0.44,0.28,-33.26,-8.77,32.45
19057,-8.56,-2.93,3.52,-0.23,0.31,0.33,-33.26,-8.77,32.45
19068,-8.63,-2.73,3.48,-0.25,0.24,0.32,-33.26,-8.77,32.45
19079,-8.63,-2.73,3.48,-0.25,0.24,0.32,-33.26,-8.77,32.45
19090,-8.60,-2.86,2.73,-0.23,0.17,0.29,-33.26,-8.77,32.45
19101,-8.60,-2.86,2.73,-0.23,0.17,0.29,-33.26,-8.77,32.45
19112,-8.84,-2.71,3.50,-0.20,0.04,0.28,-33.26,-8.77,32.45
19123,-8.84,-2.71,3.50,-0.20,0.04,0.28,-33.26,-8.77,32.45
19134,-8.57,-2.59,2.99,-0.25,-0.01,0.25,-33.26,-8.77,32.45
19145,-8.57,-2.59,2.99,-0.25,-0.01,0.25,-33.26,-8.77,32.45
19156,-8.52,-3.10,3.47,-0.25,-0.15,0.21,-34.28,-9.57,31.95
19167,-8.23,-3.72,2.95,-0.18,-0.20,0.14,-34.28,-9.57,31.95
19178,-8.23,-3.72,2.95,-0.18,-0.20,0.14,-34.28,-9.57,31.95
19189,-8.44,-3.09,2.87,0.03,-0.30,0.15,-34.28,-9.57,31.95
19200,-8.44,-3.09,2.87,0.03,-0.30,0.15,-34.28,-9.57,31.95
19211,-8.77,-2.93,3.39,0.20,-0.40,0.08,-34.28,-9.57,31.95
19222,-8.77,-2.93,3.39,0.20,-0.40,0.08,-34.28,-9.57,31.95
19233,-8.17,-3.05,3.08,0.26,-0.43,-0.00,-34.28,-9.57,31.95
19244,-8.17,-3.05,3.08,0.26,-0.43,-0.00,-34.28,-9.57,31.95
19255,-8.77,-2.72,3.80,0.32,-0.55,-0.04,-34.28,-9.57,31.95
19266,-8.77,-2.72,3.80,0.32,-0.55,-0.04,-34.28,-9.57,31.95
19277,-8.74,-2.92,3.83,0.29,-0.61,-0.12,-33.06,-7.96,33.62
19289,-8.43,-3.11,3.81,0.28,-0.60,-0.13,-33.06,-7.96,33.62
19299,-8.43,-3.11,3.81,0.28,-0.60,-0.13,-33.06,-7.96,33.62
19310,-8.82,-3.28,4.22,0.31,-0.63,-0.12,-33.06,-7.96,33.62
19321,-8.82,-3.28,4.22,0.31,-0.63,-0.12,-33.06,-7.96,33.62
19332,-8.75,-3.22,4.36,0.22,-0.54,-0.14,-33.06,-7.96,33.62
19343,-8.75,-3.22,4.36,0.22,-0.54,-0.14,-33.06,-7.96,33.62
19354,-8.80,-2.78,3.95,0.17,-0.37,-0.17,-33.06,-7.96,33.62
19365,-8.80,-2.78,3.95,0.17,-0.37,-0.17,-33.06,-7.96,33.62
19376,-8.96,-3.25,4.59,0.22,-0.26,-0.23,-33.06,-7.96,33.62
19387,-8.73,-2.75,4.03,0.13,-0.12,-0.18,-28.60,-8.28,34.62
19398,-8.73,-2.75,4.03,0.13,-0.12,-0.18,-28.60,-8.28,34.62
19409,-8.80,-2.59,4.92,0.04,-0.03,-0.17,-28.60,-8.28,34.62
19420,-8.80,-2.59,4.92,0.04,-0.03,-0.17,-28.60,-8.28,34.62
19431,-8.69,-2.60,4.85,-0.16,0.16,-0.19,-28.60,-8.28,34.62
19442,-8.69,-2.60,4.85,-0.16,0.16,-0.19,-28.60,-8.28,34.62
19453,-8.67,-2.65,4.76,-0.32,0.32,-0.18,-28.60,-8.28,34.62
19464,-8.67,-2.65,4.76,-0.32,0.32,-0.18,-28.60,-8.28,34.62
19475,-8.80,-3.27,5.20,-0.47,0.43,-0.14,-28.60,-8.28,34.62
19486,-8.80,-3.27,5.20,-0.47,0.43,-0.14,-28.60,-8.28,34.62
19497,-8.62,-3.29,4.15,-0.50,0.62,-0.04,-28.60,-8.28,34.62
19508,-8.37,-3.21,3.66,-0.43,0.67,0.06,-28.60,-8.28,34.62
19519,-8.37,-3.21,3.66,-0.43,0.67,0.06,-28.60,-8.28,34.62
19530,-8.30,-3.15,3.51,-0.36,0.63,0.16,-32.25,-10.54,32.62
19541,-8.30,-3.15,3.51,-0.36,0.63,0.16,-32.25,-10.54,32.62
19552,-8.40,-3.50,3.58,-0.31,0.56,0.19,-32.25,-10.54,32.62
19563,-8.40,-3.50,3.58,-0.31,0.56,0.19,-32.25,-10.54,32.62
19574,-8.45,-3.19,2.89,-0.29,0.45,0.23,-32.25,-10.54,32.62
19585,-8.45,-3.19,2.89,-0.29,0.45,0.23,-32.25,-10.54,32.62
19596,-8.41,-3.07,3.64,-0.23,0.31,0.25,-32.25,-10.54,32.62
19607,-8.53,-2.67,3.27,-0.27,0.25,0.25,-32.25,-10.54,32.62
19618,-8.53,-2.67,3.27,-0.27,0.25,0.25,-32.25,-10.54,32.62
19629,-8.54,-2.67,3.10,-0.26,0.15,0.22,-32.25,-10.54,32.62
19640,-8.54,-2.67,3.10,-0.26,0.15,0.22,-32.25,-10.54,32.62
19651,-8.11,-3.29,2.73,-0.19,-0.02,0.18,-34.68,-8.28,31.28
19662,-8.11,-3.29,2.73,-0.19,-0.02,0.18,-34.68,-8.28,31.28
19673,-8.26,-3.23,3.37,-0.09,-0.17,0.18,-34.68,-8.28,31.28
19684,-8.26,-3.23,3.37,-0.09,-0.17,0.18,-34.68,-8.28,31.28
19695,-8.33,-2.96,3.19,-0.07,-0.24,0.15,-34.68,-8.28,31.28
19706,-8.33,-2.96,3.19,-0.07,-0.24,0.15,-34.68,-8.28,31.28
19717,-8.15,-3.14,3.25,0.03,-0.32,0.05,-34.68,-8.28,31.28
19728,-8.62,-2.86,3.28,0.19,-0.43,0.00,-34.68,-8.28,31.28
19739,-8.62,-2.86,3.28,0.19,-0.43,0.00,-34.68,-8.28,31.28
19750,-8.27,-3.01,3.13,0.36,-0.56,-0.07,-34.68,-8.28,31.28
19761,-8.27,-3.01,3.13,0.36,-0.56,-0.07,-34.68,-8.28,31.28
19772,-8.18,-3.03,3.55,0.43,-0.75,-0.13,-31.84,-9.57,32.95
19783,-8.18,-3.03,3.55,0.43,-0.75,-0.13,-31.84,-9.57,32.95
19794,-8.50,-3.32,3.88,0.49,-0.82,-0.15,-31.84,-9.57,32.95
19805,-8.50,-3.32,3.88,0.49,-0.82,-0.15,-31.84,-9.57,32.95
19816,-8.44,-3.17,5.13,0.48,-0.74,-0.10,-31.84,-9.57,32.95
19827,-8.44,-3.17,5.13,0.48,-0.74,-0.10,-31.84,-9.57,32.95
19838,-8.38,-2.74,4.35,0.24,-0.55,-0.12,-31.84,-9.57,32.95
19849,-8.77,-2.71,4.48,0.13,-0.38,-0.13,-31.84,-9.57,32.95
19860,-8.77,-2.71,4.48,0.13,-0.38,-0.13,-31.84,-9.57,32.95
19871,-8.85,-2.94,4.82,0.08,-0.22,-0.16,-31.84,-9.57,32.95
19882,-8.85,-2.94,4.82,0.08,-0.22,-0.16,-31.84,-9.57,32.95
19893,-8.69,-2.79,4.08,-0.05,-0.06,-0.15,-31.84,-9.57,32.95
19904,-8.69,-2.79,4.08,-0.05,-0.06,-0.15,-31.84,-9.57,32.95
19915,-8.90,-3.21,4.75,-0.16,0.04,-0.21,-29.61,-7.80,33.46
19926,-8.90,-3.21,4.75,-0.16,0.04,-0.21,-29.61,-7.80,33.46
19937,-8.89,-3.05,4.69,-0.31,0.26,-0.21,-29.61,-7.80,33.46
19949,-8.43,-2.87,4.53,-0.53,0.43,-0.18,-29.61,-7.80,33.46
19959,-8.43,-2.87,4.53,-0.53,0.43,-0.18,-29.61,-7.80,33.46
19970,-8.63,-3.05,4.17,-0.60,0.52,-0.15,-29.61,-7.80,33.46
19981,-8.63,-3.05,4.17,-0.60,0.52,-0.15,-29.61,-7.80,33.46
19992,-8.47,-3.56,4.37,-0.46,0.59,-0.08,-29.61,-7.80,33.46
20003,-8.47,-3.56,4.37,-0.46,0.59,-0.08,-29.61,-7.80,33.46
20014,-8.30,-3.22,4.27,-0.35,0.63,0.03,-29.61,-7.80,33.46
20025,-8.30,-3.22,4.27,-0.35,0.63,0.03,-29.61,-7.80,33.46
20036,-8.28,-3.55,3.56,-0.35,0.65,0.04,-33.47,-9.57,33.29
20047,-8.28,-3.55,3.56,-0.35,0.65,0.04,-33.47,-9.57,33.29
20058,-8.42,-2.99,2.75,-0.28,0.57,0.15,-33.47,-9.57,33.29
20069,-8.46,-3.35,4.00,-0.18,0.44,0.17,-33.47,-9.57,33.29
20080,-8.46,-3.35,4.00,-0.18,0.44,0.17,-33.47,-9.57,33.29
20091,-8.28,-3.01,2.79,-0.14,0.41,0.19,-33.47,-9.57,33.29
20102,-8.28,-3.01,2.79,-0.14,0.41,0.19,-33.47,-9.57,33.29
20113,-8.50,-3.28,3.31,-0.05,0.24,0.20,-33.47,-9.57,33.29
20124,-8.50,-3.28,3.31,-0.05,0.24,0.20,-33.47,-9.57,33.29
20135,-8.54,-3.36,3.34,-0.05,0.13,0.20,-33.47,-9.57,33.29
20146,-8.54,-3.36,3.34,-0.05,0.13,0.20,-33.47,-9.57,33.29
20157,-8.51,-3.34,3.45,-0.10,0.07,0.22,-35.70,-10.71,31.12
20168,-8.38,-3.16,3.00,-0.16,-0.03,0.19,-35.70,-10.71,31.12
20179,-8.38,-3.16,3.00,-0.16,-0.03,0.19,-35.70,-10.71,31.12
20190,-8.62,-3.29,3.52,-0.12,-0.16,0.13,-35.70,-10.71,31.12
20201,-8.62,-3.29,3.52,-0.12,-0.16,0.13,-35.70,-10.71,31.12
20212,-8.42,-3.44,3.00,-0.07,-0.22,0.10,-35.70,-10.71,31.12
20223,-8.42,-3.44,3.00,-0.07,-0.22,0.10,-35.70,-10.71,31.12
20234,-8.25,-2.99,2.95,0.02,-0.30,0.12,-35.70,-10.71,31.12
20245,-8.25,-2.99,2.95,0.02,-0.30,0.12,-35.70,-10.71,31.12
20256,-8.67,-3.15,3.45,0.16,-0.36,0.07,-35.70,-10.71,31.12
20267,-8.67,-3.15,3.45,0.16,-0.36,0.07,-35.70,-10.71,31.12
20278,-8.59,-3.13,2.84,0.25,-0.38,0.04,-31.64,-10.38,31.78
20289,-8.02,-3.04,3.54,0.33,-0.48,0.02,-31.64,-10.38,31.78
20300,-8.02,-3.04,3.54,0.33,-0.48,0.02,-31.64,-10.38,31.78
20311,-8.59,-3.18,4.07,0.38,-0.49,-0.01,-31.64,-10.38,31.78
20322,-8.59,-3.18,4.07,0.38,-0.49,-0.01,-31.64,-10.38,31.78
20333,-8.32,-3.01,3.55,0.39,-0.48,-0.02,-31.64,-10.38,31.78
20344,-8.32,-3.01,3.55,0.39,-0.48,-0.02,-31.64,-10.38,31.78
20355,-8.73,-3.01,4.25,0.39,-0.53,-0.05,-31.64,-10.38,31.78
20366,-8.73,-3.01,4.25,0.39,-0.53,-0.05,-31.64,-10.38,31.78
20377,-8.66,-2.97,4.59,0.19,-0.44,-0.11,-31.64,-10.38,31.78
20388,-8.49,-2.96,4.54,0.09,-0.33,-0.12,-31.64,-10.38,31.78
20399,-8.49,-2.96,4.54,0.09,-0.33,-0.12,-31.64,-10.38,31.78
20410,-8.45,-3.13,3.67,0.09,-0.28,-0.13,-30.83,-9.41,33.12
20421,-8.45,-3.13,3.67,0.09,-0.28,-0.13,-30.83,-9.41,33.12
20432,-8.47,-2.86,4.06,0.14,-0.34,-0.10,-30.83,-9.41,33.12
20443,-8.47,-2.86,4.06,0.14,-0.34,-0.10,-30.83,-9.41,33.12
20454,-8.88,-3.00,4.82,0.17,-0.32,-0.08,-30.83,-9.41,33.12
20465,-8.88,-3.00,4.82,0.17,-0.32,-0.08,-30.83,-9.41,33.12
20476,-8.35,-2.45,4.37,0.04,-0.17,-0.07,-30.83,-9.41,33.12
20487,-8.35,-2.45,4.37,0.04,-0.17,-0.07,-30.83,-9.41,33.12
20498,-8.56,-2.85,4.60,-0.00,-0.06,-0.13,-30.83,-9.41,33.12
20509,-8.53,-3.05,4.74,-0.09,0.05,-0.16,-30.83,-9.41,33.12
20520,-8.53,-3.05,4.74,-0.09,0.05,-0.16,-30.83,-9.41,33.12
20531,-8.55,-2.91,4.63,-0.21,0.16,-0.16,-30.63,-8.60,35.29
20542,-8.55,-2.91,4.63,-0.21,0.16,-0.16,-30.63,-8.60,35.29
20554,-8.73,-2.78,4.70,-0.31,0.25,-0.13,-30.63,-8.60,35.29
20564,-8.73,-2.78,4.70,-0.31,0.25,-0.13,-30.63,-8.60,35.29
20575,-8.67,-3.34,3.71,-0.37,0.39,-0.13,-30.63,-8.60,35.29
20586,-8.67,-3.34,3.71,-0.37,0.39,-0.13,-30.63,-8.60,35.29
20597,-8.65,-3.15,3.72,-0.32,0.38,-0.04,-30.63,-8.60,35.29
20608,-8.44,-2.94,4.15,-0.28,0.41,0.03,-30.63,-8.60,35.29
20619,-8.44,-2.94,4.15,-0.28,0.41,0.03,-30.63,-8.60,35.29
20630,-8.26,-3.38,4.19,-0.24,0.43,0.04,-30.63,-8.60,35.29
20641,-8.26,-3.38,4.19,-0.24,0.43,0.04,-30.63,-8.60,35.29
20652,-8.47,-3.15,4.03,-0.24,0.39,0.09,-32.25,-9.57,32.95
20663,-8.47,-3.15,4.03,-0.24,0.39,0.09,-32.25,-9.57,32.95
20674,-8.48,-2.95,3.63,-0.25,0.39,0.13,-32.25,-9.57,32.95
20685,-8.48,-2.95,3.63,-0.25,0.39,0.13,-32.25,-9.57,32.95
20696,-8.47,-2.80,3.27,-0.23,0.37,0.16,-32.25,-9.57,32.95
20707,-8.47,-2.80,3.27,-0.23,0.37,0.16,-32.25,-9.57,32.95
20718,-8.36,-3.40,3.29,-0.13,0.32,0.14,-32.25,-9.57,32.95
20729,-8.51,-2.77,3.69,-0.07,0.22,0.18,-32.25,-9.57,32.95
20740,-8.51,-2.77,3.69,-0.07,0.22,0.18,-32.25,-9.57,32.95
20751,-8.58,-2.81,3.89,-0.12,0.20,0.16,-32.25,-9.57,32.95
20762,-8.58,-2.81,3.89,-0.12,0.20,0.16,-32.25,-9.57,32.95
20773,-8.51,-2.76,3.50,-0.20,0.20,0.13,-32.25,-9.57,32.95
20784,-8.51,-2.76,3.50,-0.20,0.20,0.13,-32.25,-9.57,32.95
20795,-8.53,-3.28,3.18,-0.23,0.16,0.06,-33.06,-9.90,31.62
20806,-8.53,-3.28,3.18,-0.23,0.16,0.06,-33.06,-9.90,31.62
20817,-8.62,-3.28,2.82,-0.18,0.08,0.04,-33.06,-9.90,31.62
20828,-8.62,-3.28,2.82,-0.18,0.08,0.04,-33.06,-9.90,31.62
20839,-8.61,-3.44,2.87,-0.12,-0.06,0.04,-33.06,-9.90,31.62
20850,-9.02,-2.73,3.24,-0.05,-0.19,0.07,-33.06,-9.90,31.62
20861,-9.02,-2.73,3.24,-0.05,-0.19,0.07,-33.06,-9.90,31.62
20872,-8.98,-2.76,3.58,-0.08,-0.30,-0.01,-33.06,-9.90,31.62
20883,-8.98,-2.76,3.58,-0.08,-0.30,-0.01,-33.06,-9.90,31.62
20894,-9.08,-2.39,3.80,-0.14,-0.33,-0.06,-33.06,-9.90,31.62
20905,-9.08,-2.39,3.80,-0.14,-0.33,-0.06,-33.06,-9.90,31.62
20916,-8.55,-3.13,3.92,-0.26,-0.27,-0.18,-32.05,-10.71,33.79
20927,-8.55,-3.13,3.92,-0.26,-0.27,-0.18,-32.05,-10.71,33.79
20938,-8.29,-3.73,3.54,-0.35,-0.20,-0.20,-32.05,-10.71,33.79
20949,-8.60,-3.55,3.70,-0.35,-0.21,-0.15,-32.05,-10.71,33.79
20960,-8.60,-3.55,3.70,-0.35,-0.21,-0.15,-32.05,-10.71,33.79
20971,-8.00,-4.01,3.62,-0.33,-0.15,-0.19,-32.05,-10.71,33.79
20982,-8.00,-4.01,3.62,-0.33,-0.15,-0.19,-32.05,-10.71,33.79
20993,-8.69,-3.61,4.12,-0.36,-0.10,-0.16,-32.05,-10.71,33.79
21005,-8.69,-3.61,4.12,-0.36,-0.10,-0.16,-32.05,-10.71,33.79
21015,-8.31,-3.60,3.34,-0.41,-0.04,-0.21,-32.05,-10.71,33.79
21026,-8.31,-3.60,3.34,-0.41,-0.04,-0.21,-32.05,-10.71,33.79
21037,-9.10,-2.97,3.41,-0.42,-0.07,-0.17,-32.25,-13.13,33.62
21048,-9.10,-2.97,3.41,-0.42,-0.07,-0.17,-32.25,-13.13,33.62
21059,-8.25,-3.95,3.59,-0.48,-0.11,-0.32,-32.25,-13.13,33.62
21070,-8.71,-3.86,3.86,-0.55,-0.11,-0.30,-32.25,-13.13,33.62
21081,-8.71,-3.86,3.86,-0.55,-0.11,-0.30,-32.25,-13.13,33.62
21092,-8.57,-3.90,3.80,-0.65,-0.14,-0.38,-32.25,-13.13,33.62
21103,-8.57,-3.90,3.80,-0.65,-0.14,-0.38,-32.25,-13.13,33.62
21114,-8.54,-3.68,3.14,-0.76,-0.14,-0.44,-32.25,-13.13,33.62
21125,-8.54,-3.68,3.14,-0.76,-0.14,-0.44,-32.25,-13.13,33.62
21136,-8.30,-4.05,3.32,-0.80,-0.18,-0.49,-32.25,-13.13,33.62
21147,-8.30,-4.05,3.32,-0.80,-0.18,-0.49,-32.25,-13.13,33.62
21158,-8.35,-3.42,3.17,-0.80,-0.16,-0.50,-32.25,-13.13,33.62
21169,-8.46,-3.80,3.41,-0.56,-0.03,-0.60,-30.22,-14.75,30.95
21180,-8.46,-3.80,3.41,-0.56,-0.03,-0.60,-30.22,-14.75,30.95
21191,-8.23,-4.42,3.08,-0.41,0.16,-0.73,-30.22,-14.75,30.95
21202,-8.23,-4.42,3.08,-0.41,0.16,-0.73,-30.22,-14.75,30.95
21213,-8.46,-4.46,2.62,-0.39,0.35,-0.77,-30.22,-14.75,30.95
21224,-8.46,-4.46,2.62,-0.39,0.35,-0.77,-30.22,-14.75,30.95
21235,-7.76,-5.67,2.46,-0.28,0.54,-0.86,-30.22,-14.75,30.95
21246,-7.76,-5.67,2.46,-0.28,0.54,-0.86,-30.22,-14.75,30.95
21257,-8.47,-6.29,2.07,0.00,0.79,-0.89,-30.22,-14.75,30.95
21268,-8.47,-6.29,2.07,0.00,0.79,-0.89,-30.22,-14.75,30.95
21279,-8.41,-6.65,1.85,0.19,1.00,-0.95,-30.22,-14.75,30.95
21290,-9.03,-6.68,1.02,0.53,1.10,-0.93,-31.03,-18.30,30.61
21301,-9.03,-6.68,1.02,0.53,1.10,-0.93,-31.03,-18.30,30.61
21312,-8.82,-7.26,0.93,0.99,0.93,-0.75,-31.03,-18.30,30.61
21323,-8.82,-7.26,0.93,0.99,0.93,-0.75,-31.03,-18.30,30.61
21334,-8.56,-6.11,2.31,1.29,0.77,-0.45,-31.03,-18.30,30.61
21345,-8.56,-6.11,2.31,1.29,0.77,-0.45,-31.03,-18.30,30.61
21356,-8.21,-5.02,3.04,1.44,0.95,-0.42,-31.03,-18.30,30.61
21367,-8.21,-5.02,3.04,1.44,0.95,-0.42,-31.03,-18.30,30.61
21378,-8.55,-4.53,2.94,1.39,1.30,-0.59,-31.03,-18.30,30.61
21389,-8.33,-5.10,2.83,1.11,1.57,-0.91,-31.03,-18.30,30.61
21400,-8.33,-5.10,2.83,1.11,1.57,-0.91,-31.03,-18.30,30.61
21411,-6.83,-6.33,2.78,0.91,1.85,-0.97,-34.89,-17.82,28.44
21422,-6.83,-6.33,2.78,0.91,1.85,-0.97,-34.89,-17.82,28.44
21433,-7.10,-5.15,1.99,0.95,2.26,-0.68,-34.89,-17.82,28.44
21444,-7.10,-5.15,1.99,0.95,2.26,-0.68,-34.89,-17.82,28.44
21455,-6.49,-2.97,1.47,1.31,2.50,-0.64,-34.89,-17.82,28.44
21466,-6.49,-2.97,1.47,1.31,2.50,-0.64,-34.89,-17.82,28.44
21477,-8.63,-5.84,2.56,2.73,2.75,-0.87,-34.89,-17.82,28.44
21488,-8.63,-5.84,2.56,2.73,2.75,-0.87,-34.89,-17.82,28.44
21499,-6.18,-4.71,0.93,1.79,2.99,-0.84,-34.89,-17.82,28.44
21510,-7.09,-4.21,1.08,2.19,3.19,-0.79,-34.89,-17.82,28.44
21521,-7.09,-4.21,1.08,2.19,3.19,-0.79,-34.89,-17.82,28.44
21532,-7.05,-4.06,0.55,2.58,3.28,-0.89,-41.58,-15.71,21.93
21543,-7.05,-4.06,0.55,2.58,3.28,-0.89,-41.58,-15.71,21.93
21554,-7.72,-4.28,1.10,2.91,3.26,-1.24,-41.58,-15.71,21.93
21565,-7.72,-4.28,1.10,2.91,3.26,-1.24,-41.58,-15.71,21.93
21576,-7.10,-5.70,2.22,2.66,3.15,-1.72,-41.58,-15.71,21.93
21587,-7.10,-5.70,2.22,2.66,3.15,-1.72,-41.58,-15.71,21.93
21598,-6.46,-5.14,0.86,1.55,3.27,-1.79,-41.58,-15.71,21.93
21609,-6.52,-5.15,0.96,1.85,3.45,-1.75,-41.58,-15.71,21.93
21620,-6.52,-5.15,0.96,1.85,3.45,-1.75,-41.58,-15.71,21.93
21631,-6.37,-7.72,-0.10,1.19,3.49,-1.97,-41.58,-15.71,21.93
21642,-6.37,-7.72,-0.10,1.19,3.49,-1.97,-41.58,-15.71,21.93
21653,-5.92,-8.42,-3.05,-0.06,3.21,-1.75,-41.58,-15.71,21.93
21664,-5.92,-8.42,-3.05,-0.06,3.21,-1.75,-41.58,-15.71,21.93
21675,-5.92,-8.78,-2.75,0.12,2.59,-1.07,-43.41,-19.43,9.06
21686,-5.92,-8.78,-2.75,0.12,2.59,-1.07,-43.41,-19.43,9.06
21697,-6.48,-7.45,-1.65,0.08,1.99,-0.30,-43.41,-19.43,9.06
21708,-6.48,-7.45,-1.65,0.08,1.99,-0.30,-43.41,-19.43,9.06
21719,-6.58,-5.96,0.58,0.40,1.74,0.18,-43.41,-19.43,9.06
21730,-7.25,-5.30,0.68,-0.57,2.02,0.14,-43.41,-19.43,9.06
21741,-7.25,-5.30,0.68,-0.57,2.02,0.14,-43.41,-19.43,9.06
21752,-7.59,-6.05,-1.12,-1.39,2.33,-0.12,-43.41,-19.43,9.06
21763,-7.59,-6.05,-1.12,-1.39,2.33,-0.12,-43.41,-19.43,9.06
21774,-7.43,-6.27,-0.91,-2.12,2.36,-0.24,-43.41,-19.43,9.06
21785,-7.43,-6.27,-0.91,-2.12,2.36,-0.24,-43.41,-19.43,9.06
21796,-6.87,-6.12,-2.99,-2.55,2.48,-0.26,-45.64,-19.92,-4.47
21807,-6.87,-6.12,-2.99,-2.55,2.48,-0.26,-45.64,-19.92,-4.47
21818,-6.47,-7.58,-3.61,-1.99,2.47,-0.25,-45.64,-19.92,-4.47
21829,-4.98,-6.82,-5.91,-2.54,2.31,-0.19,-45.64,-19.92,-4.47
21840,-4.98,-6.82,-5.91,-2.54,2.31,-0.19,-45.64,-19.92,-4.47
21851,-5.29,-6.27,-4.32,-1.85,2.21,-0.12,-45.64,-19.92,-4.47
21862,-5.29,-6.27,-4.32,-1.85,2.21,-0.12,-45.64,-19.92,-4.47
21873,-6.20,-5.37,-4.02,-2.62,2.31,-0.29,-45.64,-19.92,-4.47
21884,-6.20,-5.37,-4.02,-2.62,2.31,-0.29,-45.64,-19.92,-4.47
21895,-6.17,-5.81,-3.46,-3.18,2.53,-0.43,-45.64,-19.92,-4.47
21906,-6.17,-5.81,-3.46,-3.18,2.53,-0.43,-45.64,-19.92,-4.47
21917,-4.15,-4.73,-4.65,-4.59,2.78,-0.29,-37.93,-15.39,-20.51
21928,-4.15,-4.73,-4.65,-4.59,2.78,-0.29,-37.93,-15.39,-20.51
21939,-3.12,-2.38,-5.86,-6.11,3.13,-0.02,-37.93,-15.39,-20.51
21951,-2.90,-2.44,-9.07,-5.98,3.55,0.19,-37.93,-15.39,-20.51
21961,-2.90,-2.44,-9.07,-5.98,3.55,0.19,-37.93,-15.39,-20.51
21972,-2.45,-3.39,-11.72,-4.33,3.51,0.52,-37.93,-15.39,-20.51
21983,-2.45,-3.39,-11.72,-4.33,3.51,0.52,-37.93,-15.39,-20.51
21994,-2.41,-0.26,-13.15,-3.47,2.99,0.70,-37.93,-15.39,-20.51
22005,-2.41,-0.26,-13.15,-3.47,2.99,0.70,-37.93,-15.39,-20.51
22016,-1.75,0.81,-15.76,-2.46,2.10,0.49,-37.93,-15.39,-20.51
22027,-1.75,0.81,-15.76,-2.46,2.10,0.49,-37.93,-15.39,-20.51
22038,-0.99,1.14,-14.41,-1.24,0.71,0.29,-37.93,-15.39,-20.51
22049,-0.99,1.14,-14.41,-1.24,0.71,0.29,-37.93,-15.39,-20.51
22060,-2.00,0.21,-9.43,-0.62,-0.39,0.13,-30.63,-2.14,-33.21
22071,-3.86,-1.40,-8.39,-0.94,-0.39,-0.04,-30.63,-2.14,-33.21
22082,-3.86,-1.40,-8.39,-0.94,-0.39,-0.04,-30.63,-2.14,-33.21
22093,-2.28,-1.01,-9.45,-1.59,0.08,-0.14,-30.63,-2.14,-33.21
22104,-2.28,-1.01,-9.45,-1.59,0.08,-0.14,-30.63,-2.14,-33.21
22115,-2.10,0.59,-9.08,-2.08,0.24,-0.12,-30.63,-2.14,-33.21
22126,-2.10,0.59,-9.08,-2.08,0.24,-0.12,-30.63,-2.14,-33.21
22137,-2.29,1.00,-9.53,-2.62,0.22,-0.11,-30.63,-2.14,-33.21
22148,-2.29,1.00,-9.53,-2.62,0.22,-0.11,-30.63,-2.14,-33.21
22159,-1.20,0.34,-11.63,-2.75,0.07,-0.02,-30.63,-2.14,-33.21
22170,-1.70,-0.10,-10.90,-1.91,0.07,-0.03,-30.63,7.55,-35.21
22181,-1.70,-0.10,-10.90,-1.91,0.07,-0.03,-30.63,7.55,-35.21
22192,-1.95,0.77,-10.04,-1.29,0.53,-0.15,-30.63,7.55,-35.21
22203,-1.95,0.77,-10.04,-1.29,0.53,-0.15,-30.63,7.55,-35.21
22214,-2.33,1.93,-11.05,-1.36,0.69,0.05,-30.63,7.55,-35.21
22225,-2.33,1.93,-11.05,-1.36,0.69,0.05,-30.63,7.55,-35.21
22236,-1.62,2.55,-11.82,-1.29,0.47,0.15,-30.63,7.55,-35.21
22248,-1.62,2.55,-11.82,-1.29,0.47,0.15,-30.63,7.55,-35.21
22258,-0.88,1.93,-10.48,-0.97,0.16,0.06,-30.63,7.55,-35.21
22269,-0.88,1.93,-10.48,-0.97,0.16,0.06,-30.63,7.55,-35.21
22280,-0.89,0.81,-9.30,-0.71,0.08,0.08,-30.63,7.55,-35.21
22291,-1.74,1.48,-8.77,-0.58,0.30,0.27,-27.18,11.59,-34.04
22302,-1.74,1.48,-8.77,-0.58,0.30,0.27,-27.18,11.59,-34.04
22313,-2.05,3.17,-8.65,-0.70,0.50,0.38,-27.18,11.59,-34.04
22324,-2.05,3.17,-8.65,-0.70,0.50,0.38,-27.18,11.59,-34.04
22335,-2.06,3.77,-8.04,-1.15,0.63,0.30,-27.18,11.59,-34.04
22346,-2.06,3.77,-8.04,-1.15,0.63,0.30,-27.18,11.59,-34.04
22357,-1.41,3.35,-9.73,-1.85,0.94,0.07,-27.18,11.59,-34.04
22368,-1.41,3.35,-9.73,-1.85,0.94,0.07,-27.18,11.59,-34.04
22379,-1.00,2.84,-9.39,-1.62,1.12,0.02,-27.18,11.59,-34.04
22390,-0.30,3.21,-10.37,-1.36,1.13,0.22,-27.18,11.59,-34.04
22401,-0.30,3.21,-10.37,-1.36,1.13,0.22,-27.18,11.59,-34.04
22412,-0.28,4.20,-10.37,-0.96,0.92,0.43,-27.18,11.59,-34.04
22423,-0.28,4.20,-10.37,-0.96,0.92,0.43,-27.18,11.59,-34.04
22434,0.31,4.84,-9.30,-0.72,0.75,0.35,-22.51,15.63,-35.55
22445,0.31,4.84,-9.30,-0.72,0.75,0.35,-22.51,15.63,-35.55
22456,-0.29,4.49,-10.43,-0.78,0.71,0.12,-22.51,15.63,-35.55
22467,-0.29,4.49,-10.43,-0.78,0.71,0.12,-22.51,15.63,-35.55
22478,-0.18,4.11,-9.73,-0.55,0.57,0.02,-22.51,15.63,-35.55
22489,-0.18,4.11,-9.73,-0.55,0.57,0.02,-22.51,15.63,-35.55
22500,0.85,3.87,-10.34,-0.43,0.48,0.05,-22.51,15.63,-35.55
22511,0.49,5.03,-11.48,-0.30,0.18,0.15,-22.51,15.63,-35.55
22522,0.49,5.03,-11.48,-0.30,0.18,0.15,-22.51,15.63,-35.55
22533,-0.23,4.38,-8.64,0.01,-0.10,0.09,-22.51,15.63,-35.55
22544,-0.23,4.38,-8.64,0.01,-0.10,0.09,-22.51,15.63,-35.55
22555,0.18,4.38,-9.29,-0.06,-0.04,0.01,-22.10,19.19,-33.54
22566,0.18,4.38,-9.29,-0.06,-0.04,0.01,-22.10,19.19,-33.54
22577,0.02,4.11,-9.28,-0.10,-0.06,-0.00,-22.10,19.19,-33.54
22588,0.02,4.11,-9.28,-0.10,-0.06,-0.00,-22.10,19.19,-33.54
22599,0.03,4.35,-9.36,-0.16,-0.03,0.04,-22.10,19.19,-33.54
22610,0.22,4.20,-9.27,-0.12,-0.04,0.07,-22.10,19.19,-33.54
22621,0.22,4.20,-9.27,-0.12,-0.04,0.07,-22.10,19.19,-33.54
22632,-0.23,3.76,-8.75,-0.35,-0.12,0.10,-22.10,19.19,-33.54
22643,-0.23,3.76,-8.75,-0.35,-0.12,0.10,-22.10,19.19,-33.54
22654,-0.44,4.43,-8.47,-1.11,0.01,0.09,-22.10,19.19,-33.54
22665,-0.44,4.43,-8.47,-1.11,0.01,0.09,-22.10,19.19,-33.54
22676,-0.61,4.56,-8.55,-1.81,0.12,0.01,-21.29,21.45,-33.54
22687,-0.61,4.56,-8.55,-1.81,0.12,0.01,-21.29,21.45,-33.54
22698,0.09,5.59,-7.98,-2.47,0.22,-0.02,-21.29,21.45,-33.54
22709,0.09,5.59,-7.98,-2.47,0.22,-0.02,-21.29,21.45,-33.54
22720,3.34,5.79,-8.05,-2.74,0.33,-0.06,-21.29,21.45,-33.54
22731,-1.51,6.68,-9.67,-2.35,0.23,-0.08,-21.29,21.45,-33.54
22742,-1.51,6.68,-9.67,-2.35,0.23,-0.08,-21.29,21.45,-33.54
22753,-0.08,6.40,-8.49,-0.43,-0.09,-0.02,-21.29,21.45,-33.54
22765,-0.08,6.40,-8.49,-0.43,-0.09,-0.02,-21.29,21.45,-33.54
22775,0.35,6.15,-8.04,0.05,0.05,0.02,-21.29,21.45,-33.54
22786,0.35,6.15,-8.04,0.05,0.05,0.02,-21.29,21.45,-33.54
22797,0.29,6.17,-7.99,-0.02,-0.08,0.10,-22.31,25.17,-28.70
22808,0.29,6.17,-7.99,-0.02,-0.08,0.10,-22.31,25.17,-28.70
22819,0.47,6.15,-8.28,-0.08,-0.17,0.15,-22.31,25.17,-28.70
22830,0.42,5.83,-8.36,0.02,-0.07,0.08,-22.31,25.17,-28.70
22841,0.42,5.83,-8.36,0.02,-0.07,0.08,-22.31,25.17,-28.70
22852,-0.58,5.81,-8.37,0.01,0.00,-0.03,-22.31,25.17,-28.70
22863,-0.58,5.81,-8.37,0.01,0.00,-0.03,-22.31,25.17,-28.70
22874,-0.18,6.71,-7.93,-0.26,-0.17,-0.25,-22.31,25.17,-28.70
22885,-0.18,6.71,-7.93,-0.26,-0.17,-0.25,-22.31,25.17,-28.70
22896,0.07,5.93,-7.77,-0.25,-0.32,-0.07,-22.31,25.17,-28.70
22907,0.07,5.93,-7.77,-0.25,-0.32,-0.07,-22.31,25.17,-28.70
22918,0.67,6.03,-7.62,-0.57,-0.63,-0.10,-22.31,25.17,-28.70
