time,ax,ay,az,gx,gy,gz,mx,my,mz
402,-0.42,6.29,-8.01,-0.01,0.00,-0.01,-32.20,21.37,-26.93
412,-0.42,6.29,-8.01,-0.01,0.00,-0.01,-32.20,21.37,-26.93
423,-0.39,6.24,-8.05,-0.01,0.00,-0.01,-32.20,21.37,-26.93
434,-0.39,6.24,-8.05,-0.01,0.00,-0.01,-32.20,21.37,-26.93
446,-0.39,6.23,-8.06,-0.01,0.00,-0.01,-32.20,21.37,-26.93
456,-0.39,6.23,-8.06,-0.01,0.00,-0.01,-32.20,21.37,-26.93
467,-0.43,6.27,-8.01,-0.01,0.00,-0.01,-32.20,21.37,-26.93
478,-0.45,6.32,-7.97,-0.01,0.00,-0.01,-32.20,21.37,-26.93
489,-0.45,6.32,-7.97,-0.01,0.00,-0.01,-32.20,21.37,-26.93
500,-0.42,6.31,-8.00,-0.01,0.00,-0.01,-31.23,19.92,-26.06
511,-0.42,6.31,-8.00,-0.01,0.00,-0.01,-31.23,19.92,-26.06
522,-0.40,6.27,-8.03,-0.01,0.00,-0.01,-31.23,19.92,-26.06
533,-0.40,6.27,-8.03,-0.01,0.00,-0.01,-31.23,19.92,-26.06
544,-0.38,6.25,-8.04,-0.01,0.00,-0.01,-31.23,19.92,-26.06
555,-0.38,6.25,-8.04,-0.01,0.00,-0.01,-31.23,19.92,-26.06
566,-0.43,6.25,-8.04,-0.01,0.00,-0.01,-31.23,19.92,-26.06
577,-0.43,6.25,-8.04,-0.01,0.00,-0.01,-31.23,19.92,-26.06
588,-0.45,6.30,-7.98,-0.01,0.00,-0.01,-31.23,19.92,-26.06
599,-0.43,6.31,-7.99,-0.01,0.00,-0.01,-31.23,19.92,-26.06
610,-0.43,6.31,-7.99,-0.01,0.00,-0.01,-31.23,19.92,-26.06
621,-0.39,6.27,-8.00,-0.01,0.00,-0.01,-31.23,19.92,-26.06
632,-0.39,6.27,-8.00,-0.01,0.00,-0.01,-31.23,19.92,-26.06
643,-0.39,6.23,-8.04,-0.01,0.00,-0.01,-30.84,19.92,-27.45
654,-0.39,6.23,-8.04,-0.01,0.00,-0.01,-30.84,19.92,-27.45
665,-0.40,6.23,-8.01,-0.01,0.00,-0.01,-30.84,19.92,-27.45
676,-0.40,6.23,-8.01,-0.01,0.00,-0.01,-30.84,19.92,-27.45
687,-0.45,6.29,-8.01,-0.01,0.00,-0.01,-30.84,19.92,-27.45
698,-0.42,6.30,-7.99,-0.01,0.00,-0.01,-30.84,19.92,-27.45
709,-0.42,6.30,-7.99,-0.01,0.00,-0.01,-30.84,19.92,-27.45
720,-0.40,6.30,-8.00,-0.01,0.00,-0.01,-30.84,19.92,-27.45
731,-0.40,6.30,-8.00,-0.01,0.00,-0.01,-30.84,19.92,-27.45
742,-0.39,6.26,-8.03,-0.01,0.00,-0.01,-30.84,19.92,-27.45
757,-0.39,6.26,-8.03,-0.01,0.00,-0.01,-30.84,19.92,-27.45
764,-0.42,6.25,-8.03,-0.01,0.00,-0.01,-31.81,20.40,-28.32
775,-0.42,6.25,-8.03,-0.01,0.00,-0.01,-31.81,20.40,-28.32
786,-0.44,6.29,-8.02,-0.01,0.00,-0.01,-31.81,20.40,-28.32
797,-0.44,6.29,-8.02,-0.01,0.00,-0.01,-31.81,20.40,-28.32
808,-0.44,6.30,-7.99,-0.01,0.00,-0.01,-31.81,20.40,-28.32
819,-0.42,6.29,-8.01,-0.01,0.00,-0.01,-31.81,20.40,-28.32
830,-0.42,6.29,-8.01,-0.01,0.00,-0.01,-31.81,20.40,-28.32
841,-0.40,6.29,-8.02,-0.01,0.00,-0.01,-31.81,20.40,-28.32
852,-0.40,6.29,-8.02,-0.01,0.00,-0.01,-31.81,20.40,-28.32
863,-0.40,6.29,-8.00,-0.01,0.00,-0.01,-31.81,20.40,-28.32
874,-0.40,6.29,-8.00,-0.01,0.00,-0.01,-31.81,20.40,-28.32
885,-0.43,6.28,-8.03,-0.01,0.00,-0.01,-31.42,21.05,-28.32
901,-0.43,6.28,-8.03,-0.01,0.00,-0.01,-31.42,21.05,-28.32
907,-0.43,6.29,-8.03,-0.01,0.00,-0.01,-31.42,21.05,-28.32
918,-0.40,6.29,-8.04,-0.01,0.00,-0.01,-31.42,21.05,-28.32
929,-0.40,6.29,-8.04,-0.01,0.00,-0.01,-31.42,21.05,-28.32
940,-0.41,6.30,-8.00,-0.01,0.00,-0.01,-31.42,21.05,-28.32
951,-0.41,6.30,-8.00,-0.01,0.00,-0.01,-31.42,21.05,-28.32
962,-0.42,6.27,-8.01,-0.01,0.00,-0.01,-31.42,21.05,-28.32
973,-0.42,6.27,-8.01,-0.01,0.00,-0.01,-31.42,21.05,-28.32
984,-0.41,6.29,-8.00,-0.01,0.00,-0.01,-31.42,21.05,-28.32
995,-0.41,6.29,-8.00,-0.01,0.00,-0.01,-31.42,21.05,-28.32
1006,-0.42,6.29,-8.02,-0.01,0.00,-0.01,-31.42,21.05,-28.32
1017,-0.42,6.29,-8.02,-0.01,0.00,-0.01,-31.42,21.05,-28.32
1028,-0.41,6.29,-8.02,-0.01,0.00,-0.01,-32.01,19.28,-27.80
1039,-0.41,6.28,-8.02,-0.01,0.00,-0.01,-32.01,19.28,-27.80
1050,-0.41,6.28,-8.02,-0.01,0.00,-0.01,-32.01,19.28,-27.80
1061,-0.41,6.27,-8.02,-0.01,0.00,-0.01,-32.01,19.28,-27.80
1072,-0.41,6.27,-8.02,-0.01,0.00,-0.01,-32.01,19.28,-27.80
1083,-0.44,6.28,-8.02,-0.01,0.00,-0.01,-32.01,19.28,-27.80
1094,-0.44,6.28,-8.02,-0.01,0.00,-0.01,-32.01,19.28,-27.80
1105,-0.43,6.29,-8.00,-0.01,0.00,-0.01,-32.01,19.28,-27.80
1116,-0.43,6.29,-8.00,-0.01,0.00,-0.01,-32.01,19.28,-27.80
1127,-0.40,6.28,-7.99,-0.01,0.00,-0.01,-32.01,19.28,-27.80
1138,-0.39,6.28,-8.02,-0.01,0.00,-0.01,-32.01,19.28,-27.80
1149,-0.39,6.28,-8.02,-0.01,0.00,-0.01,-31.81,20.40,-27.98
1161,-0.40,6.27,-8.00,-0.01,0.00,-0.01,-31.81,20.40,-27.98
1171,-0.40,6.27,-8.00,-0.01,0.00,-0.01,-31.81,20.40,-27.98
1182,-0.44,6.30,-8.04,-0.01,0.00,-0.01,-31.81,20.40,-27.98
1193,-0.44,6.30,-8.04,-0.01,0.00,-0.01,-31.81,20.40,-27.98
1204,-0.46,6.28,-8.01,-0.01,0.00,-0.01,-31.81,20.40,-27.98
1215,-0.46,6.28,-8.01,-0.01,0.00,-0.01,-31.81,20.40,-27.98
1226,-0.43,6.28,-7.99,-0.01,0.00,-0.01,-31.81,20.40,-27.98
1237,-0.43,6.28,-7.99,-0.01,0.00,-0.01,-31.81,20.40,-27.98
1248,-0.39,6.25,-8.03,-0.01,0.00,-0.01,-31.81,20.40,-27.98
1259,-0.38,6.25,-8.04,-0.01,0.00,-0.01,-32.60,19.76,-27.28
1270,-0.38,6.25,-8.04,-0.01,0.00,-0.01,-32.60,19.76,-27.28
1281,-0.43,6.30,-8.03,-0.01,0.00,-0.01,-32.60,19.76,-27.28
1292,-0.43,6.30,-8.03,-0.01,0.00,-0.01,-32.60,19.76,-27.28
1303,-0.48,6.32,-7.99,-0.01,0.00,-0.01,-32.60,19.76,-27.28
1314,-0.48,6.32,-7.99,-0.01,0.00,-0.01,-32.60,19.76,-27.28
1325,-0.42,6.30,-7.99,-0.01,0.00,-0.01,-32.60,19.76,-27.28
1336,-0.42,6.30,-7.99,-0.01,0.00,-0.01,-32.60,19.76,-27.28
1347,-0.35,6.25,-8.03,-0.01,0.00,-0.01,-32.60,19.76,-27.28
1358,-0.35,6.25,-8.03,-0.01,0.00,-0.01,-32.60,19.76,-27.28
1369,-0.36,6.23,-8.06,-0.01,0.00,-0.01,-32.60,19.76,-27.28
1380,-0.45,6.26,-8.01,-0.01,0.00,-0.01,-32.60,19.76,-27.28
1392,-0.45,6.26,-8.01,-0.01,0.00,-0.01,-32.60,19.76,-27.28
1402,-0.49,6.31,-7.99,-0.01,0.00,-0.01,-31.62,20.24,-28.15
1413,-0.49,6.31,-7.99,-0.01,0.00,-0.01,-31.62,20.24,-28.15
1424,-0.46,6.31,-7.99,-0.01,0.00,-0.01,-31.62,20.24,-28.15
1435,-0.46,6.31,-7.99,-0.01,0.00,-0.01,-31.62,20.24,-28.15
1446,-0.39,6.26,-8.03,-0.01,0.00,-0.01,-31.62,20.24,-28.15
1457,-0.39,6.26,-8.03,-0.01,0.00,-0.01,-31.62,20.24,-28.15
1468,-0.35,6.23,-8.07,-0.01,0.00,-0.01,-31.62,20.24,-28.15
1479,-0.36,6.27,-8.02,-0.01,0.00,-0.01,-31.62,20.24,-28.15
1490,-0.36,6.27,-8.02,-0.01,0.00,-0.01,-31.62,20.24,-28.15
1501,-0.41,6.32,-7.97,-0.01,0.00,-0.01,-31.62,20.24,-28.15
1512,-0.41,6.32,-7.97,-0.01,0.00,-0.01,-31.62,20.24,-28.15
1523,-0.43,6.31,-8.01,-0.01,0.00,-0.01,-32.01,21.53,-27.80
1534,-0.43,6.31,-8.01,-0.01,0.00,-0.01,-32.01,21.53,-27.80
1545,-0.45,6.26,-8.03,-0.01,0.00,-0.01,-32.01,21.53,-27.80
1556,-0.45,6.26,-8.03,-0.01,0.00,-0.01,-32.01,21.53,-27.80
1567,-0.43,6.24,-8.04,-0.01,0.00,-0.01,-32.01,21.53,-27.80
1578,-0.43,6.24,-8.04,-0.01,0.00,-0.01,-32.01,21.53,-27.80
1589,-0.41,6.27,-8.02,-0.01,0.00,-0.01,-32.01,21.53,-27.80
1600,-0.41,6.32,-8.00,-0.01,0.00,-0.01,-32.01,21.53,-27.80
1611,-0.41,6.32,-8.00,-0.01,0.00,-0.01,-32.01,21.53,-27.80
1622,-0.42,6.32,-7.99,-0.01,0.00,-0.01,-32.01,21.53,-27.80
1633,-0.42,6.32,-7.99,-0.01,0.00,-0.01,-32.01,21.53,-27.80
1644,-0.44,6.26,-8.03,-0.01,0.00,-0.01,-33.38,20.73,-27.98
1655,-0.44,6.26,-8.03,-0.01,0.00,-0.01,-33.38,20.73,-27.98
1666,-0.45,6.25,-8.07,-0.01,0.00,-0.01,-33.38,20.73,-27.98
1677,-0.45,6.25,-8.07,-0.01,0.00,-0.01,-33.38,20.73,-27.98
1688,-0.41,6.25,-8.03,-0.01,0.00,-0.01,-33.38,20.73,-27.98
1699,-0.40,6.29,-7.99,-0.01,0.00,-0.01,-33.38,20.73,-27.98
1710,-0.40,6.29,-7.99,-0.01,0.00,-0.01,-33.38,20.73,-27.98
1721,-0.41,6.31,-7.99,-0.01,0.00,-0.01,-33.38,20.73,-27.98
1732,-0.41,6.31,-7.99,-0.01,0.00,-0.01,-33.38,20.73,-27.98
1743,-0.41,6.27,-8.02,-0.01,0.00,-0.01,-33.38,20.73,-27.98
1754,-0.41,6.27,-8.02,-0.01,0.00,-0.01,-33.38,20.73,-27.98
1765,-0.42,6.25,-8.07,-0.01,0.00,-0.01,-33.38,20.73,-27.98
1776,-0.42,6.25,-8.07,-0.01,0.00,-0.01,-33.38,20.73,-27.98
1787,-0.42,6.27,-8.05,-0.01,0.00,-0.01,-32.60,21.37,-27.63
1798,-0.42,6.27,-8.05,-0.01,0.00,-0.01,-32.60,21.37,-27.63
1809,-0.41,6.28,-8.01,-0.01,0.00,-0.01,-32.60,21.37,-27.63
1820,-0.38,6.30,-8.01,-0.01,0.00,-0.01,-32.60,21.37,-27.63
1831,-0.38,6.30,-8.01,-0.01,0.00,-0.01,-32.60,21.37,-27.63
1842,-0.40,6.30,-8.00,-0.01,0.00,-0.01,-32.60,21.37,-27.63
1853,-0.40,6.30,-8.00,-0.01,0.00,-0.01,-32.60,21.37,-27.63
1864,-0.41,6.25,-8.03,-0.01,0.00,-0.01,-32.60,21.37,-27.63
1875,-0.41,6.25,-8.03,-0.01,0.00,-0.01,-32.60,21.37,-27.63
1887,-0.42,6.24,-8.01,-0.01,0.00,-0.01,-32.60,21.37,-27.63
1897,-0.42,6.24,-8.01,-0.01,0.00,-0.01,-32.60,21.37,-27.63
1908,-0.42,6.27,-8.03,-0.01,0.00,-0.01,-32.79,20.56,-28.50
1919,-0.41,6.30,-8.02,-0.01,0.00,-0.01,-32.79,20.56,-28.50
1930,-0.41,6.30,-8.02,-0.01,0.00,-0.01,-32.79,20.56,-28.50
1941,-0.41,6.31,-8.01,-0.01,0.00,-0.01,-32.79,20.56,-28.50
1952,-0.41,6.31,-8.01,-0.01,0.00,-0.01,-32.79,20.56,-28.50
1963,-0.42,6.28,-8.00,-0.01,0.00,-0.01,-32.79,20.56,-28.50
1974,-0.42,6.28,-8.00,-0.01,0.00,-0.01,-32.79,20.56,-28.50
1985,-0.42,6.25,-8.04,-0.01,0.00,-0.01,-32.79,20.56,-28.50
1996,-0.42,6.25,-8.04,-0.01,0.00,-0.01,-32.79,20.56,-28.50
2007,-0.42,6.25,-8.03,-0.01,0.00,-0.01,-32.79,20.56,-28.50
2018,-0.42,6.25,-8.03,-0.01,0.00,-0.01,-32.79,20.56,-28.50
2029,-0.41,6.29,-8.02,-0.01,0.00,-0.01,-32.01,19.92,-29.19
2040,-0.42,6.31,-7.99,-0.01,0.00,-0.01,-32.01,19.92,-29.19
2051,-0.42,6.31,-7.99,-0.01,0.00,-0.01,-32.01,19.92,-29.19
2062,-0.42,6.29,-8.00,-0.01,0.00,-0.01,-32.01,19.92,-29.19
2073,-0.42,6.29,-8.00,-0.01,0.00,-0.01,-32.01,19.92,-29.19
2084,-0.43,6.26,-8.02,-0.01,0.00,-0.01,-32.01,19.92,-29.19
2095,-0.43,6.26,-8.02,-0.01,0.00,-0.01,-32.01,19.92,-29.19
2106,-0.43,6.25,-8.04,-0.01,0.00,-0.01,-32.01,19.92,-29.19
2118,-0.43,6.25,-8.04,-0.01,0.00,-0.01,-32.01,19.92,-29.19
2128,-0.43,6.29,-8.00,-0.01,0.00,-0.01,-32.01,19.92,-29.19
2139,-0.41,6.29,-8.01,-0.01,0.00,-0.01,-32.01,19.92,-29.19
2150,-0.41,6.29,-8.01,-0.01,0.00,-0.01,-33.57,21.21,-28.15
2161,-0.41,6.30,-8.01,-0.01,0.00,-0.01,-33.57,21.21,-28.15
2172,-0.41,6.30,-8.01,-0.01,0.00,-0.01,-33.57,21.21,-28.15
2183,-0.41,6.28,-8.04,-0.01,0.00,-0.01,-33.57,21.21,-28.15
2194,-0.41,6.28,-8.04,-0.01,0.00,-0.01,-33.57,21.21,-28.15
2205,-0.43,6.27,-8.04,-0.01,0.00,-0.01,-33.57,21.21,-28.15
2216,-0.43,6.27,-8.04,-0.01,0.00,-0.01,-33.57,21.21,-28.15
2227,-0.44,6.28,-8.02,-0.01,0.00,-0.01,-33.57,21.21,-28.15
2238,-0.44,6.28,-8.02,-0.01,0.00,-0.01,-33.57,21.21,-28.15
2249,-0.43,6.28,-8.02,-0.01,0.00,-0.01,-33.57,21.21,-28.15
2260,-0.41,6.30,-7.99,-0.01,0.00,-0.01,-33.57,21.21,-28.15
2271,-0.41,6.30,-7.99,-0.01,0.00,-0.01,-33.57,21.21,-28.15
2282,-0.42,6.28,-8.02,-0.01,0.00,-0.01,-32.60,19.76,-27.28
2293,-0.42,6.28,-8.02,-0.01,0.00,-0.01,-32.60,19.76,-27.28
2304,-0.42,6.28,-8.02,-0.01,0.00,-0.01,-32.60,19.76,-27.28
2315,-0.42,6.28,-8.02,-0.01,0.00,-0.01,-32.60,19.76,-27.28
2326,-0.42,6.28,-8.03,-0.01,0.00,-0.01,-32.60,19.76,-27.28
2337,-0.42,6.28,-8.03,-0.01,0.00,-0.01,-32.60,19.76,-27.28
2348,-0.44,6.27,-8.02,-0.01,0.00,-0.01,-32.60,19.76,-27.28
2359,-0.44,6.27,-8.02,-0.01,0.00,-0.01,-32.60,19.76,-27.28
2370,-0.42,6.30,-7.99,-0.01,0.00,-0.01,-32.60,19.76,-27.28
2381,-0.43,6.29,-8.02,-0.01,0.00,-0.01,-32.60,19.76,-27.28
2392,-0.43,6.29,-8.02,-0.01,0.00,-0.01,-32.60,19.76,-27.28
2403,-0.42,6.29,-8.03,-0.01,0.00,-0.01,-32.20,20.73,-27.98
2414,-0.42,6.29,-8.03,-0.01,0.00,-0.01,-32.20,20.73,-27.98
2425,-0.43,6.26,-8.03,-0.01,0.00,-0.01,-32.20,20.73,-27.98
2436,-0.43,6.26,-8.03,-0.01,0.00,-0.01,-32.20,20.73,-27.98
2447,-0.42,6.28,-8.05,-0.01,0.00,-0.01,-32.20,20.73,-27.98
2458,-0.42,6.28,-8.05,-0.01,0.00,-0.01,-32.20,20.73,-27.98
2469,-0.43,6.28,-8.02,-0.01,0.00,-0.01,-32.20,20.73,-27.98
2480,-0.42,6.29,-7.99,-0.01,0.00,-0.01,-32.20,20.73,-27.98
2491,-0.42,6.29,-7.99,-0.01,0.00,-0.01,-32.20,20.73,-27.98
2502,-0.40,6.30,-8.00,-0.01,0.00,-0.01,-32.20,20.73,-27.98
2513,-0.40,6.30,-8.00,-0.01,0.00,-0.01,-32.20,20.73,-27.98
2524,-0.41,6.28,-8.01,-0.01,0.00,-0.01,-32.79,19.92,-27.45
2535,-0.41,6.28,-8.01,-0.01,0.00,-0.01,-32.79,19.92,-27.45
2547,-0.43,6.28,-8.02,-0.01,0.00,-0.01,-32.79,19.92,-27.45
2557,-0.43,6.28,-8.02,-0.01,0.00,-0.01,-32.79,19.92,-27.45
2568,-0.41,6.28,-8.02,-0.01,0.00,-0.01,-32.79,19.92,-27.45
2579,-0.41,6.28,-8.02,-0.01,0.00,-0.01,-32.79,19.92,-27.45
2590,-0.40,6.30,-8.03,-0.01,0.00,-0.01,-32.79,19.92,-27.45
2601,-0.41,6.29,-8.01,-0.01,0.00,-0.01,-32.79,19.92,-27.45
2612,-0.41,6.29,-8.01,-0.01,0.00,-0.01,-32.79,19.92,-27.45
2623,-0.42,6.28,-8.01,-0.01,0.00,-0.01,-32.79,19.92,-27.45
2634,-0.42,6.28,-8.01,-0.01,0.00,-0.01,-32.79,19.92,-27.45
2645,-0.43,6.28,-8.02,-0.01,0.00,-0.01,-32.79,19.92,-27.45
2656,-0.43,6.28,-8.02,-0.01,0.00,-0.01,-32.79,19.92,-27.45
2667,-0.43,6.28,-8.03,-0.01,0.00,-0.01,-32.79,20.56,-27.11
2678,-0.43,6.28,-8.03,-0.01,0.00,-0.01,-32.79,20.56,-27.11
2689,-0.43,6.28,-8.00,-0.01,0.00,-0.01,-32.79,20.56,-27.11
2700,-0.41,6.28,-8.00,-0.01,0.00,-0.01,-32.79,20.56,-27.11
2711,-0.41,6.28,-8.00,-0.01,0.00,-0.01,-32.79,20.56,-27.11
2722,-0.41,6.27,-8.01,-0.01,0.00,-0.01,-32.79,20.56,-27.11
2733,-0.41,6.27,-8.01,-0.01,0.00,-0.01,-32.79,20.56,-27.11
2744,-0.43,6.27,-8.03,-0.01,0.00,-0.01,-32.79,20.56,-27.11
2755,-0.43,6.27,-8.03,-0.01,0.00,-0.01,-32.79,20.56,-27.11
2766,-0.41,6.28,-8.00,-0.01,0.00,-0.01,-32.79,20.56,-27.11
2777,-0.41,6.28,-8.00,-0.01,0.00,-0.01,-32.79,20.56,-27.11
2788,-0.43,6.28,-8.02,-0.01,0.00,-0.01,-32.79,19.28,-27.80
2799,-0.43,6.28,-8.02,-0.01,0.00,-0.01,-32.79,19.28,-27.80
2810,-0.42,6.28,-8.00,-0.01,0.00,-0.01,-32.79,19.28,-27.80
2821,-0.43,6.29,-8.02,-0.01,0.00,-0.01,-32.79,19.28,-27.80
2832,-0.43,6.29,-8.02,-0.01,0.00,-0.01,-32.79,19.28,-27.80
2843,-0.43,6.29,-8.02,-0.01,0.00,-0.01,-32.79,19.28,-27.80
2854,-0.43,6.29,-8.02,-0.01,0.00,-0.01,-32.79,19.28,-27.80
2865,-0.43,6.27,-8.04,-0.01,0.00,-0.01,-32.79,19.28,-27.80
2876,-0.43,6.27,-8.04,-0.01,0.00,-0.01,-32.79,19.28,-27.80
2887,-0.42,6.28,-8.02,-0.01,0.00,-0.01,-32.79,19.28,-27.80
2898,-0.42,6.28,-8.02,-0.01,0.00,-0.01,-32.79,19.28,-27.80
2909,-0.41,6.27,-8.03,-0.01,0.00,-0.01,-33.38,19.44,-26.93
2920,-0.41,6.29,-8.01,-0.01,0.00,-0.01,-33.38,19.44,-26.93
2931,-0.41,6.29,-8.01,-0.01,0.00,-0.01,-33.38,19.44,-26.93
2942,-0.43,6.27,-8.03,-0.01,0.00,-0.01,-33.38,19.44,-26.93
2953,-0.43,6.27,-8.03,-0.01,0.00,-0.01,-33.38,19.44,-26.93
2964,-0.42,6.27,-8.03,-0.01,0.00,-0.01,-33.38,19.44,-26.93
2975,-0.42,6.27,-8.03,-0.01,0.00,-0.01,-33.38,19.44,-26.93
2986,-0.40,6.25,-8.02,-0.01,0.00,-0.01,-33.38,19.44,-26.93
2997,-0.40,6.25,-8.02,-0.01,0.00,-0.01,-33.38,19.44,-26.93
3008,-0.40,6.27,-8.02,-0.01,0.00,-0.01,-33.38,19.44,-26.93
3019,-0.40,6.27,-8.02,-0.01,0.00,-0.01,-33.38,19.44,-26.93
3030,-0.42,6.29,-8.03,-0.01,0.00,-0.01,-33.38,19.44,-26.93
3041,-0.43,6.30,-8.04,-0.01,0.00,-0.01,-32.79,20.89,-27.45
3052,-0.43,6.30,-8.04,-0.01,0.00,-0.01,-32.79,20.89,-27.45
3063,-0.43,6.27,-8.05,-0.01,0.00,-0.01,-32.79,20.89,-27.45
3074,-0.43,6.27,-8.05,-0.01,0.00,-0.01,-32.79,20.89,-27.45
3085,-0.42,6.28,-8.03,-0.01,0.00,-0.01,-32.79,20.89,-27.45
3096,-0.42,6.28,-8.03,-0.01,0.00,-0.01,-32.79,20.89,-27.45
3107,-0.42,6.28,-8.01,-0.01,0.00,-0.01,-32.79,20.89,-27.45
3118,-0.42,6.28,-8.01,-0.01,0.00,-0.01,-32.79,20.89,-27.45
3129,-0.41,6.28,-8.02,-0.01,0.00,-0.01,-32.79,20.89,-27.45
3140,-0.43,6.29,-8.02,-0.01,0.00,-0.01,-32.79,20.89,-27.45
3151,-0.43,6.29,-8.02,-0.01,0.00,-0.01,-32.79,20.89,-27.45
3162,-0.43,6.29,-8.00,-0.01,0.00,-0.01,-32.60,20.40,-26.24
3173,-0.43,6.29,-8.00,-0.01,0.00,-0.01,-32.60,20.40,-26.24
3184,-0.42,6.27,-8.04,-0.01,0.00,-0.01,-32.60,20.40,-26.24
3195,-0.42,6.27,-8.04,-0.01,0.00,-0.01,-32.60,20.40,-26.24
3206,-0.40,6.26,-8.03,-0.01,0.00,-0.01,-32.60,20.40,-26.24
3217,-0.40,6.26,-8.03,-0.01,0.00,-0.01,-32.60,20.40,-26.24
3228,-0.41,6.27,-7.99,-0.01,0.00,-0.01,-32.60,20.40,-26.24
3239,-0.41,6.27,-7.99,-0.01,0.00,-0.01,-32.60,20.40,-26.24
3251,-0.41,6.27,-8.02,-0.01,0.00,-0.01,-32.60,20.40,-26.24
3261,-0.42,6.29,-8.01,-0.01,0.00,-0.01,-32.60,20.40,-26.24
3272,-0.42,6.29,-8.01,-0.01,0.00,-0.01,-32.60,20.40,-26.24
3283,-0.42,6.26,-8.02,-0.01,0.00,-0.01,-34.55,20.40,-26.59
3294,-0.42,6.26,-8.02,-0.01,0.00,-0.01,-34.55,20.40,-26.59
3305,-0.41,6.27,-8.03,-0.01,0.00,-0.01,-34.55,20.40,-26.59
3316,-0.41,6.27,-8.03,-0.01,0.00,-0.01,-34.55,20.40,-26.59
3327,-0.42,6.26,-8.03,-0.01,0.00,-0.01,-34.55,20.40,-26.59
3338,-0.42,6.26,-8.03,-0.01,0.00,-0.01,-34.55,20.40,-26.59
3349,-0.43,6.26,-8.03,-0.01,0.00,-0.01,-34.55,20.40,-26.59
3360,-0.43,6.26,-8.03,-0.01,0.00,-0.01,-34.55,20.40,-26.59
3371,-0.41,6.28,-8.01,-0.01,0.00,-0.01,-34.55,20.40,-26.59
3382,-0.42,6.28,-8.03,-0.01,0.00,-0.01,-34.55,20.40,-26.59
3393,-0.42,6.28,-8.03,-0.01,0.00,-0.01,-34.55,20.40,-26.59
3404,-0.42,6.30,-8.01,-0.01,0.00,-0.01,-34.55,20.40,-26.59
3415,-0.42,6.30,-8.01,-0.01,0.00,-0.01,-34.55,20.40,-26.59
3426,-0.41,6.29,-8.03,-0.01,0.00,-0.01,-34.55,20.40,-26.59
3437,-0.41,6.29,-8.03,-0.01,0.00,-0.01,-34.55,20.40,-26.59
3448,-0.44,6.28,-8.01,-0.01,0.00,-0.01,-34.55,20.40,-26.59
3459,-0.44,6.28,-8.01,-0.01,0.00,-0.01,-34.55,20.40,-26.59
3470,-0.42,6.27,-8.03,-0.01,0.00,-0.01,-34.55,20.40,-26.59
3481,-0.40,6.29,-8.04,-0.01,0.00,-0.01,-34.55,20.40,-26.59
3492,-0.40,6.29,-8.04,-0.01,0.00,-0.01,-34.55,20.40,-26.59
3504,-0.41,6.28,-8.00,-0.01,0.00,-0.01,-34.55,20.40,-26.59
3514,-0.41,6.28,-8.00,-0.01,0.00,-0.01,-34.55,20.40,-26.59
3525,-0.41,6.26,-8.00,-0.01,0.00,-0.01,-34.55,20.40,-26.59
3536,-0.41,6.26,-8.00,-0.01,0.00,-0.01,-34.55,20.40,-26.59
3547,-0.43,6.26,-8.04,-0.01,0.00,-0.01,-32.60,18.47,-28.32
3558,-0.43,6.26,-8.04,-0.01,0.00,-0.01,-32.60,18.47,-28.32
3569,-0.45,6.29,-8.02,-0.01,0.00,-0.01,-32.60,18.47,-28.32
3580,-0.45,6.29,-8.02,-0.01,0.00,-0.01,-32.60,18.47,-28.32
3591,-0.43,6.28,-8.03,-0.01,0.00,-0.01,-32.60,18.47,-28.32
3602,-0.44,6.29,-8.00,-0.01,0.00,-0.01,-32.60,18.47,-28.32
3613,-0.44,6.29,-8.00,-0.01,0.00,-0.01,-32.60,18.47,-28.32
3624,-0.41,6.29,-8.00,-0.01,0.00,-0.01,-32.60,18.47,-28.32
3635,-0.41,6.29,-8.00,-0.01,0.00,-0.01,-32.60,18.47,-28.32
3646,-0.41,6.29,-8.00,-0.01,0.00,-0.01,-32.60,18.47,-28.32
3657,-0.41,6.29,-8.00,-0.01,0.00,-0.01,-32.60,18.47,-28.32
3668,-0.42,6.26,-8.06,-0.01,0.00,-0.01,-32.60,20.08,-27.28
3679,-0.42,6.26,-8.06,-0.01,0.00,-0.01,-32.60,20.08,-27.28
3690,-0.43,6.26,-8.04,-0.01,0.00,-0.01,-32.60,20.08,-27.28
3701,-0.41,6.26,-8.03,-0.01,0.00,-0.01,-32.60,20.08,-27.28
3712,-0.41,6.26,-8.03,-0.01,0.00,-0.01,-32.60,20.08,-27.28
3723,-0.40,6.27,-8.02,-0.01,0.00,-0.01,-32.60,20.08,-27.28
3734,-0.40,6.27,-8.02,-0.01,0.00,-0.01,-32.60,20.08,-27.28
3745,-0.40,6.29,-7.99,-0.01,0.00,-0.01,-32.60,20.08,-27.28
3756,-0.40,6.29,-7.99,-0.01,0.00,-0.01,-32.60,20.08,-27.28
3767,-0.43,6.30,-8.03,-0.01,0.00,-0.01,-32.60,20.08,-27.28
3778,-0.43,6.30,-8.03,-0.01,0.00,-0.01,-32.60,20.08,-27.28
3789,-0.43,6.27,-8.05,-0.01,0.00,-0.01,-32.40,21.53,-28.15
3800,-0.43,6.27,-8.05,-0.01,0.00,-0.01,-32.40,21.53,-28.15
3811,-0.42,6.26,-8.03,-0.01,0.00,-0.01,-32.40,21.53,-28.15
3822,-0.41,6.28,-8.00,-0.01,0.00,-0.01,-32.40,21.53,-28.15
3833,-0.41,6.28,-8.00,-0.01,0.00,-0.01,-32.40,21.53,-28.15
3844,-0.43,6.29,-8.01,-0.01,0.00,-0.01,-32.40,21.53,-28.15
3855,-0.43,6.29,-8.01,-0.01,0.00,-0.01,-32.40,21.53,-28.15
3866,-0.43,6.29,-8.00,-0.01,0.00,-0.01,-32.40,21.53,-28.15
3877,-0.43,6.29,-8.00,-0.01,0.00,-0.01,-32.40,21.53,-28.15
3888,-0.41,6.27,-7.99,-0.01,0.00,-0.01,-32.40,21.53,-28.15
3899,-0.41,6.27,-7.99,-0.01,0.00,-0.01,-32.40,21.53,-28.15
3910,-0.43,6.26,-8.01,-0.01,0.00,-0.01,-32.40,21.53,-28.15
3921,-0.43,6.26,-8.02,-0.01,0.00,-0.01,-31.42,20.08,-27.98
3932,-0.43,6.26,-8.02,-0.01,0.00,-0.01,-31.42,20.08,-27.98
3943,-0.42,6.30,-8.01,-0.01,0.00,-0.01,-31.42,20.08,-27.98
3954,-0.42,6.30,-8.01,-0.01,0.00,-0.01,-31.42,20.08,-27.98
3965,-0.43,6.29,-8.01,-0.01,0.00,-0.01,-31.42,20.08,-27.98
3977,-0.43,6.29,-8.01,-0.01,0.00,-0.01,-31.42,20.08,-27.98
3987,-0.42,6.29,-7.99,-0.01,0.00,-0.01,-31.42,20.08,-27.98
3998,-0.42,6.29,-7.99,-0.01,0.00,-0.01,-31.42,20.08,-27.98
4009,-0.43,6.27,-8.05,-0.01,0.00,-0.01,-31.42,20.08,-27.98
4020,-0.43,6.27,-8.05,-0.01,0.00,-0.01,-31.42,20.08,-27.98
4031,-0.42,6.27,-8.04,-0.01,0.00,-0.01,-31.42,20.08,-27.98
4042,-0.40,6.27,-8.04,-0.01,0.00,-0.01,-32.79,20.24,-28.15
4053,-0.40,6.27,-8.04,-0.01,0.00,-0.01,-32.79,20.24,-28.15
4064,-0.40,6.28,-8.02,-0.01,0.00,-0.01,-32.79,20.24,-28.15
4075,-0.40,6.28,-8.02,-0.01,0.00,-0.01,-32.79,20.24,-28.15
4086,-0.41,6.31,-7.98,-0.01,0.00,-0.01,-32.79,20.24,-28.15
4097,-0.41,6.31,-7.98,-0.01,0.00,-0.01,-32.79,20.24,-28.15
4108,-0.43,6.29,-7.98,-0.01,0.00,-0.01,-32.79,20.24,-28.15
4119,-0.43,6.29,-7.98,-0.01,0.00,-0.01,-32.79,20.24,-28.15
4130,-0.44,6.27,-8.02,-0.01,0.00,-0.01,-32.79,20.24,-28.15
4141,-0.42,6.25,-8.03,-0.01,0.00,-0.01,-32.79,20.24,-28.15
4152,-0.42,6.25,-8.03,-0.01,0.00,-0.01,-32.79,20.24,-28.15
4163,-0.42,6.29,-8.01,-0.01,0.00,-0.01,-31.42,20.08,-29.02
4174,-0.42,6.29,-8.01,-0.01,0.00,-0.01,-31.42,20.08,-29.02
4185,-0.42,6.30,-8.00,-0.01,0.00,-0.01,-31.42,20.08,-29.02
4196,-0.42,6.30,-8.00,-0.01,0.00,-0.01,-31.42,20.08,-29.02
4208,-0.41,6.30,-8.01,-0.01,0.00,-0.01,-31.42,20.08,-29.02
4218,-0.41,6.30,-8.01,-0.01,0.00,-0.01,-31.42,20.08,-29.02
4229,-0.41,6.27,-8.03,-0.01,0.00,-0.01,-31.42,20.08,-29.02
4240,-0.41,6.27,-8.03,-0.01,0.00,-0.01,-31.42,20.08,-29.02
4251,-0.43,6.25,-8.05,-0.01,0.00,-0.01,-31.42,20.08,-29.02
4262,-0.43,6.28,-8.04,-0.01,0.00,-0.01,-31.42,20.08,-29.02
4273,-0.43,6.28,-8.04,-0.01,0.00,-0.01,-31.42,20.08,-29.02
4284,-0.43,6.29,-8.00,-0.01,0.00,-0.01,-31.42,20.08,-29.02
4295,-0.43,6.29,-8.00,-0.01,0.00,-0.01,-31.42,20.08,-29.02
4306,-0.43,6.32,-8.00,-0.01,0.00,-0.01,-32.40,19.92,-28.15
4317,-0.43,6.32,-8.00,-0.01,0.00,-0.01,-32.40,19.92,-28.15
4328,-0.42,6.29,-8.02,-0.01,0.00,-0.01,-32.40,19.92,-28.15
4339,-0.42,6.29,-8.02,-0.01,0.00,-0.01,-32.40,19.92,-28.15
4350,-0.41,6.27,-8.01,-0.01,0.00,-0.01,-32.40,19.92,-28.15
4361,-0.41,6.27,-8.01,-0.01,0.00,-0.01,-32.40,19.92,-28.15
4372,-0.42,6.26,-8.04,-0.01,0.00,-0.01,-32.40,19.92,-28.15
4383,-0.43,6.28,-8.02,-0.01,0.00,-0.01,-32.40,19.92,-28.15
4394,-0.43,6.28,-8.02,-0.01,0.00,-0.01,-32.40,19.92,-28.15
4405,-0.41,6.30,-8.00,-0.01,0.00,-0.01,-32.40,19.92,-28.15
4416,-0.41,6.30,-8.00,-0.01,0.00,-0.01,-32.40,19.92,-28.15
4427,-0.41,6.28,-8.03,-0.01,0.00,-0.01,-33.38,20.73,-28.67
4438,-0.41,6.28,-8.03,-0.01,0.00,-0.01,-33.38,20.73,-28.67
4449,-0.40,6.29,-8.03,-0.01,0.00,-0.01,-33.38,20.73,-28.67
4460,-0.40,6.29,-8.03,-0.01,0.00,-0.01,-33.38,20.73,-28.67
4471,-0.42,6.27,-8.00,-0.01,0.00,-0.01,-33.38,20.73,-28.67
4482,-0.42,6.27,-8.02,-0.01,0.00,-0.01,-33.38,20.73,-28.67
4493,-0.42,6.27,-8.02,-0.01,0.00,-0.01,-33.38,20.73,-28.67
4504,-0.43,6.28,-7.99,-0.01,0.00,-0.01,-33.38,20.73,-28.67
4515,-0.43,6.28,-7.99,-0.01,0.00,-0.01,-33.38,20.73,-28.67
4526,-0.43,6.30,-8.00,-0.01,0.00,-0.01,-33.38,20.73,-28.67
4537,-0.43,6.30,-8.00,-0.01,0.00,-0.01,-33.38,20.73,-28.67
4548,-0.43,6.29,-8.00,-0.01,0.00,-0.01,-31.62,19.60,-28.15
4559,-0.43,6.29,-8.00,-0.01,0.00,-0.01,-31.62,19.60,-28.15
4570,-0.43,6.28,-8.01,-0.01,0.00,-0.01,-31.62,19.60,-28.15
4581,-0.43,6.28,-8.01,-0.01,0.00,-0.01,-31.62,19.60,-28.15
4592,-0.40,6.27,-8.04,-0.01,0.00,-0.01,-31.62,19.60,-28.15
4603,-0.41,6.26,-8.01,-0.01,0.00,-0.01,-31.62,19.60,-28.15
4614,-0.41,6.26,-8.01,-0.01,0.00,-0.01,-31.62,19.60,-28.15
4625,-0.42,6.28,-8.00,-0.01,0.00,-0.01,-31.62,19.60,-28.15
4636,-0.42,6.28,-8.00,-0.01,0.00,-0.01,-31.62,19.60,-28.15
4647,-0.42,6.30,-8.02,-0.01,0.00,-0.01,-31.62,19.60,-28.15
4658,-0.42,6.30,-8.02,-0.01,0.00,-0.01,-31.62,19.60,-28.15
4669,-0.43,6.28,-8.03,-0.01,0.00,-0.01,-31.62,19.60,-28.15
4681,-0.43,6.28,-8.03,-0.01,0.00,-0.01,-31.62,19.60,-28.15
4691,-0.41,6.28,-8.01,-0.01,0.00,-0.01,-32.01,20.24,-28.15
4702,-0.43,6.27,-8.00,-0.01,0.00,-0.01,-32.01,20.24,-28.15
4713,-0.43,6.27,-8.00,-0.01,0.00,-0.01,-32.01,20.24,-28.15
4724,-0.40,6.28,-8.01,-0.01,0.00,-0.01,-32.01,20.24,-28.15
4735,-0.40,6.28,-8.01,-0.01,0.00,-0.01,-32.01,20.24,-28.15
4746,-0.41,6.30,-8.01,-0.01,0.00,-0.01,-32.01,20.24,-28.15
4757,-0.41,6.30,-8.01,-0.01,0.00,-0.01,-32.01,20.24,-28.15
4768,-0.42,6.29,-8.00,-0.01,0.00,-0.01,-32.01,20.24,-28.15
4779,-0.42,6.29,-8.00,-0.01,0.00,-0.01,-32.01,20.24,-28.15
4790,-0.42,6.28,-8.01,-0.01,0.00,-0.01,-32.01,20.24,-28.15
4801,-0.42,6.28,-8.01,-0.01,0.00,-0.01,-32.01,20.24,-28.15
4812,-0.42,6.28,-8.05,-0.01,0.00,-0.01,-32.40,20.24,-27.80
4823,-0.42,6.27,-8.00,-0.01,0.00,-0.01,-32.40,20.24,-27.80
4834,-0.42,6.27,-8.00,-0.01,0.00,-0.01,-32.40,20.24,-27.80
4845,-0.44,6.28,-8.01,-0.01,0.00,-0.01,-32.40,20.24,-27.80
4856,-0.44,6.28,-8.01,-0.01,0.00,-0.01,-32.40,20.24,-27.80
4867,-0.42,6.29,-8.01,-0.01,0.00,-0.01,-32.40,20.24,-27.80
4878,-0.42,6.29,-8.01,-0.01,0.00,-0.01,-32.40,20.24,-27.80
4889,-0.42,6.30,-8.00,-0.01,0.00,-0.01,-32.40,20.24,-27.80
4900,-0.42,6.30,-8.00,-0.01,0.00,-0.01,-32.40,20.24,-27.80
4911,-0.42,6.28,-8.00,-0.01,0.00,-0.01,-32.40,20.24,-27.80
4922,-0.42,6.27,-8.04,-0.01,0.00,-0.01,-32.99,20.40,-28.32
4933,-0.42,6.27,-8.04,-0.01,0.00,-0.01,-32.99,20.40,-28.32
4944,-0.42,6.28,-8.05,-0.01,0.00,-0.01,-32.99,20.40,-28.32
4955,-0.42,6.28,-8.05,-0.01,0.00,-0.01,-32.99,20.40,-28.32
4966,-0.42,6.28,-8.02,-0.01,0.00,-0.01,-32.99,20.40,-28.32
4977,-0.42,6.28,-8.02,-0.01,0.00,-0.01,-32.99,20.40,-28.32
4988,-0.41,6.28,-8.02,-0.01,0.00,-0.01,-32.99,20.40,-28.32
4999,-0.41,6.28,-8.02,-0.01,0.00,-0.01,-32.99,20.40,-28.32
5010,-0.43,6.29,-8.00,-0.01,0.00,-0.01,-32.99,20.40,-28.32
5021,-0.43,6.29,-8.00,-0.01,0.00,-0.01,-32.99,20.40,-28.32
5032,-0.42,6.30,-7.99,-0.01,0.00,-0.01,-32.99,20.40,-28.32
5043,-0.43,6.29,-8.02,-0.01,0.00,-0.01,-32.01,20.24,-28.15
5054,-0.43,6.29,-8.02,-0.01,0.00,-0.01,-32.01,20.24,-28.15
5065,-0.42,6.29,-8.02,-0.01,0.00,-0.01,-32.01,20.24,-28.15
5076,-0.42,6.29,-8.02,-0.01,0.00,-0.01,-32.01,20.24,-28.15
5087,-0.41,6.26,-8.04,-0.01,0.00,-0.01,-32.01,20.24,-28.15
5098,-0.41,6.26,-8.04,-0.01,0.00,-0.01,-32.01,20.24,-28.15
5109,-0.42,6.27,-8.02,-0.01,0.00,-0.01,-32.01,20.24,-28.15
5120,-0.42,6.27,-8.02,-0.01,0.00,-0.01,-32.01,20.24,-28.15
5131,-0.42,6.30,-7.99,-0.01,0.00,-0.01,-32.01,20.24,-28.15
5142,-0.42,6.30,-8.00,-0.01,0.00,-0.01,-32.01,20.24,-28.15
5153,-0.42,6.30,-8.00,-0.01,0.00,-0.01,-32.01,20.24,-28.15
5164,-0.41,6.27,-8.05,-0.01,0.00,-0.01,-32.01,20.24,-28.15
5175,-0.41,6.27,-8.05,-0.01,0.00,-0.01,-32.01,20.24,-28.15
5186,-0.42,6.25,-8.03,-0.01,0.00,-0.01,-32.79,20.56,-28.50
5198,-0.42,6.25,-8.03,-0.01,0.00,-0.01,-32.79,20.56,-28.50
5208,-0.45,6.28,-7.98,-0.01,0.00,-0.01,-32.79,20.56,-28.50
5219,-0.45,6.28,-7.98,-0.01,0.00,-0.01,-32.79,20.56,-28.50
5230,-0.44,6.27,-8.00,-0.01,0.00,-0.01,-32.79,20.56,-28.50
5241,-0.44,6.27,-8.00,-0.01,0.00,-0.01,-32.79,20.56,-28.50
5252,-0.41,6.27,-8.00,-0.01,0.00,-0.01,-32.79,20.56,-28.50
5263,-0.40,6.26,-7.99,-0.01,0.00,-0.01,-32.79,20.56,-28.50
5274,-0.40,6.26,-7.99,-0.01,0.00,-0.01,-32.79,20.56,-28.50
5285,-0.43,6.27,-8.00,-0.01,0.00,-0.01,-32.79,20.56,-28.50
5296,-0.43,6.27,-8.00,-0.01,0.00,-0.01,-32.79,20.56,-28.50
5307,-0.44,6.29,-8.00,-0.01,0.00,-0.01,-33.57,19.60,-28.50
5318,-0.44,6.29,-8.00,-0.01,0.00,-0.01,-33.57,19.60,-28.50
5329,-0.42,6.30,-8.04,-0.01,0.00,-0.01,-33.57,19.60,-28.50
5340,-0.42,6.30,-8.04,-0.01,0.00,-0.01,-33.57,19.60,-28.50
5351,-0.40,6.31,-8.02,-0.01,0.00,-0.01,-33.57,19.60,-28.50
5362,-0.40,6.31,-8.02,-0.01,0.00,-0.01,-33.57,19.60,-28.50
5373,-0.40,6.28,-8.05,-0.01,0.00,-0.01,-33.57,19.60,-28.50
5384,-0.44,6.29,-8.02,-0.01,0.00,-0.01,-33.57,19.60,-28.50
5395,-0.44,6.29,-8.02,-0.01,0.00,-0.01,-33.57,19.60,-28.50
5406,-0.46,6.30,-8.02,-0.01,0.00,-0.01,-33.57,19.60,-28.50
5417,-0.46,6.30,-8.02,-0.01,0.00,-0.01,-33.57,19.60,-28.50
5429,-0.42,6.29,-7.99,-0.01,0.00,-0.01,-31.62,21.21,-28.84
5439,-0.42,6.29,-7.99,-0.01,0.00,-0.01,-31.62,21.21,-28.84
5450,-0.39,6.28,-8.04,-0.01,0.00,-0.01,-31.62,21.21,-28.84
5461,-0.39,6.28,-8.04,-0.01,0.00,-0.01,-31.62,21.21,-28.84
5472,-0.42,6.29,-8.00,-0.01,0.00,-0.01,-31.62,21.21,-28.84
5483,-0.45,6.30,-8.02,-0.01,0.00,-0.01,-31.62,21.21,-28.84
5494,-0.45,6.30,-8.02,-0.01,0.00,-0.01,-31.62,21.21,-28.84
5505,-0.45,6.28,-8.03,-0.01,0.00,-0.01,-31.62,21.21,-28.84
5516,-0.45,6.28,-8.03,-0.01,0.00,-0.01,-31.62,21.21,-28.84
5527,-0.42,6.27,-8.06,-0.01,0.00,-0.01,-31.62,21.21,-28.84
5538,-0.42,6.27,-8.06,-0.01,0.00,-0.01,-31.62,21.21,-28.84
5549,-0.41,6.28,-8.05,-0.01,0.00,-0.01,-31.62,21.21,-28.84
5560,-0.41,6.28,-8.05,-0.01,0.00,-0.01,-31.62,21.21,-28.84
5571,-0.40,6.28,-8.07,-0.01,0.00,-0.01,-32.79,20.24,-27.80
5582,-0.40,6.28,-8.07,-0.01,0.00,-0.01,-32.79,20.24,-27.80
5593,-0.44,6.31,-8.03,-0.01,0.00,-0.01,-32.79,20.24,-27.80
5604,-0.45,6.31,-8.00,-0.01,0.00,-0.01,-32.79,20.24,-27.80
5615,-0.45,6.31,-8.00,-0.01,0.00,-0.01,-32.79,20.24,-27.80
5626,-0.41,6.29,-7.99,-0.01,0.00,-0.01,-32.79,20.24,-27.80
5637,-0.41,6.29,-7.99,-0.01,0.00,-0.01,-32.79,20.24,-27.80
5648,-0.40,6.23,-8.00,-0.01,0.00,-0.01,-32.79,20.24,-27.80
5659,-0.40,6.23,-8.00,-0.01,0.00,-0.01,-32.79,20.24,-27.80
5670,-0.41,6.24,-8.03,-0.01,0.01,-0.01,-32.79,20.24,-27.80
5681,-0.41,6.24,-8.03,-0.01,0.01,-0.01,-32.79,20.24,-27.80
5692,-0.44,6.30,-7.97,-0.01,0.01,-0.01,-33.38,20.40,-27.63
5703,-0.45,6.33,-7.99,-0.01,0.00,-0.01,-33.38,20.40,-27.63
5714,-0.45,6.33,-7.99,-0.01,0.00,-0.01,-33.38,20.40,-27.63
5725,-0.41,6.27,-8.01,-0.01,0.00,-0.01,-33.38,20.40,-27.63
5736,-0.41,6.27,-8.01,-0.01,0.00,-0.01,-33.38,20.40,-27.63
5747,-0.40,6.21,-8.05,-0.01,0.00,-0.01,-33.38,20.40,-27.63
5758,-0.40,6.21,-8.05,-0.01,0.00,-0.01,-33.38,20.40,-27.63
5769,-0.43,6.24,-8.05,-0.01,0.00,-0.01,-33.38,20.40,-27.63
5780,-0.43,6.24,-8.05,-0.01,0.00,-0.01,-33.38,20.40,-27.63
5791,-0.43,6.31,-7.98,-0.01,0.00,-0.01,-33.38,20.40,-27.63
5802,-0.43,6.31,-7.98,-0.01,0.00,-0.01,-33.38,20.40,-27.63
5813,-0.41,6.34,-7.98,-0.01,0.00,-0.01,-33.18,20.56,-27.80
5824,-0.40,6.29,-8.01,-0.01,0.00,-0.01,-33.18,20.56,-27.80
5835,-0.40,6.29,-8.01,-0.01,0.00,-0.01,-33.18,20.56,-27.80
5846,-0.39,6.22,-8.04,-0.01,0.00,-0.01,-33.18,20.56,-27.80
5857,-0.39,6.22,-8.04,-0.01,0.00,-0.01,-33.18,20.56,-27.80
5868,-0.43,6.23,-8.04,-0.01,0.00,-0.01,-33.18,20.56,-27.80
5880,-0.43,6.23,-8.04,-0.01,0.00,-0.01,-33.18,20.56,-27.80
5890,-0.46,6.29,-8.02,-0.01,0.00,-0.01,-33.18,20.56,-27.80
5901,-0.46,6.29,-8.02,-0.01,0.00,-0.01,-33.18,20.56,-27.80
5912,-0.42,6.31,-7.95,-0.01,0.00,-0.01,-33.18,20.56,-27.80
5923,-0.40,6.32,-7.97,-0.01,0.00,-0.01,-33.18,20.56,-27.80
5934,-0.40,6.32,-7.97,-0.01,0.00,-0.01,-33.18,20.56,-27.80
5945,-0.40,6.24,-8.03,-0.01,0.00,-0.01,-32.01,20.56,-28.50
5956,-0.40,6.24,-8.03,-0.01,0.00,-0.01,-32.01,20.56,-28.50
5967,-0.42,6.21,-8.07,-0.01,0.00,-0.01,-32.01,20.56,-28.50
5978,-0.42,6.21,-8.07,-0.01,0.00,-0.01,-32.01,20.56,-28.50
5989,-0.45,6.25,-8.01,-0.01,0.00,-0.01,-32.01,20.56,-28.50
6000,-0.45,6.25,-8.01,-0.01,0.00,-0.01,-32.01,20.56,-28.50
6011,-0.42,6.31,-7.98,-0.01,0.00,-0.01,-32.01,20.56,-28.50
6022,-0.42,6.31,-7.98,-0.01,0.00,-0.01,-32.01,20.56,-28.50
6033,-0.37,6.31,-7.98,-0.01,0.00,-0.01,-32.01,20.56,-28.50
6044,-0.38,6.29,-8.01,-0.01,0.00,-0.01,-32.01,20.56,-28.50
6055,-0.38,6.29,-8.01,-0.01,0.00,-0.01,-32.01,20.56,-28.50
6066,-0.43,6.26,-8.06,-0.01,0.00,-0.01,-32.60,19.44,-27.63
6077,-0.43,6.26,-8.06,-0.01,0.00,-0.01,-32.60,19.44,-27.63
6088,-0.49,6.29,-8.02,-0.01,0.00,-0.01,-32.60,19.44,-27.63
6099,-0.49,6.29,-8.02,-0.01,0.00,-0.01,-32.60,19.44,-27.63
6110,-0.43,6.28,-8.00,-0.01,0.00,-0.01,-32.60,19.44,-27.63
6121,-0.43,6.28,-8.00,-0.01,0.00,-0.01,-32.60,19.44,-27.63
6133,-0.35,6.27,-8.01,-0.01,0.00,-0.01,-32.60,19.44,-27.63
6143,-0.33,6.26,-8.03,-0.01,0.01,-0.01,-32.60,19.44,-27.63
6154,-0.33,6.26,-8.03,-0.01,0.01,-0.01,-32.60,19.44,-27.63
6165,-0.44,6.25,-8.00,-0.01,0.01,-0.01,-32.60,19.44,-27.63
6176,-0.44,6.25,-8.00,-0.01,0.01,-0.01,-32.60,19.44,-27.63
6187,0.41,3.54,-3.68,-0.95,-0.44,-0.49,-33.38,20.73,-28.67
6198,0.41,3.54,-3.68,-0.95,-0.44,-0.49,-33.38,20.73,-28.67
6209,-1.21,8.41,-6.22,-1.64,-0.42,-0.16,-33.38,20.73,-28.67
6220,-1.21,8.41,-6.22,-1.64,-0.42,-0.16,-33.38,20.73,-28.67
6231,0.37,5.75,-7.50,1.27,0.33,0.00,-33.38,20.73,-28.67
6242,0.37,5.75,-7.50,1.27,0.33,0.00,-33.38,20.73,-28.67
6253,-0.68,6.55,-7.92,0.21,-0.61,0.76,-33.38,20.73,-28.67
6264,-0.18,6.01,-8.66,0.98,-0.72,1.64,-33.38,20.73,-28.67
6275,-0.18,6.01,-8.66,0.98,-0.72,1.64,-33.38,20.73,-28.67
6286,-2.57,5.10,-9.61,0.08,-1.00,1.29,-33.38,20.73,-28.67
6297,-2.57,5.10,-9.61,0.08,-1.00,1.29,-33.38,20.73,-28.67
6308,1.12,7.94,-15.43,0.82,0.21,0.48,-33.38,20.73,-28.67
6319,1.12,7.94,-15.43,0.82,0.21,0.48,-33.38,20.73,-28.67
6330,-0.32,4.49,-12.81,6.61,-0.68,1.23,-32.99,21.37,-27.28
6341,-0.32,4.49,-12.81,6.61,-0.68,1.23,-32.99,21.37,-27.28
6352,-0.53,1.08,-5.04,10.66,-0.87,2.54,-32.99,21.37,-27.28
6363,-0.53,1.08,-5.04,10.66,-0.87,2.54,-32.99,21.37,-27.28
6374,-0.12,1.48,-7.56,6.87,-0.17,3.22,-32.99,21.37,-27.28
6385,0.54,2.02,-9.51,3.27,0.27,3.21,-32.99,21.37,-27.28
6396,0.54,2.02,-9.51,3.27,0.27,3.21,-32.99,21.37,-27.28
6407,1.87,1.60,-8.78,1.91,0.35,3.13,-32.99,21.37,-27.28
6418,1.87,1.60,-8.78,1.91,0.35,3.13,-32.99,21.37,-27.28
6429,-0.58,3.53,-11.84,1.10,0.19,2.74,-32.99,21.37,-27.28
6440,-0.58,3.53,-11.84,1.10,0.19,2.74,-32.99,21.37,-27.28
6451,-0.68,2.20,-12.20,3.41,0.38,1.84,-26.93,6.41,-38.92
6462,-0.68,2.20,-12.20,3.41,0.38,1.84,-26.93,6.41,-38.92
6473,1.73,0.92,-15.10,4.70,0.43,0.94,-26.93,6.41,-38.92
6484,3.52,-2.10,-13.13,5.54,-0.90,0.40,-26.93,6.41,-38.92
6495,3.52,-2.10,-13.13,5.54,-0.90,0.40,-26.93,6.41,-38.92
6506,0.34,-7.17,-6.59,5.37,-2.21,0.32,-26.93,6.41,-38.92
6518,0.34,-7.17,-6.59,5.37,-2.21,0.32,-26.93,6.41,-38.92
6528,-1.82,-8.62,-6.17,3.55,-1.75,1.04,-26.93,6.41,-38.92
6539,-1.82,-8.62,-6.17,3.55,-1.75,1.04,-26.93,6.41,-38.92
6550,-1.13,-7.39,-8.28,3.11,-0.56,1.87,-26.93,6.41,-38.92
6561,-1.13,-7.39,-8.28,3.11,-0.56,1.87,-26.93,6.41,-38.92
6572,-0.17,-4.61,-10.52,2.42,0.01,2.47,-29.28,-15.15,-38.23
6583,-0.17,-4.61,-10.52,2.42,0.01,2.47,-29.28,-15.15,-38.23
6594,-1.53,-2.45,-11.88,1.69,-0.31,2.37,-29.28,-15.15,-38.23
6605,-2.05,-2.13,-12.80,1.63,-0.85,1.98,-29.28,-15.15,-38.23
6616,-2.05,-2.13,-12.80,1.63,-0.85,1.98,-29.28,-15.15,-38.23
6627,-0.22,-0.71,-12.96,1.91,-1.35,1.86,-29.28,-15.15,-38.23
6638,-0.22,-0.71,-12.96,1.91,-1.35,1.86,-29.28,-15.15,-38.23
6649,-1.34,0.62,-12.22,1.29,-2.24,1.41,-29.28,-15.15,-38.23
6660,-1.34,0.62,-12.22,1.29,-2.24,1.41,-29.28,-15.15,-38.23
6671,-3.24,-2.07,-8.51,1.74,-2.93,0.40,-29.28,-15.15,-38.23
6682,-3.24,-2.07,-8.51,1.74,-2.93,0.40,-29.28,-15.15,-38.23
6693,-2.35,-5.63,-5.91,2.39,-2.80,-0.25,-39.82,-18.68,-28.15
6704,-2.88,-6.92,-5.48,2.18,-2.29,-0.14,-39.82,-18.68,-28.15
6715,-2.88,-6.92,-5.48,2.18,-2.29,-0.14,-39.82,-18.68,-28.15
6726,-4.35,-7.49,-7.61,1.89,-1.86,0.23,-39.82,-18.68,-28.15
6737,-4.35,-7.49,-7.61,1.89,-1.86,0.23,-39.82,-18.68,-28.15
6748,-4.58,-6.91,-10.24,1.53,-1.91,0.57,-39.82,-18.68,-28.15
6759,-4.58,-6.91,-10.24,1.53,-1.91,0.57,-39.82,-18.68,-28.15
6771,-3.38,-5.64,-8.23,1.11,-2.58,0.68,-39.82,-18.68,-28.15
6781,-3.38,-5.64,-8.23,1.11,-2.58,0.68,-39.82,-18.68,-28.15
6792,-2.47,-4.47,-3.11,0.95,-3.05,0.56,-39.82,-18.68,-28.15
6803,-2.47,-4.47,-3.11,0.95,-3.05,0.56,-39.82,-18.68,-28.15
6819,-4.63,-4.48,0.47,0.71,-2.56,0.27,-39.82,-18.68,-28.15
6825,-5.09,-6.21,-1.83,-0.06,-1.27,-0.18,-50.36,-22.55,-18.42
6836,-5.09,-6.21,-1.83,-0.06,-1.27,-0.18,-50.36,-22.55,-18.42
6847,-8.26,-7.25,-4.23,-0.99,-0.69,-0.15,-50.36,-22.55,-18.42
6858,-8.26,-7.25,-4.23,-0.99,-0.69,-0.15,-50.36,-22.55,-18.42
6869,-5.94,-7.11,-6.53,-3.79,-1.12,0.14,-50.36,-22.55,-18.42
6880,-5.94,-7.11,-6.53,-3.79,-1.12,0.14,-50.36,-22.55,-18.42
6891,-4.42,-6.88,-10.04,-4.77,-1.80,0.46,-50.36,-22.55,-18.42
6902,-4.42,-6.88,-10.04,-4.77,-1.80,0.46,-50.36,-22.55,-18.42
6913,-4.42,-4.54,-8.74,-3.12,-2.60,0.72,-50.36,-22.55,-18.42
6924,-6.82,-3.24,-4.31,-0.96,-2.97,0.49,-50.36,-22.55,-18.42
6935,-6.82,-3.24,-4.31,-0.96,-2.97,0.49,-50.36,-22.55,-18.42
6946,-8.29,-2.60,-2.88,0.03,-2.73,-0.13,-54.46,-15.63,-13.38
6957,-8.29,-2.60,-2.88,0.03,-2.73,-0.13,-54.46,-15.63,-13.38
6968,-5.92,-5.38,-5.98,-0.21,-2.50,-0.86,-54.46,-15.63,-13.38
6979,-5.92,-5.38,-5.98,-0.21,-2.50,-0.86,-54.46,-15.63,-13.38
6990,-5.88,-8.03,-7.35,0.11,-2.87,-0.75,-54.46,-15.63,-13.38
7001,-5.88,-8.03,-7.35,0.11,-2.87,-0.75,-54.46,-15.63,-13.38
7012,-4.90,-8.32,-5.78,0.86,-3.20,-0.00,-54.46,-15.63,-13.38
7023,-4.90,-8.32,-5.78,0.86,-3.20,-0.00,-54.46,-15.63,-13.38
7034,-5.79,-7.50,-4.19,1.02,-3.29,0.75,-54.46,-15.63,-13.38
7045,-5.80,-6.00,-3.65,0.04,-3.45,1.07,-54.46,-15.63,-13.38
7056,-5.80,-6.00,-3.65,0.04,-3.45,1.07,-54.46,-15.63,-13.38
7067,-5.34,-4.35,-4.49,-0.63,-3.74,0.89,-59.73,-13.54,4.86
7078,-5.34,-4.35,-4.49,-0.63,-3.74,0.89,-59.73,-13.54,4.86
7089,-5.44,-3.39,-5.70,0.98,-4.19,0.62,-59.73,-13.54,4.86
7100,-5.44,-3.39,-5.70,0.98,-4.19,0.62,-59.73,-13.54,4.86
7111,-2.57,-3.56,-4.04,5.46,-4.84,0.72,-59.73,-13.54,4.86
7122,-2.57,-3.56,-4.04,5.46,-4.84,0.72,-59.73,-13.54,4.86
7133,-1.12,-4.04,-1.51,8.06,-5.50,1.35,-59.73,-13.54,4.86
7144,0.17,-2.40,-0.83,8.92,-6.08,2.43,-59.73,-13.54,4.86
7155,0.17,-2.40,-0.83,8.92,-6.08,2.43,-59.73,-13.54,4.86
7166,-2.87,22.43,6.15,15.68,-6.21,4.39,-59.73,-13.54,4.86
7177,-2.87,22.43,6.15,15.68,-6.21,4.39,-59.73,-13.54,4.86
7188,-10.04,11.68,31.62,17.43,-1.82,4.94,-59.73,-13.54,4.86
7199,-10.04,11.68,31.62,17.43,-1.82,4.94,-59.73,-13.54,4.86
7210,-6.84,-0.28,12.96,11.87,1.83,3.16,-46.85,24.10,11.81
7221,-6.84,-0.28,12.96,11.87,1.83,3.16,-46.85,24.10,11.81
7232,-5.80,7.68,1.35,-4.56,2.13,3.24,-46.85,24.10,11.81
7243,-5.80,7.68,1.35,-4.56,2.13,3.24,-46.85,24.10,11.81
7254,-4.58,9.69,2.97,-2.33,1.44,3.59,-46.85,24.10,11.81
7265,-7.10,14.36,7.53,-2.09,0.82,2.67,-46.85,24.10,11.81
7276,-7.10,14.36,7.53,-2.09,0.82,2.67,-46.85,24.10,11.81
7287,-7.95,14.27,6.00,-7.62,0.31,0.08,-46.85,24.10,11.81
7298,-7.95,14.27,6.00,-7.62,0.31,0.08,-46.85,24.10,11.81
7309,-7.91,6.94,4.88,-7.68,0.07,-1.91,-46.85,24.10,11.81
7320,-7.91,6.94,4.88,-7.68,0.07,-1.91,-46.85,24.10,11.81
7331,-4.73,2.10,5.03,-4.54,-0.15,-2.23,-42.75,22.33,25.54
7342,-4.73,2.10,5.03,-4.54,-0.15,-2.23,-42.75,22.33,25.54
7353,-4.97,0.20,4.53,-2.62,-0.44,-1.75,-42.75,22.33,25.54
7364,-4.97,0.20,4.53,-2.62,-0.44,-1.75,-42.75,22.33,25.54
7376,-4.92,-0.30,5.13,-0.22,-0.62,-1.00,-42.75,22.33,25.54
7386,-6.26,0.71,7.19,1.98,-0.46,-0.16,-42.75,22.33,25.54
7397,-6.26,0.71,7.19,1.98,-0.46,-0.16,-42.75,22.33,25.54
7408,-6.85,2.23,7.31,2.50,-0.00,0.36,-42.75,22.33,25.54
7419,-6.85,2.23,7.31,2.50,-0.00,0.36,-42.75,22.33,25.54
7430,-7.06,2.92,7.12,2.21,0.27,0.25,-42.75,22.33,25.54
7441,-7.06,2.92,7.12,2.21,0.27,0.25,-42.75,22.33,25.54
7452,-6.93,4.01,5.07,1.48,0.21,0.21,-43.72,22.82,23.28
7463,-6.93,4.01,5.07,1.48,0.21,0.21,-43.72,22.82,23.28
7474,-6.95,5.27,5.18,2.41,-0.03,0.33,-43.72,22.82,23.28
7485,-6.98,5.93,6.37,2.98,-0.15,0.17,-43.72,22.82,23.28
7496,-6.98,5.93,6.37,2.98,-0.15,0.17,-43.72,22.82,23.28
7507,-8.29,5.59,6.54,2.15,-0.11,-0.12,-43.72,22.82,23.28
7518,-8.29,5.59,6.54,2.15,-0.11,-0.12,-43.72,22.82,23.28
7529,-7.82,4.87,6.31,1.50,-0.12,-0.39,-43.72,22.82,23.28
7540,-7.82,4.87,6.31,1.50,-0.12,-0.39,-43.72,22.82,23.28
7551,-7.66,4.66,6.43,0.21,-0.17,-0.57,-43.72,22.82,23.28
7562,-7.66,4.66,6.43,0.21,-0.17,-0.57,-43.72,22.82,23.28
7573,-7.43,4.87,5.49,-0.90,-0.21,-0.57,-43.72,22.82,23.28
7584,-7.43,4.87,5.49,-0.90,-0.21,-0.57,-43.72,22.82,23.28
7595,-7.43,4.94,5.09,-0.01,-0.29,-0.44,-45.09,23.94,19.28
7606,-7.08,5.49,5.34,1.19,-0.43,-0.45,-45.09,23.94,19.28
7617,-7.08,5.49,5.34,1.19,-0.43,-0.45,-45.09,23.94,19.28
7628,-7.58,5.19,5.68,1.98,-0.53,-0.52,-45.09,23.94,19.28
7639,-7.58,5.19,5.68,1.98,-0.53,-0.52,-45.09,23.94,19.28
7650,-7.28,4.80,4.95,2.19,-0.44,-0.35,-45.09,23.94,19.28
7661,-7.28,4.80,4.95,2.19,-0.44,-0.35,-45.09,23.94,19.28
7672,-7.26,4.86,4.84,2.84,-0.25,0.06,-45.09,23.94,19.28
7683,-7.26,4.86,4.84,2.84,-0.25,0.06,-45.09,23.94,19.28
7694,-7.75,5.56,4.76,2.98,-0.06,0.25,-45.09,23.94,19.28
7705,-7.05,7.19,2.49,2.58,0.03,0.04,-44.31,27.80,9.55
7716,-7.05,7.19,2.49,2.58,0.03,0.04,-44.31,27.80,9.55
7727,-7.42,4.43,6.44,3.21,-0.10,-0.16,-44.31,27.80,9.55
7738,-7.42,4.43,6.44,3.21,-0.10,-0.16,-44.31,27.80,9.55
7749,-7.52,4.02,3.46,-1.72,-0.61,-0.40,-44.31,27.80,9.55
7760,-7.52,4.02,3.46,-1.72,-0.61,-0.40,-44.31,27.80,9.55
7771,-8.33,4.75,4.35,-4.54,-0.70,-0.08,-44.31,27.80,9.55
7782,-8.33,4.75,4.35,-4.54,-0.70,-0.08,-44.31,27.80,9.55
7793,-7.97,4.30,5.71,-3.82,-0.43,0.39,-44.31,27.80,9.55
7804,-7.97,4.30,5.71,-3.82,-0.43,0.39,-44.31,27.80,9.55
7815,-7.39,3.97,6.38,-5.56,-0.39,0.30,-44.31,27.80,9.55
7826,-7.31,4.16,6.11,-8.22,-0.53,0.08,-43.33,20.24,22.93
7837,-7.31,4.16,6.11,-8.22,-0.53,0.08,-43.33,20.24,22.93
7848,-6.16,2.96,5.36,-6.67,-0.29,0.04,-43.33,20.24,22.93
7859,-6.16,2.96,5.36,-6.67,-0.29,0.04,-43.33,20.24,22.93
7870,-4.99,1.09,5.31,-3.18,0.00,0.31,-43.33,20.24,22.93
7881,-4.99,1.09,5.31,-3.18,0.00,0.31,-43.33,20.24,22.93
7893,-4.04,0.36,5.49,-2.20,-0.20,0.76,-43.33,20.24,22.93
7903,-4.04,0.36,5.49,-2.20,-0.20,0.76,-43.33,20.24,22.93
7914,-4.52,0.71,6.88,-2.77,-0.59,1.22,-43.33,20.24,22.93
7925,-4.29,1.67,6.95,-2.36,-0.56,1.17,-43.33,20.24,22.93
7936,-4.29,1.67,6.95,-2.36,-0.56,1.17,-43.33,20.24,22.93
7947,-3.88,1.63,7.79,-1.69,-0.32,0.55,-43.33,20.24,22.93
7958,-3.88,1.63,7.79,-1.69,-0.32,0.55,-43.33,20.24,22.93
7969,-4.13,0.32,8.92,-2.14,0.09,-0.31,-38.84,13.65,33.88
7980,-4.13,0.32,8.92,-2.14,0.09,-0.31,-38.84,13.65,33.88
7991,-2.14,-1.32,4.38,-1.91,0.64,-0.65,-38.84,13.65,33.88
8002,-2.14,-1.32,4.38,-1.91,0.64,-0.65,-38.84,13.65,33.88
8013,-4.15,-1.45,4.93,0.54,0.93,-0.70,-38.84,13.65,33.88
8024,-4.15,-1.45,4.93,0.54,0.93,-0.70,-38.84,13.65,33.88
8035,-7.58,-0.28,5.59,1.72,0.89,-0.75,-38.84,13.65,33.88
8046,-9.76,0.51,5.72,1.40,0.75,-0.84,-38.84,13.65,33.88
8057,-9.76,0.51,5.72,1.40,0.75,-0.84,-38.84,13.65,33.88
8068,-11.16,-0.47,6.69,1.03,0.56,-0.89,-38.84,13.65,33.88
8079,-11.16,-0.47,6.69,1.03,0.56,-0.89,-38.84,13.65,33.88
8090,-10.63,-0.14,6.81,0.31,0.37,-0.89,-44.70,11.72,31.79
8101,-10.63,-0.14,6.81,0.31,0.37,-0.89,-44.70,11.72,31.79
8112,-11.56,0.35,4.53,0.39,0.28,-0.80,-44.70,11.72,31.79
8123,-11.56,0.35,4.53,0.39,0.28,-0.80,-44.70,11.72,31.79
8134,-9.46,-0.91,7.81,1.71,0.19,-0.59,-44.70,11.72,31.79
8145,-9.46,-0.91,7.81,1.71,0.19,-0.59,-44.70,11.72,31.79
8156,-8.02,0.49,7.21,0.42,0.22,-0.24,-44.70,11.72,31.79
8167,-8.00,1.47,5.87,-1.04,0.08,-0.31,-44.70,11.72,31.79
8178,-8.00,1.47,5.87,-1.04,0.08,-0.31,-44.70,11.72,31.79
8189,-7.44,-0.86,6.55,-1.95,-0.03,-0.53,-44.70,11.72,31.79
8200,-7.44,-0.86,6.55,-1.95,-0.03,-0.53,-44.70,11.72,31.79
8211,-7.35,-2.04,6.49,-2.87,0.10,-0.23,-48.41,10.91,32.66
8222,-7.35,-2.04,6.49,-2.87,0.10,-0.23,-48.41,10.91,32.66
8233,-7.76,-1.60,7.27,-2.55,0.33,0.07,-48.41,10.91,32.66
8244,-7.76,-1.60,7.27,-2.55,0.33,0.07,-48.41,10.91,32.66
8255,-8.86,-1.81,8.82,-2.05,0.82,0.15,-48.41,10.91,32.66
8266,-9.55,-1.62,6.75,-3.29,1.32,0.01,-48.41,10.91,32.66
8277,-9.55,-1.62,6.75,-3.29,1.32,0.01,-48.41,10.91,32.66
8288,-14.51,-2.61,6.78,-1.55,1.15,-0.11,-48.41,10.91,32.66
8299,-14.51,-2.61,6.78,-1.55,1.15,-0.11,-48.41,10.91,32.66
8310,-8.50,1.03,7.67,-3.17,0.51,-0.71,-48.41,10.91,32.66
8321,-8.50,1.03,7.67,-3.17,0.51,-0.71,-48.41,10.91,32.66
8332,0.31,-0.98,2.36,-3.88,0.55,-0.78,-49.78,-2.44,31.79
8343,0.31,-0.98,2.36,-3.88,0.55,-0.78,-49.78,-2.44,31.79
8354,-0.51,-4.37,5.22,-0.29,0.81,0.13,-49.78,-2.44,31.79
8365,-0.51,-4.37,5.22,-0.29,0.81,0.13,-49.78,-2.44,31.79
8376,-8.78,-2.83,4.62,0.79,1.51,0.87,-49.78,-2.44,31.79
8387,-14.86,-7.25,4.74,0.98,1.49,0.39,-49.78,-2.44,31.79
8398,-14.86,-7.25,4.74,0.98,1.49,0.39,-49.78,-2.44,31.79
8409,-8.84,-2.40,1.85,-0.21,0.80,0.56,-49.78,-2.44,31.79
8420,-8.84,-2.40,1.85,-0.21,0.80,0.56,-49.78,-2.44,31.79
8431,-7.48,-0.60,6.23,-1.13,0.19,0.49,-49.78,-2.44,31.79
8442,-7.48,-0.60,6.23,-1.13,0.19,0.49,-49.78,-2.44,31.79
8453,-8.27,-2.19,5.16,-1.23,0.77,0.25,-49.78,-2.44,31.79
8464,-8.27,-2.19,5.16,-1.23,0.77,0.25,-49.78,-2.44,31.79
8475,-9.16,-1.95,1.82,-0.91,1.13,0.58,-53.88,1.90,29.53
8486,-9.47,-1.09,4.64,-0.92,0.76,0.64,-53.88,1.90,29.53
8497,-9.47,-1.09,4.64,-0.92,0.76,0.64,-53.88,1.90,29.53
8508,-9.08,-2.46,2.95,-0.93,0.93,0.34,-53.88,1.90,29.53
8520,-9.08,-2.46,2.95,-0.93,0.93,0.34,-53.88,1.90,29.53
8530,-8.02,-3.55,2.09,-0.65,0.86,0.29,-53.88,1.90,29.53
8541,-8.02,-3.55,2.09,-0.65,0.86,0.29,-53.88,1.90,29.53
8552,-8.03,-3.38,3.85,-0.25,0.70,0.40,-53.88,1.90,29.53
8563,-8.03,-3.38,3.85,-0.25,0.70,0.40,-53.88,1.90,29.53
8574,-8.13,-3.34,2.98,0.07,0.81,0.39,-53.88,1.90,29.53
8585,-8.13,-3.34,2.98,0.07,0.81,0.39,-53.88,1.90,29.53
8596,-8.82,-2.34,2.60,0.23,0.57,0.52,-55.05,0.62,24.32
8607,-8.92,-1.25,4.50,0.28,0.17,0.66,-55.05,0.62,24.32
8618,-8.92,-1.25,4.50,0.28,0.17,0.66,-55.05,0.62,24.32
8629,-8.43,-1.46,4.34,0.31,0.32,0.67,-55.05,0.62,24.32
8640,-8.43,-1.46,4.34,0.31,0.32,0.67,-55.05,0.62,24.32
8651,-9.77,-0.20,2.76,0.39,0.51,0.75,-55.05,0.62,24.32
8662,-9.77,-0.20,2.76,0.39,0.51,0.75,-55.05,0.62,24.32
8673,-11.04,0.83,2.89,0.21,0.35,0.54,-55.05,0.62,24.32
8684,-11.04,0.83,2.89,0.21,0.35,0.54,-55.05,0.62,24.32
8695,-10.75,0.71,2.49,-0.09,0.28,0.02,-55.05,0.62,24.32
8706,-9.73,-1.19,2.10,-0.30,0.20,-0.42,-57.39,4.16,23.97
8717,-9.73,-1.19,2.10,-0.30,0.20,-0.42,-57.39,4.16,23.97
8728,-8.81,-3.21,3.07,-0.24,0.11,-0.56,-57.39,4.16,23.97
8739,-8.81,-3.21,3.07,-0.24,0.11,-0.56,-57.39,4.16,23.97
8750,-8.54,-3.93,3.09,-0.16,0.20,-0.42,-57.39,4.16,23.97
8761,-8.54,-3.93,3.09,-0.16,0.20,-0.42,-57.39,4.16,23.97
8772,-8.43,-4.32,3.61,-0.03,0.28,-0.21,-57.39,4.16,23.97
8783,-8.43,-4.32,3.61,-0.03,0.28,-0.21,-57.39,4.16,23.97
8794,-8.73,-2.92,2.82,0.01,0.29,0.11,-57.39,4.16,23.97
8805,-8.73,-2.92,2.82,0.01,0.29,0.11,-57.39,4.16,23.97
8816,-9.02,-1.67,2.66,0.17,0.25,0.39,-57.39,4.16,23.97
8827,-10.18,0.64,2.59,0.16,0.09,0.59,-57.39,4.16,23.97
8838,-10.18,0.64,2.59,0.16,0.09,0.59,-57.39,4.16,23.97
8849,-10.00,0.12,2.56,0.17,-0.05,0.28,-57.19,3.67,23.45
8860,-10.00,0.12,2.56,0.17,-0.05,0.28,-57.19,3.67,23.45
8871,-9.59,-1.47,2.65,0.23,-0.07,-0.01,-57.19,3.67,23.45
8882,-9.59,-1.47,2.65,0.23,-0.07,-0.01,-57.19,3.67,23.45
8893,-9.47,-2.02,2.47,0.22,-0.06,-0.11,-57.19,3.67,23.45
8904,-9.47,-2.02,2.47,0.22,-0.06,-0.11,-57.19,3.67,23.45
8915,-9.65,-1.81,2.63,0.18,-0.10,-0.13,-57.19,3.67,23.45
8926,-9.50,-1.59,3.49,0.10,-0.11,-0.16,-57.19,3.67,23.45
8937,-9.50,-1.59,3.49,0.10,-0.11,-0.16,-57.19,3.67,23.45
8948,-9.12,-1.91,3.25,-0.01,0.07,-0.22,-57.19,3.67,23.45
8959,-9.12,-1.91,3.25,-0.01,0.07,-0.22,-57.19,3.67,23.45
8970,-9.40,-2.10,2.84,0.01,0.19,-0.21,-56.41,4.64,21.71
8981,-9.40,-2.10,2.84,0.01,0.19,-0.21,-56.41,4.64,21.71
8992,-9.30,-1.84,2.61,0.02,0.19,-0.17,-56.41,4.64,21.71
9003,-9.30,-1.84,2.61,0.02,0.19,-0.17,-56.41,4.64,21.71
9014,-9.40,-1.73,2.76,0.00,0.17,-0.14,-56.41,4.64,21.71
9025,-9.40,-1.73,2.76,0.00,0.17,-0.14,-56.41,4.64,21.71
9036,-9.22,-2.15,2.89,-0.03,0.21,-0.12,-56.41,4.64,21.71
9047,-8.72,-3.10,2.69,0.00,0.27,-0.04,-56.41,4.64,21.71
9058,-8.72,-3.10,2.69,0.00,0.27,-0.04,-56.41,4.64,21.71
9069,-8.67,-3.19,2.74,0.12,0.33,0.22,-56.41,4.64,21.71
9080,-8.67,-3.19,2.74,0.12,0.33,0.22,-56.41,4.64,21.71
9091,-9.86,-0.20,2.31,0.06,0.20,0.36,-55.44,4.16,20.50
9102,-9.86,-0.20,2.31,0.06,0.20,0.36,-55.44,4.16,20.50
9114,-9.83,0.71,2.39,-0.09,0.04,0.18,-55.44,4.16,20.50
9124,-9.83,0.71,2.39,-0.09,0.04,0.18,-55.44,4.16,20.50
9135,-9.54,-2.39,2.90,-0.17,0.04,-0.17,-55.44,4.16,20.50
9146,-9.20,-2.71,1.60,-0.22,0.03,0.03,-55.44,4.16,20.50
9157,-9.20,-2.71,1.60,-0.22,0.03,0.03,-55.44,4.16,20.50
9168,-9.27,-2.15,2.51,-0.27,-0.18,0.33,-55.44,4.16,20.50
9179,-9.27,-2.15,2.51,-0.27,-0.18,0.33,-55.44,4.16,20.50
9190,-9.27,-2.05,1.97,-0.31,-0.30,0.54,-55.44,4.16,20.50
9201,-9.27,-2.05,1.97,-0.31,-0.30,0.54,-55.44,4.16,20.50
9212,-9.51,-0.87,2.86,-0.25,-0.47,0.69,-55.44,4.16,20.50
9223,-9.51,-0.87,2.86,-0.25,-0.47,0.69,-55.44,4.16,20.50
9234,-9.47,-1.44,2.60,0.01,-0.47,0.51,-56.41,4.64,22.41
9245,-9.47,-1.44,2.60,0.01,-0.47,0.51,-56.41,4.64,22.41
9256,-9.39,-1.50,2.65,0.13,-0.57,0.44,-56.41,4.64,22.41
9267,-9.39,-0.80,2.98,0.28,-0.62,0.37,-56.41,4.64,22.41
9278,-9.39,-0.80,2.98,0.28,-0.62,0.37,-56.41,4.64,22.41
9289,-9.85,-0.65,3.27,0.36,-0.52,0.19,-56.41,4.64,22.41
9300,-9.85,-0.65,3.27,0.36,-0.52,0.19,-56.41,4.64,22.41
9311,-9.98,-0.80,3.80,0.31,-0.33,-0.02,-56.41,4.64,22.41
9322,-9.98,-0.80,3.80,0.31,-0.33,-0.02,-56.41,4.64,22.41
9338,-9.89,-0.61,3.60,0.13,-0.09,-0.19,-56.41,4.64,22.41
9344,-9.89,-0.61,3.60,0.13,-0.09,-0.19,-56.41,4.64,22.41
9355,-10.13,-0.68,4.57,-0.03,0.28,-0.44,-54.07,5.93,22.06
9366,-10.13,-0.68,4.57,-0.03,0.28,-0.44,-54.07,5.93,22.06
9377,-9.54,-1.70,2.61,-0.17,0.78,-0.62,-54.07,5.93,22.06
9388,-9.28,-1.99,3.75,-0.33,0.95,-0.57,-54.07,5.93,22.06
9399,-9.28,-1.99,3.75,-0.33,0.95,-0.57,-54.07,5.93,22.06
9410,-9.21,-1.84,1.85,-0.41,0.95,-0.39,-54.07,5.93,22.06
9421,-9.21,-1.84,1.85,-0.41,0.95,-0.39,-54.07,5.93,22.06
9432,-9.28,-2.04,2.59,-0.42,0.71,-0.16,-54.07,5.93,22.06
9443,-9.28,-2.04,2.59,-0.42,0.71,-0.16,-54.07,5.93,22.06
9455,-9.16,-1.35,1.08,-0.48,0.50,0.07,-54.07,5.93,22.06
9465,-9.16,-1.35,1.08,-0.48,0.50,0.07,-54.07,5.93,22.06
9476,-9.14,-2.02,1.11,-0.37,0.14,0.25,-57.19,2.39,19.63
9487,-9.11,-1.11,0.71,-0.30,-0.35,0.49,-57.19,2.39,19.63
9498,-9.11,-1.11,0.71,-0.30,-0.35,0.49,-57.19,2.39,19.63
9509,-11.34,1.77,1.60,-0.19,-0.91,0.41,-57.19,2.39,19.63
9520,-11.34,1.77,1.60,-0.19,-0.91,0.41,-57.19,2.39,19.63
9531,-9.59,0.53,4.11,-0.33,-1.29,-0.30,-57.19,2.39,19.63
9542,-9.59,0.53,4.11,-0.33,-1.29,-0.30,-57.19,2.39,19.63
9553,-8.35,-3.06,3.31,-0.46,-0.97,-0.64,-57.19,2.39,19.63
9564,-8.35,-3.06,3.31,-0.46,-0.97,-0.64,-57.19,2.39,19.63
9575,-7.36,-6.04,4.03,-0.16,-0.57,-0.28,-57.19,2.39,19.63
9586,-7.36,-6.04,4.03,-0.16,-0.57,-0.28,-57.19,2.39,19.63
9597,-7.67,-5.96,3.41,0.15,-0.10,0.42,-57.19,2.39,19.63
9608,-8.47,-3.61,4.06,0.38,0.22,1.14,-57.19,2.39,19.63
9619,-8.47,-3.61,4.06,0.38,0.22,1.14,-57.19,2.39,19.63
9630,-10.91,2.08,2.94,0.05,0.33,1.40,-57.19,2.39,19.63
9641,-10.91,2.08,2.94,0.05,0.33,1.40,-57.19,2.39,19.63
9652,-10.75,2.69,4.72,-0.41,0.44,0.52,-57.19,2.39,19.63
9663,-10.75,2.69,4.72,-0.41,0.44,0.52,-57.19,2.39,19.63
9674,-9.88,2.48,1.34,-0.17,0.96,-0.44,-57.19,2.39,19.63
9685,-9.88,2.48,1.34,-0.17,0.96,-0.44,-57.19,2.39,19.63
9696,-11.85,-0.13,-0.24,0.07,0.80,-1.12,-57.19,2.39,19.63
9707,-8.83,0.58,-2.25,-0.43,-0.44,-1.27,-57.19,2.39,19.63
9718,-8.83,0.58,-2.25,-0.43,-0.44,-1.27,-57.19,2.39,19.63
9729,-7.85,-3.03,4.12,-0.40,-1.23,-1.16,-58.17,3.19,22.93
9740,-7.85,-3.03,4.12,-0.40,-1.23,-1.16,-58.17,3.19,22.93
9752,-6.04,-7.14,1.96,-0.10,-0.63,-0.27,-58.17,3.19,22.93
9762,-6.04,-7.14,1.96,-0.10,-0.63,-0.27,-58.17,3.19,22.93
9773,-7.46,-4.91,5.44,0.07,-0.37,1.10,-58.17,3.19,22.93
9784,-7.46,-4.91,5.44,0.07,-0.37,1.10,-58.17,3.19,22.93
9795,-10.71,-0.61,2.55,0.14,0.32,1.47,-58.17,3.19,22.93
9806,-10.71,-0.61,2.55,0.14,0.32,1.47,-58.17,3.19,22.93
9817,-10.76,0.68,3.29,-0.00,0.26,0.74,-58.17,3.19,22.93
9828,-9.86,-0.59,3.40,-0.17,0.17,-0.06,-58.17,3.19,22.93
9839,-9.86,-0.59,3.40,-0.17,0.17,-0.06,-58.17,3.19,22.93
9850,-9.36,-0.28,3.82,-0.36,0.06,-0.30,-54.66,4.48,23.63
9861,-9.36,-0.28,3.82,-0.36,0.06,-0.30,-54.66,4.48,23.63
9872,-9.11,-0.99,3.68,-0.40,0.10,-0.43,-54.66,4.48,23.63
9883,-9.11,-0.99,3.68,-0.40,0.10,-0.43,-54.66,4.48,23.63
9894,-9.06,-2.14,2.80,-0.39,0.23,-0.46,-54.66,4.48,23.63
9905,-9.06,-2.14,2.80,-0.39,0.23,-0.46,-54.66,4.48,23.63
9916,-8.97,-2.89,2.00,-0.28,0.25,-0.37,-54.66,4.48,23.63
9927,-9.00,-2.99,2.48,-0.12,0.17,-0.18,-54.66,4.48,23.63
9938,-9.00,-2.99,2.48,-0.12,0.17,-0.18,-54.66,4.48,23.63
9949,-9.31,-2.53,2.06,0.02,0.19,-0.01,-54.66,4.48,23.63
9960,-9.31,-2.53,2.06,0.02,0.19,-0.01,-54.66,4.48,23.63
9971,-9.69,-1.02,2.47,0.10,0.11,0.10,-55.63,3.03,24.84
9982,-9.69,-1.02,2.47,0.10,0.11,0.10,-55.63,3.03,24.84
9993,-9.56,-1.02,2.72,0.10,0.05,0.02,-55.63,3.03,24.84
10004,-9.56,-1.02,2.72,0.10,0.05,0.02,-55.63,3.03,24.84
10015,-9.14,-2.06,3.13,0.07,0.03,-0.00,-55.63,3.03,24.84
10026,-9.14,-2.06,3.13,0.07,0.03,-0.00,-55.63,3.03,24.84
10037,-8.87,-2.98,2.72,0.11,0.16,0.08,-55.63,3.03,24.84
10048,-9.32,-2.23,2.62,0.19,0.26,0.27,-55.63,3.03,24.84
10059,-9.32,-2.23,2.62,0.19,0.26,0.27,-55.63,3.03,24.84
10070,-9.92,-0.27,1.97,0.08,0.21,0.26,-55.63,3.03,24.84
10081,-9.92,-0.27,1.97,0.08,0.21,0.26,-55.63,3.03,24.84
10092,-9.87,-0.24,2.89,-0.08,0.12,0.08,-55.63,3.03,24.84
10103,-9.87,-0.24,2.89,-0.08,0.12,0.08,-55.63,3.03,24.84
10119,-9.27,-2.11,1.98,-0.20,0.15,-0.04,-57.98,4.00,22.76
10125,-9.27,-2.11,1.98,-0.20,0.15,-0.04,-57.98,4.00,22.76
10136,-9.45,-1.99,2.08,-0.20,0.04,0.16,-57.98,4.00,22.76
10147,-9.16,-2.04,1.65,-0.17,-0.15,0.37,-57.98,4.00,22.76
10158,-9.16,-2.04,1.65,-0.17,-0.15,0.37,-57.98,4.00,22.76
10169,-9.64,-0.87,2.80,-0.03,-0.38,0.55,-57.98,4.00,22.76
10180,-9.64,-0.87,2.80,-0.03,-0.38,0.55,-57.98,4.00,22.76
10191,-9.58,-1.46,2.96,0.10,-0.39,0.37,-57.98,4.00,22.76
10202,-9.58,-1.46,2.96,0.10,-0.39,0.37,-57.98,4.00,22.76
10213,-9.68,-1.17,2.97,0.17,-0.31,0.26,-57.98,4.00,22.76
10224,-9.68,-1.17,2.97,0.17,-0.31,0.26,-57.98,4.00,22.76
10235,-9.80,-0.83,2.60,0.19,-0.13,0.06,-55.05,5.44,24.32
10246,-9.80,-0.83,2.60,0.19,-0.13,0.06,-55.05,5.44,24.32
10257,-9.72,-1.17,2.55,0.11,-0.01,-0.12,-55.05,5.44,24.32
10268,-9.91,-1.12,4.06,0.01,0.17,-0.28,-55.05,5.44,24.32
10279,-9.91,-1.12,4.06,0.01,0.17,-0.28,-55.05,5.44,24.32
10290,-9.48,-2.39,2.40,-0.09,0.50,-0.37,-55.05,5.44,24.32
10301,-9.48,-2.39,2.40,-0.09,0.50,-0.37,-55.05,5.44,24.32
10312,-9.44,-1.23,2.65,-0.24,0.41,-0.11,-55.05,5.44,24.32
10323,-9.44,-1.23,2.65,-0.24,0.41,-0.11,-55.05,5.44,24.32
10334,-9.28,-1.20,1.53,-0.32,0.33,0.10,-55.05,5.44,24.32
10345,-9.28,-1.20,1.53,-0.32,0.33,0.10,-55.05,5.44,24.32
10357,-9.21,-2.23,1.96,-0.31,0.09,0.31,-57.39,4.48,22.93
10367,-9.21,-2.23,1.96,-0.31,0.09,0.31,-57.39,4.48,22.93
10378,-9.59,-0.46,1.08,-0.23,-0.30,0.57,-57.39,4.48,22.93
10389,-11.44,1.47,2.94,-0.11,-0.58,0.38,-57.39,4.48,22.93
10400,-11.44,1.47,2.94,-0.11,-0.58,0.38,-57.39,4.48,22.93
10411,-9.18,-0.58,3.73,-0.28,-0.45,-0.35,-57.39,4.48,22.93
10422,-9.18,-0.58,3.73,-0.28,-0.45,-0.35,-57.39,4.48,22.93
10433,-8.58,-2.83,3.66,-0.36,-0.03,-0.52,-57.39,4.48,22.93
10444,-8.58,-2.83,3.66,-0.36,-0.03,-0.52,-57.39,4.48,22.93
10455,-8.25,-3.94,3.16,-0.20,0.32,-0.29,-57.39,4.48,22.93
10466,-8.25,-3.94,3.16,-0.20,0.32,-0.29,-57.39,4.48,22.93
10477,-8.92,-3.34,2.08,0.12,0.49,0.08,-57.39,4.48,22.93
10488,-10.21,0.44,1.19,0.12,0.34,0.42,-57.39,4.16,21.89
10499,-10.21,0.44,1.19,0.12,0.34,0.42,-57.39,4.16,21.89
10510,-10.18,0.24,3.05,-0.12,0.15,0.17,-57.39,4.16,21.89
10521,-10.18,0.24,3.05,-0.12,0.15,0.17,-57.39,4.16,21.89
10532,-9.46,-1.51,1.54,-0.26,0.30,-0.04,-57.39,4.16,21.89
10543,-9.46,-1.51,1.54,-0.26,0.30,-0.04,-57.39,4.16,21.89
10554,-9.31,-2.36,2.19,-0.28,0.17,0.07,-57.39,4.16,21.89
10565,-9.31,-2.36,2.19,-0.28,0.17,0.07,-57.39,4.16,21.89
10576,-9.50,-1.19,2.12,-0.28,0.01,0.35,-57.39,4.16,21.89
10587,-9.50,-1.19,2.12,-0.28,0.01,0.35,-57.39,4.16,21.89
10598,-9.34,-1.20,1.93,-0.20,-0.16,0.31,-57.39,4.16,21.89
10609,-9.55,-0.51,2.18,-0.11,-0.27,0.25,-57.19,5.93,24.15
10620,-9.55,-0.51,2.18,-0.11,-0.27,0.25,-57.19,5.93,24.15
10631,-9.72,-1.54,2.47,0.12,-0.29,0.05,-57.19,5.93,24.15
10642,-9.72,-1.54,2.47,0.12,-0.29,0.05,-57.19,5.93,24.15
10653,-9.71,-0.97,2.12,0.28,-0.29,-0.01,-57.19,5.93,24.15
10664,-9.71,-0.97,2.12,0.28,-0.29,-0.01,-57.19,5.93,24.15
10675,-9.71,-0.99,2.17,0.28,-0.21,-0.11,-57.19,5.93,24.15
10686,-9.71,-0.99,2.17,0.28,-0.21,-0.11,-57.19,5.93,24.15
10697,-9.90,-0.96,3.15,0.16,-0.11,-0.14,-57.19,5.93,24.15
10708,-9.88,-1.39,3.61,0.05,0.16,-0.24,-57.19,5.93,24.15
10719,-9.88,-1.39,3.61,0.05,0.16,-0.24,-57.19,5.93,24.15
10730,-9.55,-1.53,2.51,-0.08,0.40,-0.25,-57.00,5.77,22.58
10742,-9.55,-1.53,2.51,-0.08,0.40,-0.25,-57.00,5.77,22.58
10752,-9.56,-1.10,2.55,-0.18,0.32,-0.09,-57.00,5.77,22.58
10763,-9.56,-1.10,2.55,-0.18,0.32,-0.09,-57.00,5.77,22.58
10774,-9.44,-0.99,2.09,-0.21,0.24,-0.00,-57.00,5.77,22.58
10785,-9.44,-0.99,2.09,-0.21,0.24,-0.00,-57.00,5.77,22.58
10796,-9.40,-1.18,1.88,-0.20,0.09,0.09,-57.00,5.77,22.58
10807,-9.40,-1.18,1.88,-0.20,0.09,0.09,-57.00,5.77,22.58
10818,-9.23,-1.75,2.20,-0.22,-0.17,0.22,-57.00,5.77,22.58
10829,-9.82,-0.66,3.16,-0.21,-0.35,0.34,-57.00,5.77,22.58
10840,-9.82,-0.66,3.16,-0.21,-0.35,0.34,-57.00,5.77,22.58
10851,-9.76,-1.73,2.92,-0.09,-0.23,0.11,-57.00,5.77,22.58
10862,-9.76,-1.73,2.92,-0.09,-0.23,0.11,-57.00,5.77,22.58
10873,-9.76,-1.20,2.10,-0.03,0.01,0.03,-55.24,4.64,23.10
10884,-9.76,-1.20,2.10,-0.03,0.01,0.03,-55.24,4.64,23.10
10895,-10.13,-0.59,3.38,-0.14,0.11,-0.01,-55.24,4.64,23.10
10906,-10.13,-0.59,3.38,-0.14,0.11,-0.01,-55.24,4.64,23.10
10917,-9.63,-0.99,1.70,-0.29,0.40,-0.10,-55.24,4.64,23.10
10928,-9.34,-0.85,0.54,-0.34,0.45,-0.08,-55.24,4.64,23.10
10939,-9.34,-0.85,0.54,-0.34,0.45,-0.08,-55.24,4.64,23.10
10950,-9.27,-1.93,1.26,-0.26,0.21,-0.00,-55.24,4.64,23.10
10961,-9.27,-1.93,1.26,-0.26,0.21,-0.00,-55.24,4.64,23.10
10972,-9.55,-1.48,2.25,-0.21,-0.05,0.18,-55.24,4.64,23.10
10983,-9.55,-1.48,2.25,-0.21,-0.05,0.18,-55.24,4.64,23.10
10994,-9.47,-0.60,2.27,-0.21,-0.17,0.28,-57.00,3.84,25.02
11005,-9.47,-0.60,2.27,-0.21,-0.17,0.28,-57.00,3.84,25.02
11016,-9.38,-0.45,2.52,-0.16,-0.27,0.23,-57.00,3.84,25.02
11027,-9.38,-0.45,2.52,-0.16,-0.27,0.23,-57.00,3.84,25.02
11038,-10.14,-1.06,3.62,-0.05,-0.32,0.10,-57.00,3.84,25.02
11049,-9.74,-1.95,2.08,-0.01,-0.00,-0.03,-57.00,3.84,25.02
11060,-9.74,-1.95,2.08,-0.01,-0.00,-0.03,-57.00,3.84,25.02
11071,-10.06,-1.37,2.92,-0.15,0.16,-0.01,-57.00,3.84,25.02
11082,-10.06,-1.37,2.92,-0.15,0.16,-0.01,-57.00,3.84,25.02
11093,-9.89,-0.34,2.37,-0.31,0.40,0.00,-57.00,3.84,25.02
11104,-9.89,-0.34,2.37,-0.31,0.40,0.00,-57.00,3.84,25.02
11115,-9.25,-1.15,0.10,-0.42,0.53,-0.04,-55.83,4.48,21.89
11126,-9.25,-1.15,0.10,-0.42,0.53,-0.04,-55.83,4.48,21.89
11137,-9.45,-1.35,1.88,-0.37,0.19,0.03,-55.83,4.48,21.89
11148,-9.45,-1.35,1.88,-0.37,0.19,0.03,-55.83,4.48,21.89
11159,-9.47,-0.80,1.85,-0.28,-0.02,0.14,-55.83,4.48,21.89
11170,-9.44,-0.76,1.99,-0.19,-0.23,0.21,-55.83,4.48,21.89
11181,-9.44,-0.76,1.99,-0.19,-0.23,0.21,-55.83,4.48,21.89
11192,-9.67,-1.38,2.03,-0.05,-0.33,0.13,-55.83,4.48,21.89
11203,-9.67,-1.38,2.03,-0.05,-0.33,0.13,-55.83,4.48,21.89
11214,-10.20,-1.69,3.12,0.02,-0.18,0.03,-55.83,4.48,21.89
11225,-10.20,-1.69,3.12,0.02,-0.18,0.03,-55.83,4.48,21.89
11236,-10.03,-1.67,2.68,-0.18,0.17,0.02,-55.05,5.44,22.93
11247,-10.03,-1.67,2.68,-0.18,0.17,0.02,-55.05,5.44,22.93
11258,-10.32,-0.48,2.98,-0.36,0.42,0.10,-55.05,5.44,22.93
11269,-8.98,-1.29,0.06,-0.48,0.52,0.05,-55.05,5.44,22.93
11280,-8.98,-1.29,0.06,-0.48,0.52,0.05,-55.05,5.44,22.93
11291,-9.48,-0.39,0.67,-0.64,0.02,0.23,-55.05,5.44,22.93
11302,-9.48,-0.39,0.67,-0.64,0.02,0.23,-55.05,5.44,22.93
11313,-10.69,3.25,2.17,-0.50,-0.50,0.36,-55.05,5.44,22.93
11324,-10.69,3.25,2.17,-0.50,-0.50,0.36,-55.05,5.44,22.93
11335,-11.78,3.85,1.08,-0.18,-0.81,-0.66,-55.05,5.44,22.93
11346,-11.78,3.85,1.08,-0.18,-0.81,-0.66,-55.05,5.44,22.93
11357,-8.53,-3.98,3.44,0.03,-0.91,-1.78,-55.05,5.44,22.93
11368,-8.53,-3.98,3.44,0.03,-0.91,-1.78,-55.05,5.44,22.93
11379,-7.05,-6.81,2.70,0.23,-0.30,-1.10,-55.63,3.03,24.84
11390,-9.03,-2.93,2.05,0.40,0.23,0.17,-55.63,3.03,24.84
11401,-9.03,-2.93,2.05,0.40,0.23,0.17,-55.63,3.03,24.84
11412,-9.90,-1.87,2.08,0.43,0.40,0.50,-55.63,3.03,24.84
11423,-9.90,-1.87,2.08,0.43,0.40,0.50,-55.63,3.03,24.84
11434,-9.57,-2.03,2.27,0.28,0.24,0.44,-55.63,3.03,24.84
11445,-9.57,-2.03,2.27,0.28,0.24,0.44,-55.63,3.03,24.84
11456,-9.64,-1.85,2.43,0.15,-0.01,0.37,-55.63,3.03,24.84
11467,-9.64,-1.85,2.43,0.15,-0.01,0.37,-55.63,3.03,24.84
11478,-8.88,-2.59,3.07,0.12,-0.23,0.17,-55.63,3.03,24.84
11489,-9.24,-1.59,2.52,0.20,-0.29,0.28,-56.22,3.51,24.32
11500,-9.24,-1.59,2.52,0.20,-0.29,0.28,-56.22,3.51,24.32
11511,-9.95,0.10,2.87,0.19,-0.29,0.40,-56.22,3.51,24.32
11522,-9.95,0.10,2.87,0.19,-0.29,0.40,-56.22,3.51,24.32
11533,-10.22,0.16,2.68,0.07,-0.13,0.21,-56.22,3.51,24.32
11544,-10.22,0.16,2.68,0.07,-0.13,0.21,-56.22,3.51,24.32
11555,-9.81,-0.57,2.47,-0.05,-0.02,-0.06,-56.22,3.51,24.32
11566,-9.81,-0.57,2.47,-0.05,-0.02,-0.06,-56.22,3.51,24.32
11577,-9.40,-1.41,2.32,-0.06,-0.03,-0.17,-56.22,3.51,24.32
11588,-9.40,-1.41,2.32,-0.06,-0.03,-0.17,-56.22,3.51,24.32
11599,-9.01,-2.09,2.69,0.03,-0.09,-0.12,-56.22,3.51,24.32
11610,-9.12,-2.36,2.94,0.16,-0.05,0.04,-55.83,4.80,22.93
11621,-9.12,-2.36,2.94,0.16,-0.05,0.04,-55.83,4.80,22.93
11632,-9.90,-1.36,2.62,0.18,0.04,0.22,-55.83,4.80,22.93
11643,-9.90,-1.36,2.62,0.18,0.04,0.22,-55.83,4.80,22.93
11654,-10.01,-0.68,2.80,0.01,0.08,0.27,-55.83,4.80,22.93
11665,-10.01,-0.68,2.80,0.01,0.08,0.27,-55.83,4.80,22.93
11676,-10.40,-0.34,4.35,-0.31,0.29,0.18,-55.83,4.80,22.93
11687,-10.40,-0.34,4.35,-0.31,0.29,0.18,-55.83,4.80,22.93
11698,-9.51,-0.81,1.22,-0.53,0.65,0.04,-55.83,4.80,22.93
11709,-9.38,-0.70,1.24,-0.45,0.50,0.05,-55.83,4.80,22.93
11720,-9.38,-0.70,1.24,-0.45,0.50,0.05,-55.83,4.80,22.93
11731,-9.26,-1.04,1.74,-0.25,0.24,0.02,-55.83,4.80,22.93
11742,-9.26,-1.04,1.74,-0.25,0.24,0.02,-55.83,4.80,22.93
11753,-9.58,-1.07,2.22,-0.08,0.02,0.02,-54.85,5.28,23.45
11764,-9.58,-1.07,2.22,-0.08,0.02,0.02,-54.85,5.28,23.45
11776,-9.21,-1.35,0.84,-0.02,-0.10,0.06,-54.85,5.28,23.45
11786,-9.21,-1.35,0.84,-0.02,-0.10,0.06,-54.85,5.28,23.45
11797,-9.43,-0.93,2.34,-0.06,-0.38,0.20,-54.85,5.28,23.45
11808,-9.43,-0.93,2.34,-0.06,-0.38,0.20,-54.85,5.28,23.45
11819,-10.09,-0.68,2.64,-0.16,-0.35,0.22,-54.85,5.28,23.45
11830,-10.36,-0.56,2.27,-0.22,-0.13,0.08,-54.85,5.28,23.45
11841,-10.36,-0.56,2.27,-0.22,-0.13,0.08,-54.85,5.28,23.45
11852,-10.85,-0.34,1.76,-0.22,0.05,-0.19,-54.85,5.28,23.45
11863,-10.85,-0.34,1.76,-0.22,0.05,-0.19,-54.85,5.28,23.45
11874,-8.89,-1.12,2.89,-0.31,0.01,-0.40,-56.61,4.16,25.02
11885,-8.89,-1.12,2.89,-0.31,0.01,-0.40,-56.61,4.16,25.02
11896,-8.74,-2.06,2.55,-0.26,0.08,-0.31,-56.61,4.16,25.02
11907,-8.74,-2.06,2.55,-0.26,0.08,-0.31,-56.61,4.16,25.02
11918,-8.52,-3.05,2.91,-0.10,0.14,-0.08,-56.61,4.16,25.02
11929,-9.15,-2.92,2.57,0.07,0.31,0.23,-56.61,4.16,25.02
11940,-9.15,-2.92,2.57,0.07,0.31,0.23,-56.61,4.16,25.02
11951,-10.25,-0.32,1.63,0.08,0.31,0.44,-56.61,4.16,25.02
11962,-10.25,-0.32,1.63,0.08,0.31,0.44,-56.61,4.16,25.02
11973,-10.03,0.67,2.37,-0.15,0.15,0.28,-56.61,4.16,25.02
11984,-10.03,0.67,2.37,-0.15,0.15,0.28,-56.61,4.16,25.02
11995,-9.66,-0.86,1.43,-0.29,0.13,0.05,-58.17,4.80,23.63
12006,-9.66,-0.86,1.43,-0.29,0.13,0.05,-58.17,4.80,23.63
12017,-9.38,-1.75,1.21,-0.24,-0.05,0.15,-58.17,4.80,23.63
12028,-9.38,-1.75,1.21,-0.24,-0.05,0.15,-58.17,4.80,23.63
12039,-9.55,-0.35,2.25,-0.11,-0.29,0.28,-58.17,4.80,23.63
12050,-9.83,-0.97,2.60,0.07,-0.29,0.08,-58.17,4.80,23.63
12061,-9.83,-0.97,2.60,0.07,-0.29,0.08,-58.17,4.80,23.63
12072,-9.89,-1.20,2.25,0.19,-0.17,-0.07,-58.17,4.80,23.63
12083,-9.89,-1.20,2.25,0.19,-0.17,-0.07,-58.17,4.80,23.63
12094,-9.86,-0.76,2.04,0.13,-0.05,-0.09,-58.17,4.80,23.63
12105,-9.86,-0.76,2.04,0.13,-0.05,-0.09,-58.17,4.80,23.63
12116,-10.12,-0.58,3.20,-0.03,0.10,-0.15,-58.17,4.80,23.63
12127,-10.12,-0.58,3.20,-0.03,0.10,-0.15,-58.17,4.80,23.63
12138,-9.76,-1.21,2.36,-0.12,0.34,-0.23,-55.44,4.80,24.67
12149,-9.52,-1.11,1.38,-0.15,0.36,-0.13,-55.44,4.80,24.67
12160,-9.52,-1.11,1.38,-0.15,0.36,-0.13,-55.44,4.80,24.67
12171,-9.62,-0.98,1.83,-0.19,0.25,-0.00,-55.44,4.80,24.67
12182,-9.62,-0.98,1.83,-0.19,0.25,-0.00,-55.44,4.80,24.67
12193,-9.53,-0.87,1.95,-0.21,0.16,0.08,-55.44,4.80,24.67
12204,-9.53,-0.87,1.95,-0.21,0.16,0.08,-55.44,4.80,24.67
12215,-9.44,-1.05,1.53,-0.23,0.03,0.12,-55.44,4.80,24.67
12226,-9.44,-1.05,1.53,-0.23,0.03,0.12,-55.44,4.80,24.67
12237,-9.54,-0.69,2.11,-0.27,-0.20,0.24,-55.44,4.80,24.67
12248,-9.54,-0.69,2.11,-0.27,-0.20,0.24,-55.44,4.80,24.67
12259,-9.87,-0.67,2.47,-0.16,-0.37,0.22,-55.24,4.96,23.45
12270,-10.21,-1.53,3.20,-0.04,-0.37,0.07,-55.24,4.96,23.45
12281,-10.21,-1.53,3.20,-0.04,-0.37,0.07,-55.24,4.96,23.45
12292,-9.81,-1.52,1.55,-0.04,-0.01,-0.01,-55.24,4.96,23.45
12303,-9.81,-1.52,1.55,-0.04,-0.01,-0.01,-55.24,4.96,23.45
12314,-10.38,-0.39,4.08,-0.20,0.20,0.02,-55.24,4.96,23.45
12325,-10.38,-0.39,4.08,-0.20,0.20,0.02,-55.24,4.96,23.45
12336,-9.59,-0.92,1.41,-0.32,0.56,-0.05,-55.24,4.96,23.45
12347,-9.59,-0.92,1.41,-0.32,0.56,-0.05,-55.24,4.96,23.45
12358,-9.32,-1.66,1.24,-0.32,0.43,-0.03,-55.24,4.96,23.45
12369,-9.32,-1.66,1.24,-0.32,0.43,-0.03,-55.24,4.96,23.45
12380,-9.30,-1.08,1.15,-0.22,0.22,0.03,-55.83,4.16,24.32
12391,-9.48,-0.74,1.52,-0.08,-0.04,0.01,-55.83,4.16,24.32
12402,-9.48,-0.74,1.52,-0.08,-0.04,0.01,-55.83,4.16,24.32
12413,-9.65,-0.63,1.88,-0.06,-0.27,0.05,-55.83,4.16,24.32
12424,-9.65,-0.63,1.88,-0.06,-0.27,0.05,-55.83,4.16,24.32
12435,-9.94,-0.64,2.32,-0.04,-0.41,0.12,-55.83,4.16,24.32
12446,-9.94,-0.64,2.32,-0.04,-0.41,0.12,-55.83,4.16,24.32
12457,-10.26,-1.07,3.08,-0.14,-0.23,0.12,-55.83,4.16,24.32
12469,-10.26,-1.07,3.08,-0.14,-0.23,0.12,-55.83,4.16,24.32
12479,-9.99,-2.14,2.45,-0.29,0.22,0.08,-55.83,4.16,24.32
12490,-9.76,-0.69,2.51,-0.36,0.45,0.16,-55.83,4.16,24.32
12501,-9.76,-0.69,2.51,-0.36,0.45,0.16,-55.83,4.16,24.32
12512,-9.67,-0.19,1.24,-0.39,0.41,0.13,-55.05,2.87,24.32
12523,-9.67,-0.19,1.24,-0.39,0.41,0.13,-55.05,2.87,24.32
12534,-9.54,-0.55,1.55,-0.36,0.15,0.10,-55.05,2.87,24.32
12545,-9.54,-0.55,1.55,-0.36,0.15,0.10,-55.05,2.87,24.32
12556,-9.52,0.04,0.79,-0.30,-0.18,0.15,-55.05,2.87,24.32
12567,-9.52,0.04,0.79,-0.30,-0.18,0.15,-55.05,2.87,24.32
12578,-10.47,1.02,1.42,-0.12,-0.54,-0.02,-55.05,2.87,24.32
12589,-10.47,1.02,1.42,-0.12,-0.54,-0.02,-55.05,2.87,24.32
12600,-10.25,-0.54,1.57,-0.04,-0.67,-0.53,-55.05,2.87,24.32
12611,-9.32,-3.27,3.75,-0.12,-0.42,-0.50,-55.05,2.87,24.32
12622,-9.32,-3.27,3.75,-0.12,-0.42,-0.50,-55.05,2.87,24.32
12633,-9.25,-2.95,2.41,-0.23,0.18,-0.11,-55.05,3.19,25.02
12644,-9.25,-2.95,2.41,-0.23,0.18,-0.11,-55.05,3.19,25.02
12655,-9.16,-1.97,1.98,-0.17,0.36,0.10,-55.05,3.19,25.02
12666,-9.16,-1.97,1.98,-0.17,0.36,0.10,-55.05,3.19,25.02
12677,-9.58,-0.80,2.11,-0.08,0.26,0.24,-55.05,3.19,25.02
12688,-9.58,-0.80,2.11,-0.08,0.26,0.24,-55.05,3.19,25.02
12699,-9.98,-0.10,1.64,-0.05,0.15,0.23,-55.05,3.19,25.02
12710,-9.80,-1.03,1.87,-0.03,0.05,0.10,-55.05,3.19,25.02
12721,-9.80,-1.03,1.87,-0.03,0.05,0.10,-55.05,3.19,25.02
12732,-9.58,-2.22,2.35,-0.02,0.09,0.09,-55.05,3.19,25.02
12743,-9.58,-2.22,2.35,-0.02,0.09,0.09,-55.05,3.19,25.02
12754,-9.95,-1.19,0.98,-0.05,0.29,0.24,-55.63,4.32,24.84
12765,-9.95,-1.19,0.98,-0.05,0.29,0.24,-55.63,4.32,24.84
12776,-9.99,0.72,2.21,-0.14,0.17,0.33,-55.63,4.32,24.84
12787,-9.99,0.72,2.21,-0.14,0.17,0.33,-55.63,4.32,24.84
12798,-9.69,-0.39,1.74,-0.20,0.14,0.09,-55.63,4.32,24.84
12809,-9.69,-0.39,1.74,-0.20,0.14,0.09,-55.63,4.32,24.84
12820,-9.33,-1.81,1.13,-0.25,0.03,0.12,-55.63,4.32,24.84
12831,-9.67,-0.67,1.81,-0.27,-0.20,0.31,-55.63,4.32,24.84
12842,-9.67,-0.67,1.81,-0.27,-0.20,0.31,-55.63,4.32,24.84
12853,-9.48,-0.58,1.32,-0.08,-0.29,0.19,-55.63,4.32,24.84
12864,-9.48,-0.58,1.32,-0.08,-0.29,0.19,-55.63,4.32,24.84
12875,-9.77,-0.76,1.62,0.19,-0.39,0.01,-55.05,5.44,26.06
12886,-9.77,-0.76,1.62,0.19,-0.39,0.01,-55.05,5.44,26.06
12897,-9.97,-1.19,2.38,0.38,-0.31,-0.15,-55.05,5.44,26.06
12908,-9.97,-1.19,2.38,0.38,-0.31,-0.15,-55.05,5.44,26.06
12919,-10.14,-0.54,2.93,0.23,-0.08,-0.15,-55.05,5.44,26.06
12930,-10.04,-1.02,2.53,0.01,0.23,-0.23,-55.05,5.44,26.06
12941,-10.04,-1.02,2.53,0.01,0.23,-0.23,-55.05,5.44,26.06
12952,-9.79,-0.85,1.52,-0.13,0.40,-0.19,-55.05,5.44,26.06
12963,-9.79,-0.85,1.52,-0.13,0.40,-0.19,-55.05,5.44,26.06
12974,-9.57,-1.14,1.56,-0.17,0.34,-0.10,-55.05,5.44,26.06
12985,-9.57,-1.14,1.56,-0.17,0.34,-0.10,-55.05,5.44,26.06
12996,-9.48,-0.78,1.27,-0.13,0.20,-0.00,-55.05,5.44,26.06
13007,-9.48,-0.78,1.27,-0.13,0.20,-0.00,-55.05,5.44,26.06
13018,-9.72,-0.51,1.98,-0.10,-0.01,0.06,-55.24,2.39,24.15
13029,-9.72,-0.51,1.98,-0.10,-0.01,0.06,-55.24,2.39,24.15
13040,-9.43,-1.17,1.48,-0.15,-0.15,0.14,-55.24,2.39,24.15
13051,-10.04,-0.84,2.51,-0.16,-0.31,0.23,-55.24,2.39,24.15
13062,-10.04,-0.84,2.51,-0.16,-0.31,0.23,-55.24,2.39,24.15
13073,-9.96,-1.06,1.96,-0.12,-0.11,0.12,-55.24,2.39,24.15
13084,-9.96,-1.06,1.96,-0.12,-0.11,0.12,-55.24,2.39,24.15
13095,-9.90,-0.86,1.98,-0.07,0.07,0.03,-55.24,2.39,24.15
13106,-9.90,-0.86,1.98,-0.07,0.07,0.03,-55.24,2.39,24.15
13118,-9.98,0.04,2.22,-0.12,0.20,0.01,-55.24,2.39,24.15
13128,-9.98,0.04,2.22,-0.12,0.20,0.01,-55.24,2.39,24.15
13139,-9.70,-0.54,0.93,-0.20,0.29,-0.06,-54.46,4.00,25.19
13150,-9.70,-0.54,0.93,-0.20,0.29,-0.06,-54.46,4.00,25.19
13161,-9.74,-1.43,0.59,-0.20,0.18,-0.02,-54.46,4.00,25.19
13172,-9.38,-1.24,1.33,-0.15,-0.04,0.18,-54.46,4.00,25.19
13183,-9.38,-1.24,1.33,-0.15,-0.04,0.18,-54.46,4.00,25.19
13194,-9.84,0.37,1.77,-0.17,-0.24,0.26,-54.46,4.00,25.19
13205,-9.84,0.37,1.77,-0.17,-0.24,0.26,-54.46,4.00,25.19
13216,-9.85,-0.64,2.15,-0.08,-0.27,0.08,-54.46,4.00,25.19
13227,-9.85,-0.64,2.15,-0.08,-0.27,0.08,-54.46,4.00,25.19
13238,-10.05,-1.61,2.66,0.02,-0.17,-0.03,-54.46,4.00,25.19
13249,-10.05,-1.61,2.66,0.02,-0.17,-0.03,-54.46,4.00,25.19
13260,-9.92,-1.15,2.07,-0.05,0.05,0.01,-55.24,4.32,22.41
13271,-10.10,-0.15,2.58,-0.20,0.21,0.06,-55.24,4.32,22.41
13282,-10.10,-0.15,2.58,-0.20,0.21,0.06,-55.24,4.32,22.41
13293,-9.84,-0.22,1.53,-0.31,0.41,0.00,-55.24,4.32,22.41
13304,-9.84,-0.22,1.53,-0.31,0.41,0.00,-55.24,4.32,22.41
13315,-9.45,-2.19,2.61,-0.32,0.34,-0.02,-55.24,4.32,22.41
13326,-9.45,-2.19,2.61,-0.32,0.34,-0.02,-55.24,4.32,22.41
13337,-9.65,-0.62,1.23,-0.30,0.13,0.10,-55.24,4.32,22.41
13348,-9.65,-0.62,1.23,-0.30,0.13,0.10,-55.24,4.32,22.41
13359,-9.37,-0.69,1.30,-0.27,-0.14,0.15,-55.24,4.32,22.41
13370,-9.37,-0.69,1.30,-0.27,-0.14,0.15,-55.24,4.32,22.41
13381,-9.67,0.28,2.04,-0.28,-0.29,0.17,-55.24,4.32,22.41
13392,-9.32,-0.76,0.81,-0.10,-0.38,-0.01,-54.07,4.64,24.15
13403,-9.32,-0.76,0.81,-0.10,-0.38,-0.01,-54.07,4.64,24.15
13414,-9.64,-2.03,1.90,0.15,-0.60,-0.05,-54.07,4.64,24.15
13430,-9.64,-2.03,1.90,0.15,-0.60,-0.05,-54.07,4.64,24.15
13436,-10.20,-1.16,2.59,0.17,-0.39,0.07,-54.07,4.64,24.15
13447,-10.20,-1.16,2.59,0.17,-0.39,0.07,-54.07,4.64,24.15
13458,-9.97,-0.84,1.75,0.00,-0.07,0.11,-54.07,4.64,24.15
13469,-9.97,-0.84,1.75,0.00,-0.07,0.11,-54.07,4.64,24.15
13480,-10.46,-0.04,3.10,-0.17,0.08,0.11,-54.07,4.64,24.15
13491,-10.12,0.04,2.58,-0.29,0.51,-0.01,-54.07,4.64,24.15
13502,-10.12,0.04,2.58,-0.29,0.51,-0.01,-54.07,4.64,24.15
13513,-9.41,-0.96,1.34,-0.30,0.70,-0.05,-54.66,4.48,24.67
13524,-9.41,-0.96,1.34,-0.30,0.70,-0.05,-54.66,4.48,24.67
13535,-9.59,-1.66,3.54,-0.28,0.51,0.04,-54.66,4.48,24.67
13546,-9.59,-1.66,3.54,-0.28,0.51,0.04,-54.66,4.48,24.67
13557,-9.39,0.58,0.22,-0.45,0.41,0.18,-54.66,4.48,24.67
13568,-9.39,0.58,0.22,-0.45,0.41,0.18,-54.66,4.48,24.67
13579,-9.49,-0.32,0.02,-0.49,-0.03,0.15,-54.66,4.48,24.67
13590,-9.49,-0.32,0.02,-0.49,-0.03,0.15,-54.66,4.48,24.67
13601,-10.66,0.99,0.92,-0.35,-0.56,0.11,-54.66,4.48,24.67
13612,-10.47,0.22,1.58,-0.05,-0.84,-0.44,-54.66,4.48,24.67
13623,-10.47,0.22,1.58,-0.05,-0.84,-0.44,-54.66,4.48,24.67
13634,-8.79,-3.86,3.49,0.19,-0.56,-0.81,-53.88,3.19,25.02
13645,-8.79,-3.86,3.49,0.19,-0.56,-0.81,-53.88,3.19,25.02
13656,-8.35,-4.50,1.85,0.45,0.08,-0.42,-53.88,3.19,25.02
13667,-8.35,-4.50,1.85,0.45,0.08,-0.42,-53.88,3.19,25.02
13678,-8.84,-2.83,2.07,0.65,0.26,0.18,-53.88,3.19,25.02
13689,-8.84,-2.83,2.07,0.65,0.26,0.18,-53.88,3.19,25.02
13700,-11.14,0.84,1.67,0.51,0.19,0.68,-53.88,3.19,25.02
13711,-10.40,3.07,3.44,0.04,-0.01,0.52,-53.88,3.19,25.02
13722,-10.40,3.07,3.44,0.04,-0.01,0.52,-53.88,3.19,25.02
13733,-10.01,0.65,2.62,-0.38,0.12,0.13,-53.88,3.19,25.02
13744,-10.01,0.65,2.62,-0.38,0.12,0.13,-53.88,3.19,25.02
13755,-9.98,0.69,0.73,-0.50,0.08,0.12,-53.88,3.19,25.02
13766,-9.98,0.69,0.73,-0.50,0.08,0.12,-53.88,3.19,25.02
13777,-10.81,-0.09,0.40,-0.31,-0.13,-0.10,-55.05,4.16,25.71
13788,-10.81,-0.09,0.40,-0.31,-0.13,-0.10,-55.05,4.16,25.71
13799,-9.78,-0.55,0.95,-0.04,-0.32,-0.59,-55.05,4.16,25.71
13815,-9.78,-0.55,0.95,-0.04,-0.32,-0.59,-55.05,4.16,25.71
13821,-9.30,-1.89,1.71,0.28,-0.37,-0.82,-55.05,4.16,25.71
13832,-8.87,-2.10,1.64,0.66,-0.42,-0.80,-55.05,4.16,25.71
13843,-8.87,-2.10,1.64,0.66,-0.42,-0.80,-55.05,4.16,25.71
13854,-8.16,-4.77,3.83,1.00,-0.37,-0.64,-55.05,4.16,25.71
13865,-8.16,-4.77,3.83,1.00,-0.37,-0.64,-55.05,4.16,25.71
13876,-7.69,-4.41,2.44,0.98,0.12,0.32,-55.05,4.16,25.71
13888,-7.69,-4.41,2.44,0.98,0.12,0.32,-55.05,4.16,25.71
13898,-11.49,3.79,-0.42,0.86,0.20,1.14,-54.66,4.48,24.32
13909,-11.49,3.79,-0.42,0.86,0.20,1.14,-54.66,4.48,24.32
13920,-10.61,4.88,3.34,0.30,-0.10,0.63,-54.66,4.48,24.32
13931,-11.39,3.42,2.65,-0.07,0.14,-0.16,-54.66,4.48,24.32
13942,-11.39,3.42,2.65,-0.07,0.14,-0.16,-54.66,4.48,24.32
13953,-11.31,3.44,1.07,-0.36,0.09,-0.64,-54.66,4.48,24.32
13964,-11.31,3.44,1.07,-0.36,0.09,-0.64,-54.66,4.48,24.32
13975,-7.77,-2.74,3.30,-0.56,-0.12,-1.01,-54.66,4.48,24.32
13986,-7.77,-2.74,3.30,-0.56,-0.12,-1.01,-54.66,4.48,24.32
13997,-8.59,-2.44,2.14,-0.32,0.00,-0.32,-54.66,4.48,24.32
14008,-8.59,-2.44,2.14,-0.32,0.00,-0.32,-54.66,4.48,24.32
14019,-8.93,-3.41,2.23,-0.02,0.08,-0.01,-53.68,3.67,26.23
14030,-8.93,-3.41,2.23,-0.02,0.08,-0.01,-53.68,3.67,26.23
14041,-9.03,-4.45,1.91,0.05,0.12,0.07,-53.68,3.67,26.23
14052,-9.74,-3.56,1.75,0.07,0.07,0.19,-53.68,3.67,26.23
14063,-9.74,-3.56,1.75,0.07,0.07,0.19,-53.68,3.67,26.23
14074,-9.21,-3.14,1.43,0.14,0.04,0.21,-53.68,3.67,26.23
14085,-9.21,-3.14,1.43,0.14,0.04,0.21,-53.68,3.67,26.23
14096,-10.42,0.40,1.85,0.21,-0.00,0.39,-53.68,3.67,26.23
14107,-10.42,0.40,1.85,0.21,-0.00,0.39,-53.68,3.67,26.23
14118,-9.86,1.35,2.65,0.10,-0.07,0.26,-53.68,3.67,26.23
14129,-9.86,1.35,2.65,0.10,-0.07,0.26,-53.68,3.67,26.23
14140,-10.12,1.37,2.66,-0.10,-0.06,0.11,-53.68,3.67,26.23
14151,-9.20,-1.33,2.72,-0.24,-0.01,-0.07,-53.68,3.67,26.23
14162,-9.20,-1.33,2.72,-0.24,-0.01,-0.07,-54.46,4.00,25.19
14173,-9.67,-2.48,1.72,-0.17,0.14,0.07,-54.46,4.00,25.19
14184,-9.67,-2.48,1.72,-0.17,0.14,0.07,-54.46,4.00,25.19
14195,-9.29,-2.82,1.38,0.01,0.14,0.22,-54.46,4.00,25.19
14206,-9.29,-2.82,1.38,0.01,0.14,0.22,-54.46,4.00,25.19
14217,-10.13,0.97,1.58,0.13,-0.03,0.47,-54.46,4.00,25.19
14228,-10.13,0.97,1.58,0.13,-0.03,0.47,-54.46,4.00,25.19
14239,-10.17,1.41,2.37,0.15,-0.12,0.17,-54.46,4.00,25.19
14250,-10.17,1.41,2.37,0.15,-0.12,0.17,-54.46,4.00,25.19
14261,-10.39,0.99,3.37,0.04,0.00,-0.18,-54.46,4.00,25.19
14273,-9.69,-1.22,1.61,-0.10,0.37,-0.43,-54.27,5.12,25.71
14283,-9.69,-1.22,1.61,-0.10,0.37,-0.43,-54.27,5.12,25.71
14294,-9.74,-1.02,2.05,-0.24,0.41,-0.23,-54.27,5.12,25.71
14305,-9.74,-1.02,2.05,-0.24,0.41,-0.23,-54.27,5.12,25.71
14316,-9.69,-1.37,2.17,-0.33,0.37,-0.05,-54.27,5.12,25.71
14327,-9.69,-1.37,2.17,-0.33,0.37,-0.05,-54.27,5.12,25.71
14338,-9.63,-1.20,1.08,-0.33,0.29,0.11,-54.27,5.12,25.71
14349,-9.63,-1.20,1.08,-0.33,0.29,0.11,-54.27,5.12,25.71
14360,-9.63,-0.81,1.03,-0.14,0.17,0.11,-54.27,5.12,25.71
14371,-9.63,-0.81,1.03,-0.14,0.17,0.11,-54.27,5.12,25.71
14382,-9.74,0.15,1.55,0.08,0.04,0.02,-54.27,5.12,25.71
14393,-9.63,-0.04,1.47,0.14,-0.06,-0.14,-54.46,3.35,23.80
14404,-9.63,-0.04,1.47,0.14,-0.06,-0.14,-54.46,3.35,23.80
14415,-9.58,-1.33,2.11,-0.00,-0.19,-0.13,-54.46,3.35,23.80
14426,-9.58,-1.33,2.11,-0.00,-0.19,-0.13,-54.46,3.35,23.80
14442,-9.82,-0.44,1.91,-0.26,-0.18,0.14,-54.46,3.35,23.80
14448,-9.82,-0.44,1.91,-0.26,-0.18,0.14,-54.46,3.35,23.80
14459,-9.67,-0.59,1.83,-0.30,-0.19,0.23,-54.46,3.35,23.80
14470,-9.67,-0.59,1.83,-0.30,-0.19,0.23,-54.46,3.35,23.80
14481,-9.85,-0.59,1.69,-0.27,-0.26,0.25,-54.46,3.35,23.80
14492,-10.10,-1.20,2.09,-0.11,-0.24,0.15,-54.46,3.35,23.80
14503,-10.10,-1.20,2.09,-0.11,-0.24,0.15,-54.46,3.35,23.80
14514,-9.80,-1.87,1.44,0.01,-0.01,0.05,-54.46,3.67,25.54
14525,-9.80,-1.87,1.44,0.01,-0.01,0.05,-54.46,3.67,25.54
14536,-10.30,0.11,3.32,-0.10,0.14,0.13,-54.46,3.67,25.54
14547,-10.30,0.11,3.32,-0.10,0.14,0.13,-54.46,3.67,25.54
14558,-9.62,-0.05,1.21,-0.29,0.50,0.05,-54.46,3.67,25.54
14569,-9.62,-0.05,1.21,-0.29,0.50,0.05,-54.46,3.67,25.54
14580,-9.71,-0.38,1.95,-0.34,0.41,0.04,-54.46,3.67,25.54
14591,-9.71,-0.38,1.95,-0.34,0.41,0.04,-54.46,3.67,25.54
14602,-9.59,-0.61,1.16,-0.29,0.21,0.05,-54.46,3.67,25.54
14613,-9.23,-1.08,0.48,-0.20,-0.08,0.13,-54.46,3.67,25.54
14624,-9.23,-1.08,0.48,-0.20,-0.08,0.13,-54.46,3.67,25.54
14635,-9.64,0.24,2.66,-0.11,-0.38,0.21,-54.46,3.67,25.54
14646,-9.64,0.24,2.66,-0.11,-0.38,0.21,-54.46,3.67,25.54
14657,-9.71,-0.91,1.78,-0.00,-0.38,0.01,-55.83,4.80,26.06
14668,-9.71,-0.91,1.78,-0.00,-0.38,0.01,-55.83,4.80,26.06
14679,-10.24,-1.11,3.13,0.01,-0.31,-0.03,-55.83,4.80,26.06
14690,-10.24,-1.11,3.13,0.01,-0.31,-0.03,-55.83,4.80,26.06
14701,-10.06,-0.92,2.14,-0.12,0.06,-0.01,-55.83,4.80,26.06
14712,-10.14,0.08,2.74,-0.28,0.31,0.03,-55.83,4.80,26.06
14723,-10.14,0.08,2.74,-0.28,0.31,0.03,-55.83,4.80,26.06
14734,-9.57,-0.58,0.73,-0.35,0.47,-0.02,-55.83,4.80,26.06
14745,-9.57,-0.58,0.73,-0.35,0.47,-0.02,-55.83,4.80,26.06
14756,-9.48,-0.57,0.88,-0.32,0.26,0.04,-55.83,4.80,26.06
14767,-9.48,-0.57,0.88,-0.32,0.26,0.04,-55.83,4.80,26.06
14778,-9.46,-0.75,1.28,-0.23,0.02,0.10,-54.66,5.12,24.67
14789,-9.46,-0.75,1.28,-0.23,0.02,0.10,-54.66,5.12,24.67
14800,-9.49,-0.44,1.47,-0.18,-0.21,0.15,-54.66,5.12,24.67
14811,-9.49,-0.44,1.47,-0.18,-0.21,0.15,-54.66,5.12,24.67
14822,-9.98,-0.09,2.07,-0.05,-0.35,0.06,-54.66,5.12,24.67
14833,-9.98,-1.68,2.26,0.05,-0.27,-0.10,-54.66,5.12,24.67
14844,-9.98,-1.68,2.26,0.05,-0.27,-0.10,-54.66,5.12,24.67
14855,-9.98,-1.35,1.83,-0.02,-0.02,-0.01,-54.66,5.12,24.67
14866,-9.98,-1.35,1.83,-0.02,-0.02,-0.01,-54.66,5.12,24.67
14877,-10.27,-0.26,3.03,-0.17,0.19,0.11,-54.66,5.12,24.67
14888,-10.27,-0.26,3.03,-0.17,0.19,0.11,-54.66,5.12,24.67
14899,-9.84,0.19,1.56,-0.30,0.44,0.11,-54.66,3.19,26.06
14910,-9.84,0.19,1.56,-0.30,0.44,0.11,-54.66,3.19,26.06
14921,-9.67,-0.15,1.54,-0.27,0.35,0.06,-54.66,3.19,26.06
14932,-9.71,-0.47,1.39,-0.12,0.15,-0.03,-54.66,3.19,26.06
14943,-9.71,-0.47,1.39,-0.12,0.15,-0.03,-54.66,3.19,26.06
14954,-9.61,-0.19,0.92,0.05,-0.02,-0.10,-54.66,3.19,26.06
14965,-9.61,-0.19,0.92,0.05,-0.02,-0.10,-54.66,3.19,26.06
14976,-9.84,-0.69,2.00,0.14,-0.27,-0.18,-54.66,3.19,26.06
14987,-9.84,-0.69,2.00,0.14,-0.27,-0.18,-54.66,3.19,26.06
14998,-9.64,-1.24,1.49,0.17,-0.38,-0.13,-54.66,3.19,26.06
15009,-9.64,-1.24,1.49,0.17,-0.38,-0.13,-54.66,3.19,26.06
15020,-10.02,-0.86,2.70,0.14,-0.42,0.08,-54.66,3.19,26.06
15031,-10.02,-0.86,2.70,0.14,-0.42,0.08,-54.66,3.19,26.06
15042,-9.74,-1.29,2.03,-0.13,-0.16,0.24,-54.66,4.16,25.71
15053,-10.57,2.21,2.53,-0.30,-0.09,0.46,-54.66,4.16,25.71
15064,-10.57,2.21,2.53,-0.30,-0.09,0.46,-54.66,4.16,25.71
15075,-12.81,4.40,0.70,-0.21,0.00,-0.04,-54.66,4.16,25.71
15086,-12.81,4.40,0.70,-0.21,0.00,-0.04,-54.66,4.16,25.71
15097,-9.63,2.74,3.77,-0.38,-0.28,-0.98,-54.66,4.16,25.71
15113,-9.63,2.74,3.77,-0.38,-0.28,-0.98,-54.66,4.16,25.71
15119,-8.13,-1.86,2.57,-0.39,-0.07,-1.25,-54.66,4.16,25.71
15130,-8.13,-1.86,2.57,-0.39,-0.07,-1.25,-54.66,4.16,25.71
15141,-9.55,0.31,2.04,-0.04,0.02,-0.71,-54.66,4.16,25.71
15152,-9.55,0.31,2.04,-0.04,0.02,-0.71,-54.66,4.16,25.71
15163,-9.11,-3.08,1.18,0.40,0.13,-0.93,-53.68,1.74,27.27
15174,-8.06,-6.01,1.31,0.71,0.16,-0.80,-53.68,1.74,27.27
15185,-8.06,-6.01,1.31,0.71,0.16,-0.80,-53.68,1.74,27.27
15196,-9.03,-5.88,1.07,0.80,0.15,-0.22,-53.68,1.74,27.27
15207,-9.03,-5.88,1.07,0.80,0.15,-0.22,-53.68,1.74,27.27
15218,-9.57,-3.76,1.95,0.70,-0.01,0.14,-53.68,1.74,27.27
15229,-9.57,-3.76,1.95,0.70,-0.01,0.14,-53.68,1.74,27.27
15240,-9.11,-2.70,1.68,0.76,-0.07,0.18,-53.68,1.74,27.27
15251,-9.11,-2.70,1.68,0.76,-0.07,0.18,-53.68,1.74,27.27
15262,-10.02,0.45,2.85,0.71,-0.17,0.37,-53.68,1.74,27.27
15273,-9.98,1.07,2.64,0.41,-0.11,0.32,-55.05,3.19,24.67
15284,-9.98,1.07,2.64,0.41,-0.11,0.32,-55.05,3.19,24.67
15295,-10.65,2.30,2.09,0.10,-0.12,0.23,-55.05,3.19,24.67
15307,-10.65,2.30,2.09,0.10,-0.12,0.23,-55.05,3.19,24.67
15317,-9.86,-0.21,1.94,-0.06,-0.24,-0.26,-55.05,3.19,24.67
15328,-9.86,-0.21,1.94,-0.06,-0.24,-0.26,-55.05,3.19,24.67
15339,-9.38,-1.88,1.85,-0.06,-0.33,-0.35,-55.05,3.19,24.67
15350,-9.38,-1.88,1.85,-0.06,-0.33,-0.35,-55.05,3.19,24.67
15361,-8.94,-3.19,2.55,0.04,-0.34,-0.22,-55.05,3.19,24.67
15372,-8.94,-3.19,2.55,0.04,-0.34,-0.22,-55.05,3.19,24.67
15383,-8.88,-3.24,2.33,0.17,-0.18,0.08,-55.05,3.19,24.67
15394,-9.30,-1.87,2.33,0.31,-0.08,0.43,-55.05,3.19,24.67
15405,-9.30,-1.87,2.33,0.31,-0.08,0.43,-55.05,3.19,24.67
15416,-11.14,0.59,2.06,0.36,-0.02,0.58,-53.88,3.51,26.41
15427,-11.14,0.59,2.06,0.36,-0.02,0.58,-53.88,3.51,26.41
15438,-10.20,1.21,2.80,0.13,-0.02,0.32,-53.88,3.51,26.41
15449,-10.20,1.21,2.80,0.13,-0.02,0.32,-53.88,3.51,26.41
15460,-10.55,-0.70,4.52,-0.19,0.15,-0.05,-53.88,3.51,26.41
15471,-10.55,-0.70,4.52,-0.19,0.15,-0.05,-53.88,3.51,26.41
15482,-9.88,-1.24,2.55,-0.53,0.72,-0.07,-53.88,3.51,26.41
15498,-9.29,-1.47,0.96,-0.66,0.95,0.01,-53.88,3.51,26.41
15504,-9.29,-1.47,0.96,-0.66,0.95,0.01,-53.88,3.51,26.41
15515,-9.47,-0.56,1.90,-0.54,0.65,0.13,-53.88,3.51,26.41
15526,-9.47,-0.56,1.90,-0.54,0.65,0.13,-53.88,3.51,26.41
15537,-9.31,-0.04,1.35,-0.39,0.39,0.13,-54.27,3.51,25.71
15548,-9.31,-0.04,1.35,-0.39,0.39,0.13,-54.27,3.51,25.71
15559,-9.69,-0.90,1.32,-0.29,0.12,0.07,-54.27,3.51,25.71
15570,-9.69,-0.90,1.32,-0.29,0.12,0.07,-54.27,3.51,25.71
15581,-9.36,-0.48,0.51,-0.20,-0.26,0.21,-54.27,3.51,25.71
15592,-9.36,-0.48,0.51,-0.20,-0.26,0.21,-54.27,3.51,25.71
15603,-9.96,-0.68,1.79,0.02,-0.57,0.16,-54.27,3.51,25.71
15614,-10.30,-1.86,2.99,0.13,-0.43,-0.03,-54.27,3.51,25.71
15625,-10.30,-1.86,2.99,0.13,-0.43,-0.03,-54.27,3.51,25.71
15636,-10.00,-1.08,2.01,0.05,-0.04,-0.01,-54.27,3.51,25.71
15647,-10.00,-1.08,2.01,0.05,-0.04,-0.01,-54.27,3.51,25.71
15658,-10.31,-0.02,3.78,-0.17,0.27,-0.01,-54.07,4.00,25.19
15669,-10.31,-0.02,3.78,-0.17,0.27,-0.01,-54.07,4.00,25.19
15680,-9.18,-1.45,0.33,-0.29,0.63,-0.12,-54.07,4.00,25.19
15692,-9.18,-1.45,0.33,-0.29,0.63,-0.12,-54.07,4.00,25.19
15702,-9.50,-1.09,1.04,-0.25,0.35,0.05,-54.07,4.00,25.19
15713,-9.65,-0.40,1.58,-0.17,0.12,0.12,-54.07,4.00,25.19
15724,-9.65,-0.40,1.58,-0.17,0.12,0.12,-54.07,4.00,25.19
15735,-9.73,-0.51,1.45,-0.11,-0.04,0.10,-54.07,4.00,25.19
15746,-9.73,-0.51,1.45,-0.11,-0.04,0.10,-54.07,4.00,25.19
15757,-9.73,-0.37,1.70,-0.10,-0.19,0.14,-54.07,4.00,25.19
15768,-9.73,-0.37,1.70,-0.10,-0.19,0.14,-54.07,4.00,25.19
15779,-9.60,-0.28,1.55,-0.08,-0.37,0.13,-54.07,4.00,25.19
15790,-9.60,-0.28,1.55,-0.08,-0.37,0.13,-54.07,4.00,25.19
15801,-9.98,-1.22,2.50,0.06,-0.49,0.02,-54.46,3.03,25.19
15812,-9.98,-1.22,2.50,0.06,-0.49,0.02,-54.46,3.03,25.19
15823,-10.25,-1.41,3.10,0.01,-0.22,0.02,-54.46,3.03,25.19
15834,-10.14,-1.58,2.36,-0.16,0.16,0.12,-54.46,3.03,25.19
15845,-10.14,-1.58,2.36,-0.16,0.16,0.12,-54.46,3.03,25.19
15856,-10.24,0.05,2.62,-0.35,0.43,0.27,-54.46,3.03,25.19
15867,-10.24,0.05,2.62,-0.35,0.43,0.27,-54.46,3.03,25.19
15878,-9.50,-0.43,0.06,-0.37,0.66,0.21,-54.46,3.03,25.19
15889,-9.50,-0.43,0.06,-0.37,0.66,0.21,-54.46,3.03,25.19
15900,-9.50,-0.14,0.73,-0.22,0.51,0.16,-54.46,3.03,25.19
15911,-9.50,-0.14,0.73,-0.22,0.51,0.16,-54.46,3.03,25.19
15922,-9.57,-0.36,1.27,0.09,0.23,-0.05,-55.24,4.64,25.19
15933,-9.63,1.24,1.10,0.26,-0.06,-0.27,-55.24,4.64,25.19
15944,-9.63,1.24,1.10,0.26,-0.06,-0.27,-55.24,4.64,25.19
15955,-9.93,-0.79,0.94,0.39,-0.29,-0.62,-55.24,4.64,25.19
15966,-9.93,-0.79,0.94,0.39,-0.29,-0.62,-55.24,4.64,25.19
15977,-12.04,2.09,1.58,0.28,-0.60,-0.57,-55.24,4.64,25.19
15988,-12.04,2.09,1.58,0.28,-0.60,-0.57,-55.24,4.64,25.19
15999,-9.80,0.98,3.35,-0.09,-0.53,-0.82,-55.24,4.64,25.19
16010,-9.80,0.98,3.35,-0.09,-0.53,-0.82,-55.24,4.64,25.19
16026,-7.18,-3.57,2.18,-0.21,-0.17,-0.72,-55.24,4.64,25.19
16032,-7.18,-3.57,2.18,-0.21,-0.17,-0.72,-55.24,4.64,25.19
16043,-9.55,0.24,2.70,-0.08,-0.08,0.37,-54.66,0.94,25.36
16054,-10.31,0.11,1.66,-0.03,0.03,0.47,-54.66,0.94,25.36
16065,-10.31,0.11,1.66,-0.03,0.03,0.47,-54.66,0.94,25.36
16076,-10.10,-1.70,1.57,-0.07,-0.01,0.07,-54.66,0.94,25.36
16087,-10.10,-1.70,1.57,-0.07,-0.01,0.07,-54.66,0.94,25.36
16098,-9.35,-3.94,1.30,0.04,-0.07,-0.27,-54.66,0.94,25.36
16109,-9.35,-3.94,1.30,0.04,-0.07,-0.27,-54.66,0.94,25.36
16121,-9.19,-4.58,1.78,0.16,-0.10,-0.34,-54.66,0.94,25.36
16131,-9.19,-4.58,1.78,0.16,-0.10,-0.34,-54.66,0.94,25.36
16142,-9.01,-3.59,1.01,0.29,-0.02,-0.16,-54.66,0.94,25.36
16153,-9.01,-3.59,1.01,0.29,-0.02,-0.16,-54.66,0.94,25.36
16169,-10.15,-0.32,2.49,0.34,-0.09,0.13,-53.88,1.58,25.02
16175,-10.13,0.88,2.51,0.19,0.01,0.06,-53.88,1.58,25.02
16186,-10.13,0.88,2.51,0.19,0.01,0.06,-53.88,1.58,25.02
16197,-10.03,0.57,2.20,0.01,0.05,-0.09,-53.88,1.58,25.02
16208,-10.03,0.57,2.20,0.01,0.05,-0.09,-53.88,1.58,25.02
16219,-9.59,-1.33,2.08,-0.13,0.03,-0.18,-53.88,1.58,25.02
16230,-9.59,-1.33,2.08,-0.13,0.03,-0.18,-53.88,1.58,25.02
16241,-9.63,-1.91,1.76,-0.14,0.05,-0.07,-53.88,1.58,25.02
16252,-9.63,-1.91,1.76,-0.14,0.05,-0.07,-53.88,1.58,25.02
16263,-9.38,-1.94,1.94,-0.07,0.04,0.04,-53.88,1.58,25.02
16274,-9.40,-1.72,1.95,-0.00,0.07,0.18,-53.88,1.58,25.02
16285,-9.40,-1.72,1.95,-0.00,0.07,0.18,-53.88,1.58,25.02
16296,-10.45,-0.67,1.44,0.02,0.05,0.30,-55.24,2.71,26.23
16307,-10.45,-0.67,1.44,0.02,0.05,0.30,-55.24,2.71,26.23
16318,-9.99,-0.13,1.91,0.02,-0.06,0.23,-55.24,2.71,26.23
16329,-9.99,-0.13,1.91,0.02,-0.06,0.23,-55.24,2.71,26.23
16340,-9.86,-0.47,1.99,0.05,-0.05,0.09,-55.24,2.71,26.23
16351,-9.86,-0.47,1.99,0.05,-0.05,0.09,-55.24,2.71,26.23
16362,-9.80,-0.85,2.10,0.09,0.00,-0.00,-55.24,2.71,26.23
16373,-9.80,-0.85,2.10,0.09,0.00,-0.00,-55.24,2.71,26.23
16384,-10.03,-0.70,2.25,0.06,0.09,-0.06,-55.24,2.71,26.23
16395,-10.16,-0.87,3.37,-0.06,0.26,-0.19,-55.24,2.71,26.23
16406,-10.16,-0.87,3.37,-0.06,0.26,-0.19,-55.24,2.71,26.23
16417,-9.60,-1.39,1.21,-0.21,0.54,-0.18,-52.70,2.87,24.32
16428,-9.60,-1.39,1.21,-0.21,0.54,-0.18,-52.70,2.87,24.32
16439,-9.50,-1.23,1.08,-0.31,0.47,0.02,-52.70,2.87,24.32
16450,-9.50,-1.23,1.08,-0.31,0.47,0.02,-52.70,2.87,24.32
16461,-9.71,-0.86,1.67,-0.30,0.20,0.18,-52.70,2.87,24.32
16472,-9.71,-0.86,1.67,-0.30,0.20,0.18,-52.70,2.87,24.32
16483,-9.66,-0.25,0.92,-0.20,-0.00,0.28,-52.70,2.87,24.32
16494,-9.37,-1.00,1.45,-0.10,-0.31,0.28,-52.70,2.87,24.32
16505,-9.37,-1.00,1.45,-0.10,-0.31,0.28,-52.70,2.87,24.32
16516,-10.04,-1.26,2.08,0.00,-0.42,0.22,-52.70,2.87,24.32
16527,-10.04,-1.26,2.08,0.00,-0.42,0.22,-52.70,2.87,24.32
16538,-10.06,-1.18,1.80,0.03,-0.14,0.08,-52.90,3.35,24.84
16549,-10.06,-1.18,1.80,0.03,-0.14,0.08,-52.90,3.35,24.84
16560,-10.18,-0.61,2.52,-0.13,0.09,0.06,-52.90,3.35,24.84
16571,-10.18,-0.61,2.52,-0.13,0.09,0.06,-52.90,3.35,24.84
16582,-9.83,0.08,2.21,-0.26,0.32,0.06,-52.90,3.35,24.84
16593,-9.83,0.08,2.21,-0.26,0.32,0.06,-52.90,3.35,24.84
16604,-9.61,-1.07,0.92,-0.25,0.34,0.02,-52.90,3.35,24.84
16615,-9.52,-1.46,1.13,-0.18,0.09,0.11,-52.90,3.35,24.84
16626,-9.52,-1.46,1.13,-0.18,0.09,0.11,-52.90,3.35,24.84
16637,-9.76,-0.91,1.56,-0.06,-0.14,0.19,-52.90,3.35,24.84
16648,-9.76,-0.91,1.56,-0.06,-0.14,0.19,-52.90,3.35,24.84
16659,-9.59,-0.27,1.03,0.04,-0.26,0.16,-52.90,3.35,24.84
16670,-9.59,-0.27,1.03,0.04,-0.26,0.16,-52.90,3.35,24.84
16681,-10.03,-0.20,2.35,0.13,-0.39,0.03,-54.85,4.00,24.15
16692,-10.03,-0.20,2.35,0.13,-0.39,0.03,-54.85,4.00,24.15
16703,-10.02,-0.89,2.42,0.21,-0.26,-0.12,-54.85,4.00,24.15
16714,-9.81,-1.46,1.99,0.11,-0.09,-0.12,-54.85,4.00,24.15
16725,-9.81,-1.46,1.99,0.11,-0.09,-0.12,-54.85,4.00,24.15
16736,-9.89,-0.50,2.29,-0.01,0.01,-0.02,-54.85,4.00,24.15
16747,-9.89,-0.50,2.29,-0.01,0.01,-0.02,-54.85,4.00,24.15
16758,-9.79,-0.51,1.95,-0.10,0.06,-0.01,-54.85,4.00,24.15
16769,-9.79,-0.51,1.95,-0.10,0.06,-0.01,-54.85,4.00,24.15
16780,-9.71,-0.65,1.45,-0.16,0.05,0.05,-54.85,4.00,24.15
16791,-9.71,-0.65,1.45,-0.16,0.05,0.05,-54.85,4.00,24.15
16802,-9.35,-1.05,1.04,-0.16,-0.10,0.13,-54.46,3.03,25.88
16813,-9.35,-1.05,1.04,-0.16,-0.10,0.13,-54.46,3.03,25.88
16824,-9.85,-0.36,2.44,-0.10,-0.39,0.25,-54.46,3.03,25.88
16835,-9.77,-0.37,1.36,0.00,-0.47,0.20,-54.46,3.03,25.88
16846,-9.77,-0.37,1.36,0.00,-0.47,0.20,-54.46,3.03,25.88
16857,-10.16,-0.74,2.67,0.15,-0.59,0.15,-54.46,3.03,25.88
16868,-10.16,-0.74,2.67,0.15,-0.59,0.15,-54.46,3.03,25.88
16879,-10.20,-0.77,2.71,0.11,-0.31,0.13,-54.46,3.03,25.88
16890,-10.20,-0.77,2.71,0.11,-0.31,0.13,-54.46,3.03,25.88
16901,-10.21,-1.38,2.96,-0.11,0.01,0.08,-54.46,3.03,25.88
16912,-10.21,-1.38,2.96,-0.11,0.01,0.08,-54.46,3.03,25.88
16923,-10.28,0.46,2.89,-0.32,0.44,0.16,-54.07,2.71,25.88
16934,-9.59,0.13,1.21,-0.46,0.86,0.03,-54.07,2.71,25.88
16945,-9.59,0.13,1.21,-0.46,0.86,0.03,-54.07,2.71,25.88
16956,-9.36,-1.09,0.83,-0.42,0.76,-0.03,-54.07,2.71,25.88
16967,-9.36,-1.09,0.83,-0.42,0.76,-0.03,-54.07,2.71,25.88
16978,-9.46,-0.38,1.12,-0.30,0.47,0.06,-54.07,2.71,25.88
16989,-9.46,-0.38,1.12,-0.30,0.47,0.06,-54.07,2.71,25.88
17000,-9.65,-0.58,1.74,-0.20,0.16,0.06,-54.07,2.71,25.88
17011,-9.65,-0.58,1.74,-0.20,0.16,0.06,-54.07,2.71,25.88
17022,-9.70,-0.46,1.33,-0.17,-0.03,0.09,-54.07,2.71,25.88
17033,-9.70,-0.46,1.33,-0.17,-0.03,0.09,-54.07,2.71,25.88
17044,-9.52,0.39,1.14,-0.16,-0.28,0.21,-54.07,2.71,25.88
17055,-9.99,-0.34,2.33,-0.08,-0.58,0.15,-53.29,4.00,24.15
17066,-9.99,-0.34,2.33,-0.08,-0.58,0.15,-53.29,4.00,24.15
17078,-10.30,-1.59,2.88,-0.02,-0.33,-0.01,-53.29,4.00,24.15
17088,-10.30,-1.59,2.88,-0.02,-0.33,-0.01,-53.29,4.00,24.15
17099,-9.68,-1.51,0.93,0.08,0.07,-0.04,-53.29,4.00,24.15
17110,-9.68,-1.51,0.93,0.08,0.07,-0.04,-53.29,4.00,24.15
17121,-10.36,1.14,3.05,0.01,0.05,0.07,-53.29,4.00,24.15
17132,-10.36,1.14,3.05,0.01,0.05,0.07,-53.29,4.00,24.15
17143,-9.79,-0.31,1.33,-0.11,0.33,-0.14,-53.29,4.00,24.15
17154,-9.79,-0.31,1.33,-0.11,0.33,-0.14,-53.29,4.00,24.15
17165,-9.86,-1.23,2.07,-0.16,0.30,-0.11,-53.29,4.00,24.15
17176,-9.56,-1.05,1.42,-0.15,0.26,0.04,-51.53,3.51,25.02
17187,-9.56,-1.05,1.42,-0.15,0.26,0.04,-51.53,3.51,25.02
17198,-9.57,-0.38,1.63,-0.13,0.13,0.12,-51.53,3.51,25.02
17209,-9.57,-0.38,1.63,-0.13,0.13,0.12,-51.53,3.51,25.02
17220,-9.83,0.13,1.84,-0.16,0.02,0.11,-51.53,3.51,25.02
17231,-9.83,0.13,1.84,-0.16,0.02,0.11,-51.53,3.51,25.02
17242,-9.66,-0.40,0.89,-0.19,-0.11,0.11,-51.53,3.51,25.02
17253,-9.66,-0.40,0.89,-0.19,-0.11,0.11,-51.53,3.51,25.02
17264,-9.86,-0.16,1.94,-0.14,-0.34,0.21,-51.53,3.51,25.02
17275,-9.86,-0.68,1.25,-0.04,-0.49,0.12,-51.53,3.51,25.02
17286,-9.86,-0.68,1.25,-0.04,-0.49,0.12,-51.53,3.51,25.02
17297,-10.34,-0.72,2.88,0.06,-0.34,0.03,-52.12,3.67,25.19
17308,-10.34,-0.72,2.88,0.06,-0.34,0.03,-52.12,3.67,25.19
17324,-9.87,-0.98,1.53,0.01,0.04,-0.01,-52.12,3.67,25.19
17330,-9.87,-0.98,1.53,0.01,0.04,-0.01,-52.12,3.67,25.19
17341,-10.11,-0.37,2.31,-0.15,0.18,0.10,-52.12,3.67,25.19
17352,-10.11,-0.37,2.31,-0.15,0.18,0.10,-52.12,3.67,25.19
17363,-10.24,0.29,2.21,-0.23,0.39,0.17,-52.12,3.67,25.19
17374,-10.24,0.29,2.21,-0.23,0.39,0.17,-52.12,3.67,25.19
17385,-9.50,0.26,-0.25,-0.15,0.56,0.15,-52.12,3.67,25.19
17397,-9.71,-0.02,1.01,0.05,0.24,-0.04,-52.12,3.67,25.19
17407,-9.71,-0.02,1.01,0.05,0.24,-0.04,-52.12,3.67,25.19
17418,-9.93,1.61,1.52,0.18,0.03,-0.24,-54.85,4.32,26.23
17429,-9.93,1.61,1.52,0.18,0.03,-0.24,-54.85,4.32,26.23
17440,-9.56,-0.43,0.36,0.24,-0.15,-0.64,-54.85,4.32,26.23
17451,-9.56,-0.43,0.36,0.24,-0.15,-0.64,-54.85,4.32,26.23
17462,-10.77,0.23,0.34,0.26,-0.68,-0.68,-54.85,4.32,26.23
17473,-10.77,0.23,0.34,0.26,-0.68,-0.68,-54.85,4.32,26.23
17484,-9.13,-0.74,3.54,0.16,-1.11,-0.66,-54.85,4.32,26.23
17495,-8.79,-2.27,2.91,0.10,-0.77,-0.42,-54.85,4.32,26.23
17506,-8.79,-2.27,2.91,0.10,-0.77,-0.42,-54.85,4.32,26.23
17517,-8.34,-3.73,3.10,0.15,-0.43,0.01,-54.85,4.32,26.23
17528,-8.34,-3.73,3.10,0.15,-0.43,0.01,-54.85,4.32,26.23
17539,-8.61,-4.04,3.27,0.31,-0.05,0.48,-54.85,4.32,26.23
17550,-8.61,-4.04,3.27,0.31,-0.05,0.48,-54.85,4.32,26.23
17561,-12.20,0.10,0.62,0.44,0.35,0.94,-53.29,3.03,27.27
17572,-12.20,0.10,0.62,0.44,0.35,0.94,-53.29,3.03,27.27
17583,-11.02,5.02,3.90,0.19,0.08,0.71,-53.29,3.03,27.27
17594,-11.02,5.02,3.90,0.19,0.08,0.71,-53.29,3.03,27.27
17605,-10.28,2.50,2.81,-0.13,0.30,-0.16,-53.29,3.03,27.27
17616,-10.14,-0.73,0.47,-0.16,0.52,-0.67,-53.29,3.03,27.27
17627,-10.14,-0.73,0.47,-0.16,0.52,-0.67,-53.29,3.03,27.27
17638,-9.44,-1.53,-0.78,-0.06,0.15,-0.86,-53.29,3.03,27.27
17649,-9.44,-1.53,-0.78,-0.06,0.15,-0.86,-53.29,3.03,27.27
17660,-8.81,-2.11,4.35,0.14,-0.36,-0.74,-53.29,3.03,27.27
17671,-8.81,-2.11,4.35,0.14,-0.36,-0.74,-53.29,3.03,27.27
17682,-8.54,-3.01,2.61,0.38,0.05,-0.62,-54.27,1.90,28.14
17693,-8.54,-3.01,2.61,0.38,0.05,-0.62,-54.27,1.90,28.14
17704,-8.93,-2.38,2.50,0.43,0.28,-0.15,-54.27,1.90,28.14
17715,-9.44,-0.87,2.21,0.30,0.42,0.35,-54.27,1.90,28.14
17726,-9.44,-0.87,2.21,0.30,0.42,0.35,-54.27,1.90,28.14
17737,-10.20,2.46,1.81,-0.06,0.26,0.56,-54.27,1.90,28.14
17748,-10.20,2.46,1.81,-0.06,0.26,0.56,-54.27,1.90,28.14
17759,-9.74,0.05,1.59,-0.39,0.08,0.24,-54.27,1.90,28.14
17770,-9.74,0.05,1.59,-0.39,0.08,0.24,-54.27,1.90,28.14
17781,-9.96,-0.68,0.91,-0.45,-0.11,0.20,-54.27,1.90,28.14
17792,-9.96,-0.68,0.91,-0.45,-0.11,0.20,-54.27,1.90,28.14
17803,-10.61,-0.51,1.63,-0.19,-0.31,0.09,-53.88,1.90,25.02
17814,-10.61,-0.51,1.63,-0.19,-0.31,0.09,-53.88,1.90,25.02
17825,-10.22,-0.45,1.40,0.09,-0.24,-0.31,-53.88,1.90,25.02
17836,-9.56,-0.92,2.76,0.25,-0.14,-0.58,-53.88,1.90,25.02
17847,-9.56,-0.92,2.76,0.25,-0.14,-0.58,-53.88,1.90,25.02
17858,-9.42,-0.89,2.28,0.25,-0.02,-0.58,-53.88,1.90,25.02
17869,-9.42,-0.89,2.28,0.25,-0.02,-0.58,-53.88,1.90,25.02
17880,-9.44,-1.32,1.72,0.29,-0.08,-0.63,-53.88,1.90,25.02
17891,-9.44,-1.32,1.72,0.29,-0.08,-0.63,-53.88,1.90,25.02
17902,-9.12,-2.01,2.21,0.38,-0.22,-0.59,-53.88,1.90,25.02
17913,-9.12,-2.01,2.21,0.38,-0.22,-0.59,-53.88,1.90,25.02
17924,-9.01,-2.06,2.61,0.39,-0.20,-0.33,-53.88,1.90,25.02
17935,-9.35,-1.22,3.00,0.23,-0.04,0.07,-54.66,2.23,27.10
17946,-9.35,-1.22,3.00,0.23,-0.04,0.07,-54.66,2.23,27.10
17957,-9.60,-1.71,2.64,0.06,0.24,0.24,-54.66,2.23,27.10
17968,-9.60,-1.71,2.64,0.06,0.24,0.24,-54.66,2.23,27.10
17979,-10.19,-1.71,1.79,0.06,0.46,0.37,-54.66,2.23,27.10
17990,-10.19,-1.71,1.79,0.06,0.46,0.37,-54.66,2.23,27.10
18001,-10.16,1.49,1.73,-0.01,0.24,0.47,-54.66,2.23,27.10
18012,-10.16,1.49,1.73,-0.01,0.24,0.47,-54.66,2.23,27.10
18023,-9.80,0.66,1.47,-0.14,0.04,0.16,-54.66,2.23,27.10
18034,-9.80,0.66,1.47,-0.14,0.04,0.16,-54.66,2.23,27.10
18045,-9.44,-1.11,1.18,-0.08,-0.17,0.02,-54.66,2.23,27.10
18056,-9.64,-1.63,1.87,0.08,-0.42,0.09,-52.90,2.39,26.93
18067,-9.64,-1.63,1.87,0.08,-0.42,0.09,-52.90,2.39,26.93
18078,-10.00,-1.67,2.53,0.16,-0.39,0.18,-52.90,2.39,26.93
18089,-10.00,-1.67,2.53,0.16,-0.39,0.18,-52.90,2.39,26.93
18100,-9.92,-1.54,2.59,0.00,-0.17,0.30,-52.90,2.39,26.93
18111,-9.92,-1.54,2.59,0.00,-0.17,0.30,-52.90,2.39,26.93
18122,-10.17,0.31,4.06,-0.18,0.07,0.43,-52.90,2.39,26.93
18133,-10.17,0.31,4.06,-0.18,0.07,0.43,-52.90,2.39,26.93
18144,-9.98,1.27,1.79,-0.23,0.35,0.22,-52.90,2.39,26.93
18155,-9.98,1.27,1.79,-0.23,0.35,0.22,-52.90,2.39,26.93
18166,-10.57,1.38,1.56,-0.12,0.33,-0.12,-52.90,2.39,26.93
18177,-10.60,1.97,-0.37,-0.11,-0.10,-0.65,-55.63,2.07,26.23
18188,-10.60,1.97,-0.37,-0.11,-0.10,-0.65,-55.63,2.07,26.23
18199,-8.93,-1.38,4.50,-0.30,-0.69,-1.11,-55.63,2.07,26.23
18210,-8.93,-1.38,4.50,-0.30,-0.69,-1.11,-55.63,2.07,26.23
18221,-8.63,-2.63,2.49,-0.23,-0.38,-0.99,-55.63,2.07,26.23
18232,-8.63,-2.63,2.49,-0.23,-0.38,-0.99,-55.63,2.07,26.23
18243,-8.73,-3.30,3.46,-0.25,-0.23,-0.75,-55.63,2.07,26.23
18254,-8.73,-3.30,3.46,-0.25,-0.23,-0.75,-55.63,2.07,26.23
18265,-9.23,-2.92,2.19,-0.19,0.07,-0.40,-55.63,2.07,26.23
18276,-9.65,-1.60,1.95,-0.06,0.15,-0.20,-55.63,2.07,26.23
18287,-9.65,-1.60,1.95,-0.06,0.15,-0.20,-55.63,2.07,26.23
18298,-9.96,-0.36,1.90,0.10,0.14,-0.21,-55.63,2.07,26.23
18310,-9.96,-0.36,1.90,0.10,0.14,-0.21,-55.63,2.07,26.23
18320,-9.74,-0.11,2.74,0.16,0.11,-0.36,-53.29,1.10,26.58
18331,-9.74,-0.11,2.74,0.16,0.11,-0.36,-53.29,1.10,26.58
18342,-9.90,-0.47,2.67,0.17,0.20,-0.45,-53.29,1.10,26.58
18353,-9.90,-0.47,2.67,0.17,0.20,-0.45,-53.29,1.10,26.58
18364,-9.02,-1.94,2.41,0.25,0.26,-0.50,-53.29,1.10,26.58
18375,-9.02,-1.94,2.41,0.25,0.26,-0.50,-53.29,1.10,26.58
18386,-8.73,-2.46,1.62,0.58,0.35,-0.16,-53.29,1.10,26.58
18397,-9.49,-1.35,1.75,0.90,0.34,0.21,-53.29,1.10,26.58
18408,-9.49,-1.35,1.75,0.90,0.34,0.21,-53.29,1.10,26.58
18419,-9.82,-1.58,0.89,1.15,0.32,0.25,-53.29,1.10,26.58
18430,-9.82,-1.58,0.89,1.15,0.32,0.25,-53.29,1.10,26.58
18441,-9.76,-1.42,1.18,1.30,0.19,0.15,-54.46,0.14,25.88
18452,-9.76,-1.42,1.18,1.30,0.19,0.15,-54.46,0.14,25.88
18463,-9.09,-2.27,1.10,1.28,0.03,0.02,-54.46,0.14,25.88
18474,-9.09,-2.27,1.10,1.28,0.03,0.02,-54.46,0.14,25.88
18485,-9.81,-2.32,2.44,1.09,-0.19,0.08,-54.46,0.14,25.88
18496,-10.13,-1.85,2.95,0.96,-0.24,0.04,-54.46,0.14,25.88
18507,-10.13,-1.85,2.95,0.96,-0.24,0.04,-54.46,0.14,25.88
18518,-10.03,-1.48,3.16,0.69,-0.20,-0.14,-54.46,0.14,25.88
18529,-10.03,-1.48,3.16,0.69,-0.20,-0.14,-54.46,0.14,25.88
18540,-9.63,-1.54,1.89,0.41,-0.09,-0.29,-54.46,0.14,25.88
18551,-9.63,-1.54,1.89,0.41,-0.09,-0.29,-54.46,0.14,25.88
18562,-9.65,-1.12,2.21,0.12,-0.12,-0.24,-52.90,3.67,24.49
18573,-9.65,-1.12,2.21,0.12,-0.12,-0.24,-52.90,3.67,24.49
18584,-9.44,-1.64,2.80,-0.04,-0.07,-0.20,-52.90,3.67,24.49
18595,-9.44,-1.64,2.80,-0.04,-0.07,-0.20,-52.90,3.67,24.49
18606,-9.20,-2.34,2.71,-0.02,0.07,-0.15,-52.90,3.67,24.49
18617,-9.16,-2.08,3.05,0.04,0.16,0.00,-52.90,3.67,24.49
18628,-9.16,-2.08,3.05,0.04,0.16,0.00,-52.90,3.67,24.49
18639,-9.44,-1.18,2.43,-0.00,0.23,0.16,-52.90,3.67,24.49
18650,-9.44,-1.18,2.43,-0.00,0.23,0.16,-52.90,3.67,24.49
18661,-9.86,-0.76,2.28,-0.05,0.20,0.19,-52.90,3.67,24.49
18672,-9.86,-0.76,2.28,-0.05,0.20,0.19,-52.90,3.67,24.49
18683,-9.92,-0.76,1.82,-0.11,0.12,0.11,-52.90,3.67,24.49
18695,-9.92,-0.76,1.82,-0.11,0.12,0.11,-52.90,3.67,24.49
18705,-9.89,-0.88,1.86,-0.20,0.07,0.02,-54.46,2.71,24.49
18716,-9.26,-2.02,2.11,-0.12,0.08,-0.06,-54.46,2.71,24.49
18727,-9.26,-2.02,2.11,-0.12,0.08,-0.06,-54.46,2.71,24.49
18738,-9.35,-2.03,2.33,-0.01,0.16,0.05,-54.46,2.71,24.49
18749,-9.35,-2.03,2.33,-0.01,0.16,0.05,-54.46,2.71,24.49
18760,-9.48,-1.40,1.98,-0.02,0.14,0.25,-54.46,2.71,24.49
18771,-9.48,-1.40,1.98,-0.02,0.14,0.25,-54.46,2.71,24.49
18782,-10.43,0.41,1.81,-0.03,0.01,0.31,-54.46,2.71,24.49
18793,-10.43,0.41,1.81,-0.03,0.01,0.31,-54.46,2.71,24.49
18804,-9.81,-0.74,2.54,0.05,-0.03,-0.04,-54.46,2.71,24.49
18815,-9.81,-0.74,2.54,0.05,-0.03,-0.04,-54.46,2.71,24.49
18826,-9.66,-1.59,2.31,0.11,0.13,-0.22,-53.48,2.23,25.71
18837,-9.23,-2.00,1.88,0.14,0.23,-0.21,-53.48,2.23,25.71
18848,-9.23,-2.00,1.88,0.14,0.23,-0.21,-53.48,2.23,25.71
18859,-9.63,-1.39,2.03,0.10,0.18,-0.06,-53.48,2.23,25.71
18870,-9.63,-1.39,2.03,0.10,0.18,-0.06,-53.48,2.23,25.71
18881,-9.75,-0.83,2.00,0.05,0.11,0.01,-53.48,2.23,25.71
18892,-9.75,-0.83,2.00,0.05,0.11,0.01,-53.48,2.23,25.71
18903,-10.01,-0.70,1.86,0.06,0.04,-0.06,-53.48,2.23,25.71
18914,-10.01,-0.70,1.86,0.06,0.04,-0.06,-53.48,2.23,25.71
18925,-9.65,-1.53,2.00,0.11,0.04,-0.19,-53.48,2.23,25.71
18936,-9.45,-1.46,1.78,0.13,0.07,-0.17,-56.02,2.07,23.45
18947,-9.45,-1.46,1.78,0.13,0.07,-0.17,-56.02,2.07,23.45
18958,-9.63,-0.88,2.07,0.11,-0.00,-0.10,-56.02,2.07,23.45
18969,-9.63,-0.88,2.07,0.11,-0.00,-0.10,-56.02,2.07,23.45
18980,-9.60,-1.26,2.18,0.12,-0.06,-0.13,-56.02,2.07,23.45
18991,-9.60,-1.26,2.18,0.12,-0.06,-0.13,-56.02,2.07,23.45
19002,-9.37,-1.93,1.94,0.14,-0.08,-0.12,-56.02,2.07,23.45
19013,-9.37,-1.93,1.94,0.14,-0.08,-0.12,-56.02,2.07,23.45
19024,-9.21,-2.34,2.06,0.15,-0.09,0.04,-56.02,2.07,23.45
19036,-9.21,-2.34,2.06,0.15,-0.09,0.04,-56.02,2.07,23.45
19046,-9.01,-2.62,2.70,0.17,-0.00,0.28,-56.02,2.07,23.45
19057,-11.33,-0.86,0.92,0.09,0.19,0.61,-56.61,2.87,23.97
19068,-11.33,-0.86,0.92,0.09,0.19,0.61,-56.61,2.87,23.97
19079,-10.65,1.00,2.67,-0.35,0.10,0.57,-56.61,2.87,23.97
19090,-10.65,1.00,2.67,-0.35,0.10,0.57,-56.61,2.87,23.97
19101,-10.26,1.56,3.27,-0.53,0.40,0.18,-56.61,2.87,23.97
19112,-10.26,1.56,3.27,-0.53,0.40,0.18,-56.61,2.87,23.97
19123,-9.92,2.06,0.38,-0.28,0.72,-0.33,-56.61,2.87,23.97
19134,-9.92,2.06,0.38,-0.28,0.72,-0.33,-56.61,2.87,23.97
19145,-11.38,0.13,0.31,0.08,0.57,-0.88,-56.61,2.87,23.97
19156,-11.38,0.13,0.31,0.08,0.57,-0.88,-56.61,2.87,23.97
19167,-9.91,1.03,-2.18,-0.17,-0.18,-1.16,-56.61,2.87,23.97
19178,-7.99,-3.59,4.52,-0.30,-1.03,-1.18,-56.61,2.87,23.97
19189,-7.99,-3.59,4.52,-0.30,-1.03,-1.18,-56.61,2.87,23.97
19205,-7.61,-5.16,0.88,-0.49,-0.58,-0.26,-55.44,0.62,22.58
19211,-7.61,-5.16,0.88,-0.49,-0.58,-0.26,-55.44,0.62,22.58
19222,-7.64,-5.33,3.60,-0.29,-0.58,0.79,-55.44,0.62,22.58
19233,-7.64,-5.33,3.60,-0.29,-0.58,0.79,-55.44,0.62,22.58
19244,-10.13,-1.16,3.06,-0.36,-0.11,1.46,-55.44,0.62,22.58
19255,-10.13,-1.16,3.06,-0.36,-0.11,1.46,-55.44,0.62,22.58
19266,-10.98,-0.46,0.87,-0.38,0.13,0.94,-55.44,0.62,22.58
19277,-9.75,-1.37,2.15,-0.13,0.03,0.30,-55.44,0.62,22.58
19288,-9.75,-1.37,2.15,-0.13,0.03,0.30,-55.44,0.62,22.58
19299,-10.29,0.21,1.80,0.04,0.10,0.12,-55.44,0.62,22.58
19310,-10.29,0.21,1.80,0.04,0.10,0.12,-55.44,0.62,22.58
19321,-9.79,-0.50,2.02,-0.03,0.05,-0.08,-54.66,2.23,26.75
19332,-9.79,-0.50,2.02,-0.03,0.05,-0.08,-54.66,2.23,26.75
19343,-9.61,-1.34,2.45,-0.11,0.08,-0.14,-54.66,2.23,26.75
19354,-9.61,-1.34,2.45,-0.11,0.08,-0.14,-54.66,2.23,26.75
19365,-9.44,-1.92,2.02,-0.12,0.18,-0.11,-54.66,2.23,26.75
19376,-9.44,-1.92,2.02,-0.12,0.18,-0.11,-54.66,2.23,26.75
19387,-9.25,-2.06,1.80,-0.08,0.21,0.00,-54.66,2.23,26.75
19398,-9.12,-2.51,2.10,-0.03,0.21,0.21,-54.66,2.23,26.75
19409,-9.12,-2.51,2.10,-0.03,0.21,0.21,-54.66,2.23,26.75
19421,-9.80,-0.63,1.17,-0.02,0.14,0.36,-54.66,2.23,26.75
19431,-9.80,-0.63,1.17,-0.02,0.14,0.36,-54.66,2.23,26.75
19442,-9.98,0.71,1.26,-0.02,-0.02,0.32,-55.83,2.23,22.24
19453,-9.98,0.71,1.26,-0.02,-0.02,0.32,-55.83,2.23,22.24
19464,-9.66,-0.62,1.38,0.00,-0.11,0.13,-55.83,2.23,22.24
19475,-9.66,-0.62,1.38,0.00,-0.11,0.13,-55.83,2.23,22.24
19486,-9.58,-1.16,1.56,0.08,-0.26,0.08,-55.83,2.23,22.24
19497,-10.02,-0.72,2.57,0.22,-0.33,0.07,-55.83,2.23,22.24
19508,-10.02,-0.72,2.57,0.22,-0.33,0.07,-55.83,2.23,22.24
19519,-9.96,-0.50,2.07,0.27,-0.20,-0.06,-55.83,2.23,22.24
19530,-9.96,-0.50,2.07,0.27,-0.20,-0.06,-55.83,2.23,22.24
19541,-10.03,-0.79,2.48,0.17,-0.08,-0.15,-55.83,2.23,22.24
19552,-10.03,-0.79,2.48,0.17,-0.08,-0.15,-55.83,2.23,22.24
19563,-10.01,-1.36,3.18,0.03,0.22,-0.26,-55.83,2.23,22.24
19574,-10.01,-1.36,3.18,0.03,0.22,-0.26,-55.83,2.23,22.24
19585,-9.85,-1.43,2.16,-0.11,0.48,-0.25,-54.66,3.19,25.02
19596,-9.85,-1.43,2.16,-0.11,0.48,-0.25,-54.66,3.19,25.02
19607,-9.53,-0.98,1.06,-0.18,0.51,-0.11,-54.66,3.19,25.02
19618,-9.51,-1.10,1.67,-0.27,0.32,0.05,-54.66,3.19,25.02
19629,-9.51,-1.10,1.67,-0.27,0.32,0.05,-54.66,3.19,25.02
19640,-9.58,-1.23,1.25,-0.23,0.10,0.16,-54.66,3.19,25.02
19651,-9.58,-1.23,1.25,-0.23,0.10,0.16,-54.66,3.19,25.02
19662,-9.34,-1.54,0.84,-0.13,-0.19,0.26,-54.66,3.19,25.02
19673,-9.34,-1.54,0.84,-0.13,-0.19,0.26,-54.66,3.19,25.02
19684,-9.52,-0.69,2.26,-0.01,-0.43,0.31,-54.66,3.19,25.02
19695,-9.52,-0.69,2.26,-0.01,-0.43,0.31,-54.66,3.19,25.02
19706,-9.86,-0.85,2.23,0.09,-0.40,0.14,-53.48,2.87,25.36
19717,-10.18,-0.67,2.92,-0.02,-0.16,0.02,-53.48,2.87,25.36
19728,-10.18,-0.67,2.92,-0.02,-0.16,0.02,-53.48,2.87,25.36
19739,-10.14,-1.24,2.63,-0.20,0.14,-0.05,-53.48,2.87,25.36
19750,-10.14,-1.24,2.63,-0.20,0.14,-0.05,-53.48,2.87,25.36
19761,-9.76,-0.93,1.35,-0.34,0.41,0.00,-53.48,2.87,25.36
19772,-9.76,-0.93,1.35,-0.34,0.41,0.00,-53.48,2.87,25.36
19783,-9.55,-1.23,1.28,-0.29,0.42,0.05,-53.48,2.87,25.36
19794,-9.55,-1.23,1.28,-0.29,0.42,0.05,-53.48,2.87,25.36
19805,-9.59,-1.14,1.51,-0.19,0.18,0.11,-53.48,2.87,25.36
19816,-9.59,-1.14,1.51,-0.19,0.18,0.11,-53.48,2.87,25.36
19827,-9.59,-1.02,1.47,-0.05,-0.04,0.14,-55.63,4.32,23.10
19838,-9.68,-0.79,1.67,-0.01,-0.23,0.20,-55.63,4.32,23.10
19849,-9.68,-0.79,1.67,-0.01,-0.23,0.20,-55.63,4.32,23.10
19860,-9.75,-0.21,1.98,-0.02,-0.34,0.18,-55.63,4.32,23.10
19871,-9.75,-0.21,1.98,-0.02,-0.34,0.18,-55.63,4.32,23.10
19882,-10.06,-1.33,2.85,-0.01,-0.24,0.04,-55.63,4.32,23.10
19893,-10.06,-1.33,2.85,-0.01,-0.24,0.04,-55.63,4.32,23.10
19904,-9.92,-1.42,1.88,-0.12,0.06,0.01,-55.63,4.32,23.10
19915,-9.92,-1.42,1.88,-0.12,0.06,0.01,-55.63,4.32,23.10
19926,-10.17,-0.87,2.94,-0.34,0.22,0.11,-55.63,4.32,23.10
19937,-9.87,-0.58,1.04,-0.40,0.43,0.14,-55.63,4.32,23.10
19948,-9.87,-0.58,1.04,-0.40,0.43,0.14,-55.63,4.32,23.10
19959,-9.46,-0.56,-0.30,-0.30,0.36,0.13,-53.88,3.19,24.67
19970,-9.46,-0.56,-0.30,-0.30,0.36,0.13,-53.88,3.19,24.67
19981,-9.67,-0.58,1.54,-0.12,0.03,0.13,-53.88,3.19,24.67
19992,-9.67,-0.58,1.54,-0.12,0.03,0.13,-53.88,3.19,24.67
20003,-9.68,-0.07,1.79,-0.02,-0.12,0.11,-53.88,3.19,24.67
20014,-9.68,-0.07,1.79,-0.02,-0.12,0.11,-53.88,3.19,24.67
20025,-9.64,-0.40,1.68,0.00,-0.25,0.05,-53.88,3.19,24.67
20036,-9.64,-0.40,1.68,0.00,-0.25,0.05,-53.88,3.19,24.67
20047,-9.88,-1.47,2.13,0.05,-0.38,-0.02,-53.88,3.19,24.67
20058,-10.26,-1.17,2.98,-0.00,-0.37,0.09,-53.88,3.19,24.67
20069,-10.26,-1.17,2.98,-0.00,-0.37,0.09,-53.88,3.19,24.67
20080,-9.77,-1.42,0.85,-0.17,-0.08,0.15,-53.29,3.67,24.15
20091,-9.77,-1.42,0.85,-0.17,-0.08,0.15,-53.29,3.67,24.15
20102,-10.14,0.21,1.36,-0.18,-0.08,0.22,-53.29,3.67,24.15
20113,-10.14,0.21,1.36,-0.18,-0.08,0.22,-53.29,3.67,24.15
20124,-10.59,0.76,2.21,-0.12,-0.07,0.08,-53.29,3.67,24.15
20135,-10.59,0.76,2.21,-0.12,-0.07,0.08,-53.29,3.67,24.15
20146,-10.54,1.80,1.90,-0.20,-0.08,-0.30,-53.29,3.67,24.15
20158,-8.46,-2.74,3.23,-0.27,-0.13,-0.80,-53.29,3.67,24.15
20168,-8.46,-2.74,3.23,-0.27,-0.13,-0.80,-53.29,3.67,24.15
20179,-8.44,-3.80,2.92,-0.16,0.13,-0.42,-53.29,3.67,24.15
20190,-8.44,-3.80,2.92,-0.16,0.13,-0.42,-53.29,3.67,24.15
20201,-8.42,-4.61,2.18,0.01,0.44,0.06,-55.44,3.19,25.71
20212,-8.42,-4.61,2.18,0.01,0.44,0.06,-55.44,3.19,25.71
20223,-10.96,1.19,-1.70,0.06,0.55,0.67,-55.44,3.19,25.71
20234,-10.96,1.19,-1.70,0.06,0.55,0.67,-55.44,3.19,25.71
20245,-10.43,2.11,2.82,-0.13,0.03,0.50,-55.44,3.19,25.71
20256,-10.43,2.11,2.82,-0.13,0.03,0.50,-55.44,3.19,25.71
20267,-9.83,-0.34,1.28,-0.20,0.09,0.10,-55.44,3.19,25.71
20278,-9.48,-1.51,0.55,-0.08,-0.05,0.10,-55.44,3.19,25.71
20289,-9.48,-1.51,0.55,-0.08,-0.05,0.10,-55.44,3.19,25.71
20300,-9.92,-0.05,2.17,-0.01,-0.31,0.25,-55.44,3.19,25.71
20311,-9.92,-0.05,2.17,-0.01,-0.31,0.25,-55.44,3.19,25.71
20322,-9.93,-0.27,2.18,0.14,-0.27,0.05,-53.09,3.51,24.32
20333,-9.93,-0.27,2.18,0.14,-0.27,0.05,-53.09,3.51,24.32
20344,-9.92,-0.67,2.15,0.20,-0.24,-0.15,-53.09,3.51,24.32
20355,-9.92,-0.67,2.15,0.20,-0.24,-0.15,-53.09,3.51,24.32
20366,-9.87,-1.39,1.84,0.15,-0.08,-0.19,-53.09,3.51,24.32
20377,-9.87,-1.39,1.84,0.15,-0.08,-0.19,-53.09,3.51,24.32
20388,-10.27,-0.56,3.40,0.01,0.09,-0.13,-53.09,3.51,24.32
20399,-9.67,-1.27,0.81,-0.07,0.40,-0.18,-53.09,3.51,24.32
20410,-9.67,-1.27,0.81,-0.07,0.40,-0.18,-53.09,3.51,24.32
20421,-9.53,-0.84,0.23,-0.18,0.43,-0.06,-53.09,3.51,24.32
20432,-9.53,-0.84,0.23,-0.18,0.43,-0.06,-53.09,3.51,24.32
20443,-9.77,-0.74,2.60,-0.22,0.29,0.12,-53.09,3.51,24.32
20454,-9.77,-0.74,2.60,-0.22,0.29,0.12,-53.09,3.51,24.32
20465,-9.63,-0.77,2.14,-0.26,0.19,0.18,-53.48,3.19,22.93
20476,-9.63,-0.77,2.14,-0.26,0.19,0.18,-53.48,3.19,22.93
20487,-9.68,-0.28,0.60,-0.27,0.02,0.24,-53.48,3.19,22.93
20498,-10.04,0.66,1.61,-0.23,-0.31,0.25,-53.48,3.19,22.93
20509,-10.04,0.66,1.61,-0.23,-0.31,0.25,-53.48,3.19,22.93
20520,-11.50,1.85,1.56,-0.23,-0.41,0.02,-53.48,3.19,22.93
20531,-11.50,1.85,1.56,-0.23,-0.41,0.02,-53.48,3.19,22.93
20542,-9.05,-0.88,2.88,-0.34,-0.37,-0.54,-53.48,3.19,22.93
20553,-9.05,-0.88,2.88,-0.34,-0.37,-0.54,-53.48,3.19,22.93
20564,-8.49,-3.71,1.62,-0.24,0.07,-0.43,-53.48,3.19,22.93
20575,-8.49,-3.71,1.62,-0.24,0.07,-0.43,-53.48,3.19,22.93
20586,-8.95,-3.21,1.89,-0.04,0.16,0.05,-55.63,3.35,25.19
20597,-8.95,-3.21,1.89,-0.04,0.16,0.05,-55.63,3.35,25.19
20608,-11.29,-1.05,0.68,0.07,0.11,0.44,-55.63,3.35,25.19
20619,-10.28,1.80,2.04,-0.05,-0.10,0.45,-55.63,3.35,25.19
20630,-10.28,1.80,2.04,-0.05,-0.10,0.45,-55.63,3.35,25.19
20641,-9.94,0.12,1.62,-0.05,-0.07,0.00,-55.63,3.35,25.19
20652,-9.94,0.12,1.62,-0.05,-0.07,0.00,-55.63,3.35,25.19
20663,-9.81,-1.27,1.65,0.04,-0.00,-0.15,-55.63,3.35,25.19
20674,-9.81,-1.27,1.65,0.04,-0.00,-0.15,-55.63,3.35,25.19
20685,-10.01,-0.67,1.96,0.05,0.05,-0.11,-55.63,3.35,25.19
20696,-10.01,-0.67,1.96,0.05,0.05,-0.11,-55.63,3.35,25.19
20707,-10.03,-0.95,2.24,0.03,0.20,-0.18,-56.02,3.67,23.80
20718,-9.76,-1.25,1.41,0.02,0.31,-0.17,-56.02,3.67,23.80
20729,-9.76,-1.25,1.41,0.02,0.31,-0.17,-56.02,3.67,23.80
20740,-9.59,-1.01,1.32,-0.04,0.31,-0.03,-56.02,3.67,23.80
20751,-9.59,-1.01,1.32,-0.04,0.31,-0.03,-56.02,3.67,23.80
20762,-9.65,-1.25,1.53,-0.16,0.21,0.12,-56.02,3.67,23.80
20773,-9.65,-1.25,1.53,-0.16,0.21,0.12,-56.02,3.67,23.80
20785,-9.88,0.16,1.74,-0.22,0.10,0.27,-56.02,3.67,23.80
20795,-9.88,0.16,1.74,-0.22,0.10,0.27,-56.02,3.67,23.80
20806,-9.51,-0.47,1.06,-0.24,-0.01,0.28,-56.02,3.67,23.80
20817,-9.51,-0.47,1.06,-0.24,-0.01,0.28,-56.02,3.67,23.80
20828,-9.88,0.54,1.88,-0.39,-0.25,0.36,-56.02,3.67,23.80
20839,-10.06,-0.46,2.13,-0.32,-0.18,0.07,-53.88,2.55,23.97
20850,-10.06,-0.46,2.13,-0.32,-0.18,0.07,-53.88,2.55,23.97
20861,-10.05,-0.40,1.74,-0.11,0.06,-0.30,-53.88,2.55,23.97
20872,-10.05,-0.40,1.74,-0.11,0.06,-0.30,-53.88,2.55,23.97
20883,-11.13,1.30,1.26,-0.02,0.18,-0.51,-53.88,2.55,23.97
20894,-11.13,1.30,1.26,-0.02,0.18,-0.51,-53.88,2.55,23.97
20905,-9.56,0.40,1.60,-0.15,0.05,-0.78,-53.88,2.55,23.97
20916,-9.56,0.40,1.60,-0.15,0.05,-0.78,-53.88,2.55,23.97
20927,-8.61,-2.38,1.66,-0.11,-0.00,-0.74,-53.88,2.55,23.97
20938,-8.96,-1.45,0.91,0.08,-0.02,-0.08,-53.88,2.55,23.97
20949,-8.96,-1.45,0.91,0.08,-0.02,-0.08,-53.88,2.55,23.97
20960,-9.88,-0.08,0.91,0.17,-0.19,0.35,-53.48,1.58,23.28
20971,-9.88,-0.08,0.91,0.17,-0.19,0.35,-53.48,1.58,23.28
20982,-10.82,0.70,1.36,0.13,-0.38,0.31,-53.48,1.58,23.28
20993,-10.82,0.70,1.36,0.13,-0.38,0.31,-53.48,1.58,23.28
21004,-10.38,-1.98,2.23,0.01,-0.39,-0.17,-53.48,1.58,23.28
21015,-10.38,-1.98,2.23,0.01,-0.39,-0.17,-53.48,1.58,23.28
21026,-8.99,-4.37,1.71,0.01,-0.17,-0.40,-53.48,1.58,23.28
21037,-8.99,-4.37,1.71,0.01,-0.17,-0.40,-53.48,1.58,23.28
21048,-9.18,-4.26,2.20,0.14,-0.06,-0.29,-53.48,1.58,23.28
21059,-9.42,-2.08,1.68,0.27,0.04,-0.07,-53.48,1.58,23.28
21075,-9.42,-2.08,1.68,0.27,0.04,-0.07,-53.48,1.58,23.28
21081,-10.66,0.91,1.88,0.28,0.05,0.03,-53.29,1.42,22.06
21092,-10.66,0.91,1.88,0.28,0.05,0.03,-53.29,1.42,22.06
21103,-10.13,0.92,2.55,0.11,0.06,-0.23,-53.29,1.42,22.06
21114,-10.13,0.92,2.55,0.11,0.06,-0.23,-53.29,1.42,22.06
21125,-9.89,-0.19,2.01,-0.10,0.13,-0.41,-53.29,1.42,22.06
21136,-9.89,-0.19,2.01,-0.10,0.13,-0.41,-53.29,1.42,22.06
21147,-9.23,-2.53,1.85,-0.13,0.16,-0.45,-53.29,1.42,22.06
21158,-9.23,-2.53,1.85,-0.13,0.16,-0.45,-53.29,1.42,22.06
21169,-9.11,-2.92,1.79,-0.07,0.25,-0.21,-53.29,1.42,22.06
21180,-9.03,-2.69,1.57,0.03,0.38,0.07,-53.29,1.42,22.06
21191,-9.03,-2.69,1.57,0.03,0.38,0.07,-53.29,1.42,22.06
21202,-11.84,-0.89,0.92,0.08,0.39,0.37,-53.29,1.42,22.06
21213,-11.84,-0.89,0.92,0.08,0.39,0.37,-53.29,1.42,22.06
21224,-10.17,1.00,1.89,-0.06,0.14,0.38,-54.46,2.71,24.84
21235,-10.17,1.00,1.89,-0.06,0.14,0.38,-54.46,2.71,24.84
21246,-9.67,-0.74,0.93,-0.07,0.05,0.14,-54.46,2.71,24.84
21257,-9.67,-0.74,0.93,-0.07,0.05,0.14,-54.46,2.71,24.84
21268,-9.52,-1.57,0.80,0.02,-0.17,0.20,-54.46,2.71,24.84
21279,-9.78,-1.11,1.92,0.12,-0.44,0.33,-54.46,2.71,24.84
21290,-9.78,-1.11,1.92,0.12,-0.44,0.33,-54.46,2.71,24.84
21301,-9.45,-0.66,1.02,0.25,-0.47,0.26,-54.46,2.71,24.84
21312,-9.45,-0.66,1.02,0.25,-0.47,0.26,-54.46,2.71,24.84
21323,-10.13,-0.16,2.77,0.34,-0.55,0.12,-54.46,2.71,24.84
21334,-10.13,-0.16,2.77,0.34,-0.55,0.12,-54.46,2.71,24.84
21345,-10.03,-1.18,2.34,0.20,-0.29,-0.06,-52.31,1.90,24.32
21356,-10.03,-1.18,2.34,0.20,-0.29,-0.06,-52.31,1.90,24.32
21367,-9.95,-1.08,1.80,0.01,-0.03,-0.06,-52.31,1.90,24.32
21378,-9.95,-1.08,1.80,0.01,-0.03,-0.06,-52.31,1.90,24.32
21389,-10.42,-0.96,3.46,-0.23,0.09,-0.04,-52.31,1.90,24.32
21400,-9.58,-1.27,1.00,-0.35,0.51,-0.01,-52.31,1.90,24.32
21412,-9.58,-1.27,1.00,-0.35,0.51,-0.01,-52.31,1.90,24.32
21422,-9.64,-1.41,1.55,-0.33,0.38,0.12,-52.31,1.90,24.32
21433,-9.64,-1.41,1.55,-0.33,0.38,0.12,-52.31,1.90,24.32
21444,-9.45,-0.34,1.22,-0.24,0.20,0.25,-52.31,1.90,24.32
21455,-9.45,-0.34,1.22,-0.24,0.20,0.25,-52.31,1.90,24.32
21466,-9.72,-0.38,1.58,-0.11,0.01,0.21,-54.07,3.67,24.84
21477,-9.72,-0.38,1.58,-0.11,0.01,0.21,-54.07,3.67,24.84
21488,-9.62,-1.05,1.08,-0.09,-0.22,0.21,-54.07,3.67,24.84
21499,-9.98,-0.08,1.77,-0.01,-0.40,0.18,-54.07,3.67,24.84
21510,-9.98,-0.08,1.77,-0.01,-0.40,0.18,-54.07,3.67,24.84
21521,-9.76,-1.04,1.59,0.10,-0.36,0.01,-54.07,3.67,24.84
21532,-9.76,-1.04,1.59,0.10,-0.36,0.01,-54.07,3.67,24.84
21543,-10.14,-0.60,2.57,0.02,-0.16,-0.02,-54.07,3.67,24.84
21554,-10.14,-0.60,2.57,0.02,-0.16,-0.02,-54.07,3.67,24.84
21565,-10.35,-0.71,3.23,-0.21,0.11,-0.03,-54.07,3.67,24.84
21576,-10.35,-0.71,3.23,-0.21,0.11,-0.03,-54.07,3.67,24.84
21587,-9.74,-0.81,1.00,-0.33,0.53,-0.03,-54.07,3.67,24.84
21598,-9.74,-0.81,1.00,-0.33,0.53,-0.03,-54.07,3.67,24.84
21609,-9.49,-1.14,-0.01,-0.29,0.43,0.07,-54.66,1.26,24.32
21620,-9.58,-0.61,1.29,-0.18,0.07,0.20,-54.66,1.26,24.32
21631,-9.58,-0.61,1.29,-0.18,0.07,0.20,-54.66,1.26,24.32
21642,-9.72,-0.51,1.92,-0.09,-0.08,0.20,-54.66,1.26,24.32
21653,-9.72,-0.51,1.92,-0.09,-0.08,0.20,-54.66,1.26,24.32
21664,-9.74,0.12,1.60,-0.08,-0.20,0.21,-54.66,1.26,24.32
21675,-9.74,0.12,1.60,-0.08,-0.20,0.21,-54.66,1.26,24.32
21686,-9.65,-0.70,1.60,-0.01,-0.30,0.06,-54.66,1.26,24.32
21697,-9.65,-0.70,1.60,-0.01,-0.30,0.06,-54.66,1.26,24.32
21708,-9.89,-1.10,2.07,0.11,-0.33,-0.02,-54.66,1.26,24.32
21719,-10.13,-0.89,2.61,0.05,-0.19,-0.01,-53.48,2.23,25.71
21730,-10.13,-0.89,2.61,0.05,-0.19,-0.01,-53.48,2.23,25.71
21741,-10.01,-0.85,1.81,-0.12,0.07,0.00,-53.48,2.23,25.71
21752,-10.01,-0.85,1.81,-0.12,0.07,0.00,-53.48,2.23,25.71
21763,-10.10,-0.49,2.16,-0.27,0.25,0.06,-53.48,2.23,25.71
21774,-10.10,-0.49,2.16,-0.27,0.25,0.06,-53.48,2.23,25.71
21785,-9.69,-0.37,0.58,-0.27,0.45,0.10,-53.48,2.23,25.71
21796,-9.69,-0.37,0.58,-0.27,0.45,0.10,-53.48,2.23,25.71
21807,-9.66,-0.77,1.55,-0.21,0.23,0.11,-53.48,2.23,25.71
21819,-9.66,-0.77,1.55,-0.21,0.23,0.11,-53.48,2.23,25.71
21829,-9.70,-0.39,2.01,-0.13,0.03,0.12,-53.48,2.23,25.71
21840,-9.83,0.27,1.52,-0.13,-0.10,0.14,-55.83,1.58,24.67
21851,-9.83,0.27,1.52,-0.13,-0.10,0.14,-55.83,1.58,24.67
21862,-9.77,-0.27,1.64,-0.10,-0.24,0.06,-55.83,1.58,24.67
21873,-9.77,-0.27,1.64,-0.10,-0.24,0.06,-55.83,1.58,24.67
21884,-9.95,-1.01,2.22,-0.00,-0.34,0.00,-55.83,1.58,24.67
21895,-9.95,-1.01,2.22,-0.00,-0.34,0.00,-55.83,1.58,24.67
21906,-10.19,-0.89,2.54,-0.03,-0.13,0.01,-55.83,1.58,24.67
21917,-10.19,-0.89,2.54,-0.03,-0.13,0.01,-55.83,1.58,24.67
21928,-10.23,-1.18,2.85,-0.24,0.15,0.05,-55.83,1.58,24.67
21939,-9.72,0.14,1.13,-0.33,0.43,0.15,-55.83,1.58,24.67
21950,-9.72,0.14,1.13,-0.33,0.43,0.15,-55.83,1.58,24.67
21961,-9.72,-0.42,1.35,-0.27,0.31,0.07,-54.27,3.19,25.02
21972,-9.72,-0.42,1.35,-0.27,0.31,0.07,-54.27,3.19,25.02
21983,-9.57,-0.47,1.03,-0.19,0.08,0.05,-54.27,3.19,25.02
21994,-9.57,-0.47,1.03,-0.19,0.08,0.05,-54.27,3.19,25.02
22005,-9.74,0.38,1.01,-0.18,-0.17,0.12,-54.27,3.19,25.02
22016,-9.74,0.38,1.01,-0.18,-0.17,0.12,-54.27,3.19,25.02
22027,-10.05,0.42,2.10,-0.16,-0.39,0.08,-54.27,3.19,25.02
22038,-10.05,0.42,2.10,-0.16,-0.39,0.08,-54.27,3.19,25.02
22049,-10.25,-0.72,2.80,-0.15,-0.33,-0.10,-54.27,3.19,25.02
22060,-10.00,-2.33,1.82,-0.16,0.09,-0.15,-54.27,3.19,25.02
22071,-10.00,-2.33,1.82,-0.16,0.09,-0.15,-54.27,3.19,25.02
22082,-9.63,-1.22,1.54,-0.18,0.30,0.14,-54.27,3.19,25.02
22093,-9.63,-1.22,1.54,-0.18,0.30,0.14,-54.27,3.19,25.02
22104,-9.82,0.62,1.51,-0.18,0.23,0.25,-54.27,2.87,24.67
22115,-9.82,0.62,1.51,-0.18,0.23,0.25,-54.27,2.87,24.67
22126,-9.91,0.10,1.24,-0.14,0.12,0.06,-54.27,2.87,24.67
22137,-9.91,0.10,1.24,-0.14,0.12,0.06,-54.27,2.87,24.67
22148,-9.49,-1.04,-0.02,-0.07,-0.05,-0.02,-54.27,2.87,24.67
22159,-9.49,-1.04,-0.02,-0.07,-0.05,-0.02,-54.27,2.87,24.67
22170,-9.95,0.13,1.69,0.05,-0.37,0.06,-54.27,2.87,24.67
22181,-9.85,-0.30,1.56,0.18,-0.37,-0.07,-54.27,2.87,24.67
22192,-9.85,-0.30,1.56,0.18,-0.37,-0.07,-54.27,2.87,24.67
22203,-10.03,-0.50,2.40,0.23,-0.28,-0.16,-54.27,2.87,24.67
22214,-10.03,-0.50,2.40,0.23,-0.28,-0.16,-54.27,2.87,24.67
22226,-10.13,-0.72,2.50,0.11,-0.03,-0.16,-54.85,3.35,25.54
22236,-10.13,-0.72,2.50,0.11,-0.03,-0.16,-54.85,3.35,25.54
22247,-10.10,-1.01,2.39,-0.06,0.28,-0.14,-54.85,3.35,25.54
22258,-10.10,-1.01,2.39,-0.06,0.28,-0.14,-54.85,3.35,25.54
22269,-9.53,-1.08,0.59,-0.09,0.47,-0.03,-54.85,3.35,25.54
22280,-9.57,-0.76,0.69,-0.10,0.28,0.13,-54.85,3.35,25.54
22291,-9.57,-0.76,0.69,-0.10,0.28,0.13,-54.85,3.35,25.54
22302,-9.66,-0.03,1.84,-0.14,0.07,0.26,-54.85,3.35,25.54
22313,-9.66,-0.03,1.84,-0.14,0.07,0.26,-54.85,3.35,25.54
22324,-9.73,0.22,1.98,-0.25,-0.03,0.32,-54.85,3.35,25.54
22335,-9.73,0.22,1.98,-0.25,-0.03,0.32,-54.85,3.35,25.54
22346,-9.85,-0.14,2.56,-0.45,-0.13,0.41,-53.48,2.55,23.97
22357,-9.85,-0.14,2.56,-0.45,-0.13,0.41,-53.48,2.55,23.97
22368,-10.22,0.30,1.34,-0.42,-0.07,0.34,-53.48,2.55,23.97
22379,-10.22,0.30,1.34,-0.42,-0.07,0.34,-53.48,2.55,23.97
22390,-10.05,-0.49,0.85,-0.13,0.06,0.01,-53.48,2.55,23.97
22401,-10.02,1.20,-0.02,0.09,0.10,-0.21,-53.48,2.55,23.97
22412,-10.02,1.20,-0.02,0.09,0.10,-0.21,-53.48,2.55,23.97
22423,-12.58,3.67,1.38,0.21,-0.03,-0.53,-53.48,2.55,23.97
22434,-12.58,3.67,1.38,0.21,-0.03,-0.53,-53.48,2.55,23.97
22445,-9.46,1.64,3.12,0.03,-0.27,-1.18,-53.48,2.55,23.97
22456,-9.46,1.64,3.12,0.03,-0.27,-1.18,-53.48,2.55,23.97
22467,-7.62,-3.07,1.81,-0.03,-0.19,-1.16,-53.48,2.55,23.97
22478,-7.62,-3.07,1.81,-0.03,-0.19,-1.16,-53.48,2.55,23.97
22489,-9.31,-0.55,2.02,0.05,-0.16,-0.14,-52.90,1.10,24.84
22500,-9.73,-1.64,1.56,0.09,-0.12,0.05,-52.90,1.10,24.84
22511,-9.73,-1.64,1.56,0.09,-0.12,0.05,-52.90,1.10,24.84
22522,-10.02,-2.19,1.65,0.02,-0.14,0.06,-52.90,1.10,24.84
22533,-10.02,-2.19,1.65,0.02,-0.14,0.06,-52.90,1.10,24.84
22544,-10.03,-3.11,1.55,0.07,-0.13,-0.13,-52.90,1.10,24.84
22555,-10.03,-3.11,1.55,0.07,-0.13,-0.13,-52.90,1.10,24.84
22566,-8.83,-4.58,1.73,0.19,-0.10,-0.32,-52.90,1.10,24.84
22577,-8.83,-4.58,1.73,0.19,-0.10,-0.32,-52.90,1.10,24.84
22588,-9.28,-2.58,1.99,0.37,-0.05,-0.04,-52.90,1.10,24.84
22599,-9.28,-2.58,1.99,0.37,-0.05,-0.04,-52.90,1.10,24.84
22610,-10.09,0.44,2.13,0.37,-0.01,0.20,-52.51,0.78,25.88
22621,-10.34,1.42,2.33,0.18,0.00,0.11,-52.51,0.78,25.88
22632,-10.34,1.42,2.33,0.18,0.00,0.11,-52.51,0.78,25.88
22643,-10.07,0.22,2.13,-0.04,0.01,-0.16,-52.51,0.78,25.88
22660,-10.07,0.22,2.13,-0.04,0.01,-0.16,-52.51,0.78,25.88
22665,-9.39,-1.99,2.05,-0.16,0.07,-0.22,-52.51,0.78,25.88
22676,-9.39,-1.99,2.05,-0.16,0.07,-0.22,-52.51,0.78,25.88
22687,-9.19,-2.57,1.86,-0.09,0.17,-0.02,-52.51,0.78,25.88
22698,-9.19,-2.57,1.86,-0.09,0.17,-0.02,-52.51,0.78,25.88
22709,-10.16,-2.20,1.59,0.04,0.24,0.24,-52.51,0.78,25.88
22720,-10.09,0.68,1.76,0.04,0.14,0.39,-51.53,1.26,25.36
22731,-10.09,0.68,1.76,0.04,0.14,0.39,-51.53,1.26,25.36
22742,-9.83,0.39,1.95,-0.06,0.03,0.16,-51.53,1.26,25.36
22753,-9.83,0.39,1.95,-0.06,0.03,0.16,-51.53,1.26,25.36
22764,-9.63,-0.64,1.48,-0.09,0.03,0.10,-51.53,1.26,25.36
22775,-9.63,-0.64,1.48,-0.09,0.03,0.10,-51.53,1.26,25.36
22786,-9.54,-1.15,1.13,-0.08,-0.12,0.17,-51.53,1.26,25.36
22797,-9.54,-1.15,1.13,-0.08,-0.12,0.17,-51.53,1.26,25.36
22808,-9.74,-1.02,2.01,0.03,-0.34,0.23,-51.53,1.26,25.36
22819,-9.74,-1.02,2.01,0.03,-0.34,0.23,-51.53,1.26,25.36
22830,-9.81,-0.47,1.67,0.16,-0.39,0.18,-51.53,1.26,25.36
22841,-10.02,-0.09,2.20,0.34,-0.34,0.01,-51.53,1.26,25.36
22852,-10.02,-0.09,2.20,0.34,-0.34,0.01,-51.53,1.26,25.36
22863,-10.10,-0.49,2.45,0.35,-0.22,-0.17,-53.09,2.23,25.71
22874,-10.10,-0.49,2.45,0.35,-0.22,-0.17,-53.09,2.23,25.71
22885,-10.24,-0.48,3.05,0.08,-0.03,-0.24,-53.09,2.23,25.71
22896,-10.24,-0.48,3.05,0.08,-0.03,-0.24,-53.09,2.23,25.71
22907,-9.79,-1.57,1.84,-0.11,0.34,-0.30,-53.09,2.23,25.71
22918,-9.79,-1.57,1.84,-0.11,0.34,-0.30,-53.09,2.23,25.71
22929,-9.71,-1.12,1.75,-0.17,0.41,-0.16,-53.09,2.23,25.71
22940,-9.86,-0.22,2.64,-0.27,0.35,0.01,-53.09,2.23,25.71
22951,-9.86,-0.22,2.64,-0.27,0.35,0.01,-53.09,2.23,25.71
22962,-9.54,-0.30,1.37,-0.34,0.39,0.10,-53.09,2.23,25.71
22973,-9.54,-0.30,1.37,-0.34,0.39,0.10,-53.09,2.23,25.71
22984,-9.69,-0.28,2.05,-0.38,0.18,0.15,-53.09,1.90,25.36
22995,-9.69,-0.28,2.05,-0.38,0.18,0.15,-53.09,1.90,25.36
23006,-9.65,-0.71,0.98,-0.33,-0.00,0.13,-53.09,1.90,25.36
23017,-9.65,-0.71,0.98,-0.33,-0.00,0.13,-53.09,1.90,25.36
23028,-9.58,-1.25,1.49,-0.17,-0.23,0.13,-53.09,1.90,25.36
23044,-9.58,-1.25,1.49,-0.17,-0.23,0.13,-53.09,1.90,25.36
23050,-9.68,-0.96,1.35,0.02,-0.33,0.12,-53.09,1.90,25.36
23061,-10.20,-0.47,2.54,0.10,-0.28,0.06,-53.09,1.90,25.36
23072,-10.20,-0.47,2.54,0.10,-0.28,0.06,-53.09,1.90,25.36
23083,-10.00,-0.96,1.86,-0.05,-0.01,0.03,-53.09,1.90,25.36
23094,-10.00,-0.96,1.86,-0.05,-0.01,0.03,-53.09,1.90,25.36
23105,-10.39,-0.78,3.04,-0.29,0.20,0.12,-53.88,1.90,26.41
23116,-10.39,-0.78,3.04,-0.29,0.20,0.12,-53.88,1.90,26.41
23127,-9.87,-0.83,2.15,-0.49,0.68,0.19,-53.88,1.90,26.41
23138,-9.87,-0.83,2.15,-0.49,0.68,0.19,-53.88,1.90,26.41
23149,-9.87,-0.69,0.18,-0.52,0.89,0.21,-53.88,1.90,26.41
23160,-9.87,-0.69,0.18,-0.52,0.89,0.21,-53.88,1.90,26.41
23171,-9.80,-1.69,3.49,-0.29,0.83,0.20,-53.88,1.90,26.41
23182,-9.42,-0.19,-1.35,-0.44,1.04,0.16,-53.88,1.90,26.41
