time,ax,ay,az,gx,gy,gz,mx,my,mz
401,-0.28,6.42,-7.94,-0.03,-0.01,-0.02,-31.81,21.69,-27.98
411,-0.27,6.33,-7.94,0.01,-0.00,-0.01,-31.81,21.69,-27.98
422,-0.27,6.33,-7.94,0.01,-0.00,-0.01,-31.81,21.69,-27.98
433,-0.28,6.36,-7.96,-0.01,-0.01,-0.02,-31.81,21.69,-27.98
444,-0.28,6.35,-7.99,-0.01,-0.00,-0.01,-31.23,21.21,-26.76
455,-0.28,6.35,-7.99,-0.01,-0.00,-0.01,-31.23,21.21,-26.76
466,-0.28,6.35,-7.99,-0.01,-0.00,-0.01,-31.23,21.21,-26.76
477,-0.28,6.35,-7.99,-0.01,-0.00,-0.01,-31.23,21.21,-26.76
488,-0.28,6.38,-7.94,-0.01,-0.00,-0.01,-31.23,21.21,-26.76
499,-0.28,6.38,-7.94,-0.01,-0.00,-0.01,-31.23,21.21,-26.76
510,-0.27,6.35,-7.95,-0.01,-0.00,-0.01,-31.23,21.21,-26.76
521,-0.27,6.35,-7.95,-0.01,-0.00,-0.01,-31.23,21.21,-26.76
532,-0.29,6.37,-7.94,-0.01,-0.00,-0.01,-31.23,21.21,-26.76
543,-0.29,6.37,-7.94,-0.01,-0.00,-0.01,-31.23,21.21,-26.76
554,-0.28,6.38,-7.94,-0.01,-0.00,-0.01,-31.23,21.21,-26.76
565,-0.30,6.37,-8.00,-0.01,-0.00,-0.01,-31.81,21.69,-29.02
576,-0.30,6.37,-8.00,-0.01,-0.00,-0.01,-31.81,21.69,-29.02
587,-0.30,6.35,-7.96,-0.01,-0.00,-0.01,-31.81,21.69,-29.02
598,-0.30,6.35,-7.96,-0.01,-0.00,-0.01,-31.81,21.69,-29.02
609,-0.27,6.36,-7.96,-0.01,0.00,-0.01,-31.81,21.69,-29.02
620,-0.27,6.36,-7.96,-0.01,0.00,-0.01,-31.81,21.69,-29.02
631,-0.28,6.34,-7.98,-0.01,-0.00,-0.01,-31.81,21.69,-29.02
642,-0.28,6.34,-7.98,-0.01,-0.00,-0.01,-31.81,21.69,-29.02
658,-0.30,6.36,-7.96,-0.01,0.00,-0.01,-31.81,21.69,-29.02
664,-0.29,6.38,-7.96,-0.01,0.00,-0.01,-31.81,21.69,-29.02
675,-0.29,6.38,-7.96,-0.01,0.00,-0.01,-31.81,21.69,-29.02
686,-0.28,6.38,-7.94,-0.01,0.00,-0.01,-31.81,21.69,-29.02
697,-0.28,6.38,-7.94,-0.01,0.00,-0.01,-31.81,21.69,-29.02
708,-0.28,6.40,-7.97,-0.02,-0.00,-0.01,-32.01,21.21,-28.15
719,-0.28,6.40,-7.97,-0.02,-0.00,-0.01,-32.01,21.21,-28.15
730,-0.27,6.36,-7.96,-0.01,0.00,-0.01,-32.01,21.21,-28.15
741,-0.27,6.36,-7.96,-0.01,0.00,-0.01,-32.01,21.21,-28.15
752,-0.28,6.35,-7.99,-0.01,0.00,-0.01,-32.01,21.21,-28.15
763,-0.28,6.35,-7.99,-0.01,0.00,-0.01,-32.01,21.21,-28.15
774,-0.30,6.37,-7.94,-0.01,0.00,-0.01,-32.01,21.21,-28.15
785,-0.30,6.39,-7.94,-0.01,0.00,-0.01,-32.01,21.21,-28.15
797,-0.30,6.39,-7.94,-0.01,0.00,-0.01,-32.01,21.21,-28.15
807,-0.29,6.39,-7.93,-0.01,-0.00,-0.01,-32.01,21.21,-28.15
818,-0.29,6.39,-7.93,-0.01,-0.00,-0.01,-32.01,21.21,-28.15
829,-0.28,6.38,-7.97,-0.01,0.00,-0.01,-31.81,20.73,-28.32
840,-0.28,6.38,-7.97,-0.01,0.00,-0.01,-31.81,20.73,-28.32
851,-0.28,6.37,-7.99,-0.01,0.00,-0.01,-31.81,20.73,-28.32
862,-0.28,6.37,-7.99,-0.01,0.00,-0.01,-31.81,20.73,-28.32
873,-0.30,6.35,-7.98,-0.01,0.00,-0.01,-31.81,20.73,-28.32
884,-0.29,6.38,-7.96,-0.01,0.00,-0.01,-31.81,20.73,-28.32
895,-0.29,6.38,-7.96,-0.01,0.00,-0.01,-31.81,20.73,-28.32
906,-0.28,6.39,-7.93,-0.01,0.00,-0.01,-31.81,20.73,-28.32
917,-0.28,6.39,-7.93,-0.01,0.00,-0.01,-31.81,20.73,-28.32
928,-0.29,6.38,-7.93,-0.01,0.00,-0.01,-31.81,20.73,-28.32
939,-0.29,6.38,-7.93,-0.01,0.00,-0.01,-31.81,20.73,-28.32
950,-0.29,6.36,-7.98,-0.01,0.00,-0.01,-32.99,22.01,-27.28
961,-0.29,6.36,-7.98,-0.01,0.00,-0.01,-32.99,22.01,-27.28
972,-0.30,6.37,-7.97,-0.01,0.00,-0.01,-32.99,22.01,-27.28
983,-0.30,6.37,-7.97,-0.01,0.00,-0.01,-32.99,22.01,-27.28
994,-0.29,6.38,-7.97,-0.01,0.00,-0.01,-32.99,22.01,-27.28
1005,-0.29,6.38,-7.94,-0.01,0.00,-0.01,-32.99,22.01,-27.28
1016,-0.29,6.38,-7.94,-0.01,0.00,-0.01,-32.99,22.01,-27.28
1027,-0.30,6.38,-7.95,-0.01,0.00,-0.01,-32.99,22.01,-27.28
1038,-0.30,6.38,-7.95,-0.01,0.00,-0.01,-32.99,22.01,-27.28
1049,-0.30,6.38,-7.96,-0.01,0.00,-0.01,-32.99,22.01,-27.28
1060,-0.30,6.38,-7.96,-0.01,0.00,-0.01,-32.99,22.01,-27.28
1071,-0.30,6.37,-7.96,-0.01,0.00,-0.01,-32.99,22.01,-27.28
1082,-0.30,6.37,-7.96,-0.01,0.00,-0.01,-32.99,22.01,-27.28
1093,-0.28,6.38,-7.96,-0.01,0.00,-0.01,-32.01,21.53,-28.15
1104,-0.28,6.38,-7.96,-0.01,0.00,-0.01,-32.01,21.53,-28.15
1115,-0.29,6.39,-7.94,-0.01,-0.00,-0.01,-32.01,21.53,-28.15
1126,-0.29,6.40,-7.93,-0.01,0.00,-0.01,-32.01,21.53,-28.15
1137,-0.29,6.40,-7.93,-0.01,0.00,-0.01,-32.01,21.53,-28.15
1148,-0.30,6.38,-7.94,-0.01,0.00,-0.01,-32.01,21.53,-28.15
1159,-0.30,6.38,-7.94,-0.01,0.00,-0.01,-32.01,21.53,-28.15
1170,-0.30,6.36,-7.95,-0.01,0.00,-0.01,-32.01,21.53,-28.15
1182,-0.30,6.36,-7.95,-0.01,0.00,-0.01,-32.01,21.53,-28.15
1192,-0.30,6.38,-7.94,-0.01,0.00,-0.01,-32.01,21.53,-28.15
1203,-0.30,6.38,-7.94,-0.01,0.00,-0.01,-32.01,21.53,-28.15
1214,-0.30,6.39,-7.99,-0.01,0.00,-0.01,-31.42,21.37,-29.02
1225,-0.31,6.39,-7.96,-0.01,0.00,-0.01,-31.42,21.37,-29.02
1236,-0.31,6.39,-7.96,-0.01,0.00,-0.01,-31.42,21.37,-29.02
1247,-0.29,6.38,-7.95,-0.01,0.00,-0.01,-31.42,21.37,-29.02
1258,-0.29,6.38,-7.95,-0.01,0.00,-0.01,-31.42,21.37,-29.02
1269,-0.29,6.37,-7.93,-0.01,0.00,-0.01,-31.42,21.37,-29.02
1280,-0.29,6.37,-7.93,-0.01,0.00,-0.01,-31.42,21.37,-29.02
1291,-0.30,6.38,-7.96,-0.01,0.00,-0.01,-31.42,21.37,-29.02
1302,-0.30,6.38,-7.96,-0.01,0.00,-0.01,-31.42,21.37,-29.02
1313,-0.31,6.38,-7.94,-0.01,0.00,-0.01,-31.42,21.37,-29.02
1324,-0.31,6.38,-7.94,-0.01,0.00,-0.01,-31.42,21.37,-29.02
1335,-0.29,6.37,-7.96,-0.01,0.00,-0.01,-31.81,22.01,-27.63
1346,-0.28,6.38,-7.97,-0.01,0.00,-0.01,-31.81,22.01,-27.63
1357,-0.28,6.38,-7.97,-0.01,0.00,-0.01,-31.81,22.01,-27.63
1368,-0.29,6.37,-7.95,-0.01,0.00,-0.01,-31.81,22.01,-27.63
1379,-0.29,6.37,-7.95,-0.01,0.00,-0.01,-31.81,22.01,-27.63
1390,-0.30,6.38,-7.95,-0.01,0.00,-0.01,-31.81,22.01,-27.63
1401,-0.30,6.38,-7.95,-0.01,0.00,-0.01,-31.81,22.01,-27.63
1413,-0.30,6.38,-7.94,-0.01,0.00,-0.01,-31.81,22.01,-27.63
1423,-0.30,6.38,-7.94,-0.01,0.00,-0.01,-31.81,22.01,-27.63
1434,-0.30,6.38,-7.94,-0.01,0.00,-0.01,-31.81,22.01,-27.63
1445,-0.28,6.36,-7.94,-0.01,0.00,-0.01,-32.60,20.40,-27.63
1456,-0.28,6.36,-7.94,-0.01,0.00,-0.01,-32.60,20.40,-27.63
1467,-0.29,6.40,-7.95,-0.01,0.00,-0.01,-32.60,20.40,-27.63
1478,-0.29,6.40,-7.95,-0.01,0.00,-0.01,-32.60,20.40,-27.63
1489,-0.30,6.39,-7.96,-0.01,0.00,-0.01,-32.60,20.40,-27.63
1500,-0.30,6.39,-7.96,-0.01,0.00,-0.01,-32.60,20.40,-27.63
1511,-0.30,6.34,-7.99,-0.00,0.00,-0.01,-32.60,20.40,-27.63
1522,-0.30,6.34,-7.99,-0.00,0.00,-0.01,-32.60,20.40,-27.63
1533,-0.32,6.36,-7.94,-0.01,0.00,-0.01,-32.60,20.40,-27.63
1544,-0.32,6.36,-7.94,-0.01,0.00,-0.01,-32.60,20.40,-27.63
1555,-0.32,6.39,-7.95,-0.01,-0.00,-0.01,-32.60,20.40,-27.63
1566,-0.35,6.45,-7.88,-0.02,-0.00,-0.01,-32.60,20.40,-27.63
1577,-0.35,6.45,-7.88,-0.02,-0.00,-0.01,-32.60,20.40,-27.63
1588,-0.28,6.42,-7.96,-0.00,0.00,-0.01,-31.23,20.89,-28.15
1599,-0.28,6.42,-7.96,-0.00,0.00,-0.01,-31.23,20.89,-28.15
1610,-0.25,6.32,-7.99,0.00,0.00,-0.01,-31.23,20.89,-28.15
1621,-0.25,6.32,-7.99,0.00,0.00,-0.01,-31.23,20.89,-28.15
1632,-0.28,6.31,-7.99,-0.00,0.00,-0.01,-31.23,20.89,-28.15
1643,-0.28,6.31,-7.99,-0.00,0.00,-0.01,-31.23,20.89,-28.15
1654,-0.33,6.42,-7.93,-0.02,-0.00,-0.01,-31.23,20.89,-28.15
1665,-0.34,6.44,-7.90,-0.02,-0.00,-0.01,-31.23,20.89,-28.15
1676,-0.34,6.44,-7.90,-0.02,-0.00,-0.01,-31.23,20.89,-28.15
1687,-0.29,6.41,-7.91,-0.00,0.00,-0.01,-31.23,20.89,-28.15
1698,-0.29,6.41,-7.91,-0.00,0.00,-0.01,-31.23,20.89,-28.15
1709,-0.26,6.36,-7.97,-0.00,0.00,-0.01,-34.55,21.05,-27.98
1720,-0.26,6.36,-7.97,-0.00,0.00,-0.01,-34.55,21.05,-27.98
1731,-0.28,6.34,-7.99,-0.01,0.00,-0.01,-34.55,21.05,-27.98
1742,-0.28,6.34,-7.99,-0.01,0.00,-0.01,-34.55,21.05,-27.98
1753,-0.30,6.38,-7.97,-0.01,0.00,-0.01,-34.55,21.05,-27.98
1764,-0.30,6.38,-7.97,-0.01,0.00,-0.01,-34.55,21.05,-27.98
1775,-0.34,6.41,-7.91,-0.02,0.00,-0.01,-34.55,21.05,-27.98
1786,-0.32,6.40,-7.91,-0.01,0.00,-0.01,-34.55,21.05,-27.98
1797,-0.32,6.40,-7.91,-0.01,0.00,-0.01,-34.55,21.05,-27.98
1808,-0.29,6.37,-7.94,-0.00,0.00,-0.01,-34.55,21.05,-27.98
1819,-0.29,6.37,-7.94,-0.00,0.00,-0.01,-34.55,21.05,-27.98
1830,-0.28,6.38,-7.98,-0.01,0.00,-0.01,-32.79,20.56,-28.15
1841,-0.28,6.38,-7.98,-0.01,0.00,-0.01,-32.79,20.56,-28.15
1852,-0.30,6.38,-7.97,-0.01,0.00,-0.01,-32.79,20.56,-28.15
1863,-0.30,6.38,-7.97,-0.01,0.00,-0.01,-32.79,20.56,-28.15
1874,-0.31,6.41,-7.91,-0.01,0.00,-0.01,-32.79,20.56,-28.15
1885,-0.30,6.40,-7.93,-0.01,0.00,-0.01,-32.79,20.56,-28.15
1896,-0.30,6.40,-7.93,-0.01,0.00,-0.01,-32.79,20.56,-28.15
1908,-0.30,6.38,-7.96,-0.01,0.00,-0.01,-32.79,20.56,-28.15
1918,-0.30,6.38,-7.96,-0.01,0.00,-0.01,-32.79,20.56,-28.15
1929,-0.29,6.35,-7.96,-0.01,0.00,-0.01,-32.79,20.56,-28.15
1940,-0.29,6.35,-7.96,-0.01,0.00,-0.01,-32.79,20.56,-28.15
1951,-0.31,6.38,-7.92,-0.01,0.00,-0.01,-32.79,20.56,-28.15
1962,-0.31,6.38,-7.92,-0.01,0.00,-0.01,-32.79,20.56,-28.15
1973,-0.33,6.41,-7.94,-0.01,0.00,-0.01,-32.40,20.56,-27.80
1984,-0.33,6.41,-7.94,-0.01,0.00,-0.01,-32.40,20.56,-27.80
1995,-0.29,6.41,-7.93,-0.01,0.00,-0.01,-32.40,20.56,-27.80
2006,-0.29,6.39,-7.94,-0.01,0.00,-0.01,-32.40,20.56,-27.80
2017,-0.29,6.39,-7.94,-0.01,0.00,-0.01,-32.40,20.56,-27.80
2028,-0.26,6.37,-7.96,-0.01,0.00,-0.01,-32.40,20.56,-27.80
2039,-0.26,6.37,-7.96,-0.01,0.00,-0.01,-32.40,20.56,-27.80
2050,-0.31,6.37,-7.95,-0.01,0.00,-0.01,-32.40,20.56,-27.80
2061,-0.31,6.37,-7.95,-0.01,0.00,-0.01,-32.40,20.56,-27.80
2072,-0.34,6.41,-7.92,-0.01,0.00,-0.01,-32.40,20.56,-27.80
2083,-0.34,6.41,-7.92,-0.01,0.00,-0.01,-32.40,20.56,-27.80
2094,-0.32,6.40,-7.93,-0.01,0.00,-0.01,-32.40,20.24,-28.50
2105,-0.30,6.37,-7.95,-0.00,0.00,-0.01,-32.40,20.24,-28.50
2116,-0.30,6.37,-7.95,-0.00,0.00,-0.01,-32.40,20.24,-28.50
2127,-0.30,6.38,-7.95,-0.01,0.00,-0.01,-32.40,20.24,-28.50
2138,-0.30,6.38,-7.95,-0.01,0.00,-0.01,-32.40,20.24,-28.50
2149,-0.31,6.37,-7.94,-0.01,0.00,-0.01,-32.40,20.24,-28.50
2160,-0.31,6.37,-7.94,-0.01,0.00,-0.01,-32.40,20.24,-28.50
2171,-0.32,6.39,-7.93,-0.01,0.00,-0.01,-32.40,20.24,-28.50
2182,-0.32,6.39,-7.93,-0.01,0.00,-0.01,-32.40,20.24,-28.50
2193,-0.32,6.40,-7.94,-0.01,0.00,-0.01,-32.40,20.24,-28.50
2204,-0.32,6.40,-7.94,-0.01,0.00,-0.01,-32.40,20.24,-28.50
2215,-0.30,6.38,-7.96,-0.01,0.00,-0.01,-32.01,21.85,-27.11
2226,-0.29,6.37,-7.96,-0.01,0.00,-0.01,-32.01,21.85,-27.11
2237,-0.29,6.37,-7.96,-0.01,0.00,-0.01,-32.01,21.85,-27.11
2248,-0.30,6.38,-7.94,-0.01,0.00,-0.01,-32.01,21.85,-27.11
2259,-0.30,6.38,-7.94,-0.01,0.00,-0.01,-32.01,21.85,-27.11
2270,-0.32,6.40,-7.93,-0.01,0.00,-0.01,-32.01,21.85,-27.11
2281,-0.32,6.40,-7.93,-0.01,0.00,-0.01,-32.01,21.85,-27.11
2292,-0.31,6.39,-7.94,-0.01,0.00,-0.01,-32.01,21.85,-27.11
2303,-0.31,6.39,-7.94,-0.01,0.00,-0.01,-32.01,21.85,-27.11
2314,-0.30,6.38,-7.93,-0.01,0.00,-0.01,-32.01,21.85,-27.11
2325,-0.30,6.38,-7.93,-0.01,0.00,-0.01,-32.01,21.85,-27.11
2336,-0.29,6.37,-7.94,-0.01,0.00,-0.01,-32.01,21.85,-27.11
2347,-0.31,6.38,-7.96,-0.01,0.00,-0.01,-31.81,21.37,-26.93
2358,-0.31,6.38,-7.96,-0.01,0.00,-0.01,-31.81,21.37,-26.93
2369,-0.32,6.38,-7.94,-0.01,0.00,-0.01,-31.81,21.37,-26.93
2380,-0.32,6.38,-7.94,-0.01,0.00,-0.01,-31.81,21.37,-26.93
2391,-0.31,6.41,-7.95,-0.01,0.00,-0.01,-31.81,21.37,-26.93
2402,-0.31,6.41,-7.95,-0.01,0.00,-0.01,-31.81,21.37,-26.93
2413,-0.31,6.39,-7.94,-0.01,0.00,-0.01,-31.81,21.37,-26.93
2424,-0.31,6.39,-7.94,-0.01,0.00,-0.01,-31.81,21.37,-26.93
2435,-0.31,6.36,-7.93,-0.01,0.00,-0.01,-31.81,21.37,-26.93
2446,-0.31,6.40,-7.96,-0.01,0.00,-0.01,-31.81,21.37,-26.93
2457,-0.31,6.40,-7.96,-0.01,0.00,-0.01,-31.81,21.37,-26.93
2469,-0.31,6.40,-7.96,-0.01,0.00,-0.01,-31.42,21.37,-27.63
2479,-0.31,6.40,-7.96,-0.01,0.00,-0.01,-31.42,21.37,-27.63
2490,-0.30,6.40,-7.93,-0.01,0.00,-0.01,-31.42,21.37,-27.63
2501,-0.30,6.40,-7.93,-0.01,0.00,-0.01,-31.42,21.37,-27.63
2512,-0.31,6.39,-7.92,-0.01,0.00,-0.01,-31.42,21.37,-27.63
2523,-0.31,6.39,-7.92,-0.01,0.00,-0.01,-31.42,21.37,-27.63
2534,-0.30,6.39,-7.98,-0.01,0.00,-0.01,-31.42,21.37,-27.63
2545,-0.30,6.39,-7.98,-0.01,0.00,-0.01,-31.42,21.37,-27.63
2556,-0.30,6.38,-7.95,-0.01,0.00,-0.01,-31.42,21.37,-27.63
2567,-0.31,6.39,-7.92,-0.01,0.00,-0.01,-31.42,21.37,-27.63
2578,-0.31,6.39,-7.92,-0.01,0.00,-0.01,-31.42,21.37,-27.63
2589,-0.32,6.40,-7.96,-0.01,0.00,-0.01,-33.77,22.01,-27.98
2600,-0.32,6.40,-7.96,-0.01,0.00,-0.01,-33.77,22.01,-27.98
2611,-0.29,6.40,-7.92,-0.01,0.00,-0.01,-33.77,22.01,-27.98
2622,-0.29,6.40,-7.92,-0.01,0.00,-0.01,-33.77,22.01,-27.98
2633,-0.29,6.39,-7.94,-0.01,0.00,-0.01,-33.77,22.01,-27.98
2644,-0.29,6.39,-7.94,-0.01,0.00,-0.01,-33.77,22.01,-27.98
2655,-0.29,6.40,-7.96,-0.01,0.00,-0.01,-33.77,22.01,-27.98
2666,-0.30,6.39,-7.94,-0.01,0.00,-0.01,-33.77,22.01,-27.98
2677,-0.30,6.39,-7.94,-0.01,0.00,-0.01,-33.77,22.01,-27.98
2688,-0.32,6.40,-7.95,-0.01,0.00,-0.01,-33.77,22.01,-27.98
2700,-0.32,6.40,-7.95,-0.01,0.00,-0.01,-33.77,22.01,-27.98
2710,-0.32,6.39,-7.95,-0.01,0.00,-0.01,-33.77,22.01,-27.98
2721,-0.32,6.39,-7.95,-0.01,0.00,-0.01,-33.77,22.01,-27.98
2732,-0.33,6.38,-7.95,-0.01,0.00,-0.01,-32.40,20.56,-28.50
2743,-0.33,6.38,-7.95,-0.01,0.00,-0.01,-32.40,20.56,-28.50
2754,-0.31,6.39,-7.93,-0.01,0.00,-0.01,-32.40,20.56,-28.50
2765,-0.31,6.39,-7.93,-0.01,0.00,-0.01,-32.40,20.56,-28.50
2776,-0.31,6.40,-7.96,-0.01,0.00,-0.01,-32.40,20.56,-28.50
2787,-0.30,6.38,-7.93,-0.01,0.00,-0.01,-32.40,20.56,-28.50
2798,-0.30,6.38,-7.93,-0.01,0.00,-0.01,-32.40,20.56,-28.50
2809,-0.30,6.39,-7.94,-0.01,0.00,-0.01,-32.40,20.56,-28.50
2820,-0.30,6.39,-7.94,-0.01,0.00,-0.01,-32.40,20.56,-28.50
2831,-0.31,6.39,-7.93,-0.01,0.00,-0.01,-32.40,20.56,-28.50
2842,-0.31,6.39,-7.93,-0.01,0.00,-0.01,-32.40,20.56,-28.50
2853,-0.30,6.39,-7.96,-0.01,0.00,-0.01,-32.40,20.89,-27.80
2864,-0.30,6.39,-7.96,-0.01,0.00,-0.01,-32.40,20.89,-27.80
2875,-0.32,6.38,-7.95,-0.01,0.00,-0.01,-32.40,20.89,-27.80
2886,-0.31,6.39,-7.93,-0.01,0.00,-0.01,-32.40,20.89,-27.80
2897,-0.31,6.39,-7.93,-0.01,0.00,-0.01,-32.40,20.89,-27.80
2908,-0.30,6.40,-7.94,-0.01,0.00,-0.01,-32.40,20.89,-27.80
2919,-0.30,6.40,-7.94,-0.01,0.00,-0.01,-32.40,20.89,-27.80
2930,-0.30,6.38,-7.95,-0.01,0.00,-0.01,-32.40,20.89,-27.80
2941,-0.30,6.38,-7.95,-0.01,0.00,-0.01,-32.40,20.89,-27.80
2952,-0.29,6.38,-7.93,-0.01,0.00,-0.01,-32.40,20.89,-27.80
2963,-0.29,6.38,-7.93,-0.01,0.00,-0.01,-32.40,20.89,-27.80
2974,-0.31,6.40,-7.95,-0.01,0.00,-0.01,-31.81,21.05,-26.93
2985,-0.31,6.40,-7.95,-0.01,0.00,-0.01,-31.81,21.05,-26.93
2996,-0.32,6.40,-7.93,-0.01,0.00,-0.01,-31.81,21.05,-26.93
3007,-0.31,6.39,-7.93,-0.01,0.00,-0.01,-31.81,21.05,-26.93
3018,-0.31,6.39,-7.93,-0.01,0.00,-0.01,-31.81,21.05,-26.93
3029,-0.29,6.39,-7.94,-0.01,0.00,-0.01,-31.81,21.05,-26.93
3040,-0.29,6.39,-7.94,-0.01,0.00,-0.01,-31.81,21.05,-26.93
3051,-0.30,6.39,-7.95,-0.01,0.00,-0.01,-31.81,21.05,-26.93
3062,-0.30,6.39,-7.95,-0.01,0.00,-0.01,-31.81,21.05,-26.93
3073,-0.31,6.38,-7.94,-0.01,0.00,-0.01,-31.81,21.05,-26.93
3084,-0.31,6.38,-7.94,-0.01,0.00,-0.01,-31.81,21.05,-26.93
3095,-0.31,6.40,-7.94,-0.01,0.00,-0.01,-31.62,21.53,-28.50
3106,-0.31,6.38,-7.95,-0.01,0.00,-0.01,-31.62,21.53,-28.50
3117,-0.31,6.38,-7.95,-0.01,0.00,-0.01,-31.62,21.53,-28.50
3128,-0.31,6.39,-7.94,-0.01,0.00,-0.01,-31.62,21.53,-28.50
3139,-0.31,6.39,-7.94,-0.01,0.00,-0.01,-31.62,21.53,-28.50
3150,-0.30,6.38,-7.92,-0.01,0.00,-0.01,-31.62,21.53,-28.50
3161,-0.30,6.38,-7.92,-0.01,0.00,-0.01,-31.62,21.53,-28.50
3172,-0.31,6.39,-7.95,-0.01,0.00,-0.01,-31.62,21.53,-28.50
3183,-0.31,6.39,-7.95,-0.01,0.00,-0.01,-31.62,21.53,-28.50
3194,-0.31,6.39,-7.93,-0.01,0.00,-0.01,-31.62,21.53,-28.50
3205,-0.31,6.39,-7.93,-0.01,0.00,-0.01,-31.62,21.53,-28.50
3217,-0.32,6.38,-7.93,-0.01,0.00,-0.01,-31.62,21.53,-28.50
3227,-0.31,6.40,-7.95,-0.01,0.00,-0.01,-32.20,20.73,-27.98
3238,-0.31,6.40,-7.95,-0.01,0.00,-0.01,-32.20,20.73,-27.98
3249,-0.32,6.39,-7.95,-0.01,0.00,-0.01,-32.20,20.73,-27.98
3260,-0.32,6.39,-7.95,-0.01,0.00,-0.01,-32.20,20.73,-27.98
3271,-0.29,6.40,-7.93,-0.01,0.00,-0.01,-32.20,20.73,-27.98
3282,-0.29,6.40,-7.93,-0.01,0.00,-0.01,-32.20,20.73,-27.98
3293,-0.31,6.39,-7.94,-0.01,0.00,-0.01,-32.20,20.73,-27.98
3304,-0.31,6.39,-7.94,-0.01,0.00,-0.01,-32.20,20.73,-27.98
3315,-0.31,6.39,-7.92,-0.01,0.00,-0.01,-32.20,20.73,-27.98
3326,-0.31,6.39,-7.92,-0.01,0.00,-0.01,-32.20,20.73,-27.98
3337,-0.31,6.39,-7.92,-0.01,0.00,-0.01,-32.20,20.73,-27.98
3348,-0.31,6.40,-7.95,-0.01,0.00,-0.01,-31.62,19.92,-28.15
3359,-0.31,6.40,-7.95,-0.01,0.00,-0.01,-31.62,19.92,-28.15
3370,-0.31,6.38,-7.94,-0.01,0.00,-0.01,-31.62,19.92,-28.15
3381,-0.31,6.38,-7.94,-0.01,0.00,-0.01,-31.62,19.92,-28.15
3392,-0.32,6.39,-7.93,-0.01,0.00,-0.01,-31.62,19.92,-28.15
3403,-0.32,6.39,-7.93,-0.01,0.00,-0.01,-31.62,19.92,-28.15
3414,-0.32,6.39,-7.95,-0.01,0.00,-0.01,-31.62,19.92,-28.15
3425,-0.32,6.39,-7.95,-0.01,0.00,-0.01,-31.62,19.92,-28.15
3436,-0.31,6.40,-7.93,-0.01,0.00,-0.01,-31.62,19.92,-28.15
3447,-0.31,6.39,-7.94,-0.01,0.00,-0.01,-31.62,19.92,-28.15
3458,-0.31,6.39,-7.94,-0.01,0.00,-0.01,-31.62,19.92,-28.15
3469,-0.31,6.39,-7.95,-0.01,0.00,-0.01,-33.77,21.05,-27.98
3480,-0.31,6.39,-7.95,-0.01,0.00,-0.01,-33.77,21.05,-27.98
3491,-0.32,6.39,-7.94,-0.01,0.00,-0.01,-33.77,21.05,-27.98
3502,-0.32,6.39,-7.94,-0.01,0.00,-0.01,-33.77,21.05,-27.98
3513,-0.33,6.39,-7.94,-0.01,0.00,-0.01,-33.77,21.05,-27.98
3524,-0.33,6.39,-7.94,-0.01,0.00,-0.01,-33.77,21.05,-27.98
3535,-0.31,6.38,-7.92,-0.01,0.00,-0.01,-33.77,21.05,-27.98
3546,-0.31,6.38,-7.92,-0.01,0.00,-0.01,-33.77,21.05,-27.98
3557,-0.31,6.39,-7.92,-0.01,0.00,-0.01,-33.77,21.05,-27.98
3568,-0.31,6.39,-7.93,-0.01,0.00,-0.01,-33.77,21.05,-27.98
3579,-0.31,6.39,-7.93,-0.01,0.00,-0.01,-33.77,21.05,-27.98
3590,-0.30,6.40,-7.95,-0.01,0.00,-0.01,-33.77,21.05,-27.98
3601,-0.30,6.40,-7.95,-0.01,0.00,-0.01,-33.77,21.05,-27.98
3612,-0.31,6.39,-7.95,-0.01,0.00,-0.01,-31.23,21.21,-26.76
3623,-0.31,6.39,-7.95,-0.01,0.00,-0.01,-31.23,21.21,-26.76
3634,-0.32,6.39,-7.95,-0.01,0.00,-0.01,-31.23,21.21,-26.76
3645,-0.32,6.39,-7.95,-0.01,0.00,-0.01,-31.23,21.21,-26.76
3656,-0.31,6.39,-7.94,-0.01,0.00,-0.01,-31.23,21.21,-26.76
3668,-0.31,6.39,-7.95,-0.01,0.00,-0.01,-31.23,21.21,-26.76
3678,-0.31,6.39,-7.95,-0.01,0.00,-0.01,-31.23,21.21,-26.76
3689,-0.33,6.40,-7.91,-0.01,0.00,-0.01,-31.23,21.21,-26.76
3700,-0.33,6.40,-7.91,-0.01,0.00,-0.01,-31.23,21.21,-26.76
3711,-0.31,6.38,-7.92,-0.01,0.00,-0.01,-31.23,21.21,-26.76
3722,-0.31,6.38,-7.92,-0.01,0.00,-0.01,-31.23,21.21,-26.76
3733,-0.31,6.40,-7.95,-0.01,0.00,-0.01,-33.18,21.21,-27.45
3744,-0.31,6.40,-7.95,-0.01,0.00,-0.01,-33.18,21.21,-27.45
3755,-0.29,6.40,-7.93,-0.01,0.00,-0.01,-33.18,21.21,-27.45
3766,-0.29,6.40,-7.93,-0.01,0.00,-0.01,-33.18,21.21,-27.45
3777,-0.32,6.38,-7.93,-0.01,0.00,-0.01,-33.18,21.21,-27.45
3788,-0.32,6.39,-7.93,-0.01,0.00,-0.01,-33.18,21.21,-27.45
3799,-0.32,6.39,-7.93,-0.01,0.00,-0.01,-33.18,21.21,-27.45
3810,-0.29,6.40,-7.93,-0.01,0.00,-0.01,-33.18,21.21,-27.45
3821,-0.29,6.40,-7.93,-0.01,0.00,-0.01,-33.18,21.21,-27.45
3832,-0.30,6.39,-7.91,-0.01,0.00,-0.01,-33.18,21.21,-27.45
3843,-0.30,6.39,-7.91,-0.01,0.00,-0.01,-33.18,21.21,-27.45
3854,-0.30,6.39,-7.93,-0.01,0.00,-0.01,-33.57,21.21,-27.11
3865,-0.30,6.39,-7.93,-0.01,0.00,-0.01,-33.57,21.21,-27.11
3876,-0.31,6.40,-7.95,-0.01,0.00,-0.01,-33.57,21.21,-27.11
3887,-0.32,6.38,-7.94,-0.01,0.00,-0.01,-33.57,21.21,-27.11
3898,-0.32,6.38,-7.94,-0.01,0.00,-0.01,-33.57,21.21,-27.11
3909,-0.32,6.39,-7.93,-0.01,0.00,-0.01,-33.57,21.21,-27.11
3920,-0.32,6.39,-7.93,-0.01,0.00,-0.01,-33.57,21.21,-27.11
3931,-0.30,6.39,-7.95,-0.01,0.00,-0.01,-33.57,21.21,-27.11
3942,-0.30,6.39,-7.95,-0.01,0.00,-0.01,-33.57,21.21,-27.11
3953,-0.32,6.39,-7.96,-0.01,0.00,-0.01,-33.57,21.21,-27.11
3964,-0.32,6.39,-7.96,-0.01,0.00,-0.01,-33.57,21.21,-27.11
3975,-0.32,6.39,-7.92,-0.01,0.00,-0.01,-33.57,21.21,-27.11
3986,-0.32,6.39,-7.92,-0.01,0.00,-0.01,-33.57,21.21,-27.11
3997,-0.32,6.38,-7.96,-0.01,0.00,-0.01,-32.99,22.01,-28.32
4008,-0.33,6.39,-7.94,-0.01,0.00,-0.01,-32.99,22.01,-28.32
4019,-0.33,6.39,-7.94,-0.01,0.00,-0.01,-32.99,22.01,-28.32
4030,-0.32,6.39,-7.93,-0.01,0.00,-0.01,-32.99,22.01,-28.32
4041,-0.32,6.39,-7.93,-0.01,0.00,-0.01,-32.99,22.01,-28.32
4052,-0.31,6.38,-7.91,-0.01,0.00,-0.01,-32.99,22.01,-28.32
4063,-0.31,6.38,-7.91,-0.01,0.00,-0.01,-32.99,22.01,-28.32
4074,-0.30,6.39,-7.94,-0.01,0.00,-0.01,-32.99,22.01,-28.32
4085,-0.30,6.39,-7.94,-0.01,0.00,-0.01,-32.99,22.01,-28.32
4096,-0.29,6.39,-7.93,-0.01,0.00,-0.01,-32.99,22.01,-28.32
4107,-0.30,6.38,-7.94,-0.01,0.00,-0.01,-32.99,22.01,-28.32
4118,-0.30,6.38,-7.94,-0.01,0.00,-0.01,-31.42,20.73,-27.98
4129,-0.31,6.38,-7.93,-0.01,0.00,-0.01,-31.42,20.73,-27.98
4140,-0.31,6.38,-7.93,-0.01,0.00,-0.01,-31.42,20.73,-27.98
4151,-0.31,6.38,-7.93,-0.01,0.00,-0.01,-31.42,20.73,-27.98
4162,-0.31,6.38,-7.93,-0.01,0.00,-0.01,-31.42,20.73,-27.98
4173,-0.31,6.39,-7.92,-0.01,0.00,-0.01,-31.42,20.73,-27.98
4184,-0.31,6.39,-7.92,-0.01,0.00,-0.01,-31.42,20.73,-27.98
4195,-0.32,6.40,-7.94,-0.01,0.00,-0.01,-31.42,20.73,-27.98
4207,-0.32,6.40,-7.94,-0.01,0.00,-0.01,-31.42,20.73,-27.98
4217,-0.31,6.38,-7.94,-0.01,0.00,-0.01,-31.42,20.73,-27.98
4228,-0.31,6.39,-7.96,-0.01,0.00,-0.01,-33.96,21.85,-29.54
4239,-0.31,6.39,-7.96,-0.01,0.00,-0.01,-33.96,21.85,-29.54
4250,-0.30,6.38,-7.95,-0.01,0.00,-0.01,-33.96,21.85,-29.54
4261,-0.30,6.38,-7.95,-0.01,0.00,-0.01,-33.96,21.85,-29.54
4272,-0.32,6.38,-7.93,-0.01,0.00,-0.01,-33.96,21.85,-29.54
4283,-0.32,6.38,-7.93,-0.01,0.00,-0.01,-33.96,21.85,-29.54
4294,-0.31,6.39,-7.91,-0.01,0.00,-0.01,-33.96,21.85,-29.54
4305,-0.31,6.39,-7.91,-0.01,0.00,-0.01,-33.96,21.85,-29.54
4316,-0.32,6.39,-7.93,-0.01,0.00,-0.01,-33.96,21.85,-29.54
4327,-0.32,6.39,-7.93,-0.01,0.00,-0.01,-33.96,21.85,-29.54
4338,-0.31,6.37,-7.93,-0.01,0.00,-0.01,-33.96,21.85,-29.54
4349,-0.30,6.39,-7.93,-0.01,0.00,-0.01,-33.96,21.85,-29.54
4360,-0.30,6.39,-7.93,-0.01,0.00,-0.01,-33.96,21.85,-29.54
4371,-0.32,6.39,-7.95,-0.01,0.00,-0.01,-32.99,21.05,-27.28
4382,-0.32,6.39,-7.95,-0.01,0.00,-0.01,-32.99,21.05,-27.28
4393,-0.31,6.39,-7.93,-0.01,0.00,-0.01,-32.99,21.05,-27.28
4404,-0.31,6.39,-7.93,-0.01,0.00,-0.01,-32.99,21.05,-27.28
4415,-0.32,6.40,-7.93,-0.01,0.00,-0.01,-32.99,21.05,-27.28
4426,-0.32,6.40,-7.93,-0.01,0.00,-0.01,-32.99,21.05,-27.28
4437,-0.31,6.38,-7.94,-0.01,0.00,-0.01,-32.99,21.05,-27.28
4448,-0.33,6.40,-7.93,-0.01,0.00,-0.01,-32.99,21.05,-27.28
4459,-0.33,6.40,-7.93,-0.01,0.00,-0.01,-32.99,21.05,-27.28
4470,-0.31,6.40,-7.95,-0.01,0.00,-0.01,-32.99,21.05,-27.28
4481,-0.31,6.40,-7.95,-0.01,0.00,-0.01,-32.99,21.05,-27.28
4492,-0.30,6.38,-7.95,-0.01,0.00,-0.01,-31.03,21.37,-28.32
4503,-0.30,6.38,-7.95,-0.01,0.00,-0.01,-31.03,21.37,-28.32
4514,-0.32,6.40,-7.95,-0.01,0.00,-0.01,-31.03,21.37,-28.32
4525,-0.32,6.40,-7.95,-0.01,0.00,-0.01,-31.03,21.37,-28.32
4536,-0.32,6.39,-7.96,-0.01,0.00,-0.01,-31.03,21.37,-28.32
4547,-0.32,6.39,-7.96,-0.01,0.00,-0.01,-31.03,21.37,-28.32
4558,-0.33,6.38,-7.94,-0.01,0.00,-0.01,-31.03,21.37,-28.32
4569,-0.32,6.39,-7.93,-0.01,0.00,-0.01,-31.03,21.37,-28.32
4580,-0.32,6.39,-7.93,-0.01,0.00,-0.01,-31.03,21.37,-28.32
4591,-0.31,6.39,-7.97,-0.01,0.00,-0.01,-31.03,21.37,-28.32
4602,-0.31,6.39,-7.97,-0.01,0.00,-0.01,-31.03,21.37,-28.32
4613,-0.31,6.39,-7.95,-0.01,0.00,-0.01,-32.60,20.73,-28.32
4624,-0.31,6.39,-7.95,-0.01,0.00,-0.01,-32.60,20.73,-28.32
4635,-0.31,6.39,-7.95,-0.01,0.00,-0.01,-32.60,20.73,-28.32
4646,-0.31,6.39,-7.95,-0.01,0.00,-0.01,-32.60,20.73,-28.32
4657,-0.31,6.39,-7.96,-0.01,0.00,-0.01,-32.60,20.73,-28.32
4668,-0.32,6.38,-7.94,-0.01,0.00,-0.01,-32.60,20.73,-28.32
4679,-0.32,6.38,-7.94,-0.01,0.00,-0.01,-32.60,20.73,-28.32
4690,-0.30,6.38,-7.93,-0.01,0.00,-0.01,-32.60,20.73,-28.32
4701,-0.30,6.38,-7.93,-0.01,0.00,-0.01,-32.60,20.73,-28.32
4712,-0.30,6.38,-7.92,-0.01,0.00,-0.01,-32.60,20.73,-28.32
4724,-0.30,6.38,-7.92,-0.01,0.00,-0.01,-32.60,20.73,-28.32
4734,-0.33,6.40,-7.95,-0.01,0.00,-0.01,-30.84,21.85,-26.41
4745,-0.33,6.40,-7.95,-0.01,0.00,-0.01,-30.84,21.85,-26.41
4756,-0.31,6.38,-7.96,-0.01,0.00,-0.01,-30.84,21.85,-26.41
4767,-0.31,6.38,-7.96,-0.01,0.00,-0.01,-30.84,21.85,-26.41
4778,-0.32,6.39,-7.94,-0.01,0.00,-0.01,-30.84,21.85,-26.41
4789,-0.31,6.40,-7.94,-0.01,0.00,-0.01,-30.84,21.85,-26.41
4800,-0.31,6.40,-7.94,-0.01,0.00,-0.01,-30.84,21.85,-26.41
4811,-0.31,6.40,-7.93,-0.01,0.00,-0.01,-30.84,21.85,-26.41
4822,-0.31,6.40,-7.93,-0.01,0.00,-0.01,-30.84,21.85,-26.41
4833,-0.31,6.40,-7.93,-0.01,0.00,-0.01,-30.84,21.85,-26.41
4844,-0.31,6.40,-7.93,-0.01,0.00,-0.01,-30.84,21.85,-26.41
4855,-0.30,6.39,-7.95,-0.01,0.00,-0.01,-30.84,21.85,-26.41
4866,-0.30,6.39,-7.95,-0.01,0.00,-0.01,-30.84,21.85,-26.41
4877,-0.31,6.39,-7.96,-0.01,0.00,-0.01,-31.81,21.05,-27.63
4888,-0.32,6.40,-7.96,-0.01,0.00,-0.01,-31.81,21.05,-27.63
4899,-0.32,6.40,-7.96,-0.01,0.00,-0.01,-31.81,21.05,-27.63
4910,-0.31,6.39,-7.94,-0.01,0.00,-0.01,-31.81,21.05,-27.63
4921,-0.31,6.39,-7.94,-0.01,0.00,-0.01,-31.81,21.05,-27.63
4932,-0.31,6.39,-7.93,-0.01,0.00,-0.01,-31.81,21.05,-27.63
4943,-0.31,6.39,-7.93,-0.01,0.00,-0.01,-31.81,21.05,-27.63
4955,-0.30,6.40,-7.92,-0.01,0.00,-0.01,-31.81,21.05,-27.63
4965,-0.30,6.40,-7.92,-0.01,0.00,-0.01,-31.81,21.05,-27.63
4976,-0.30,6.39,-7.94,-0.01,0.00,-0.01,-31.81,21.05,-27.63
4987,-0.30,6.39,-7.94,-0.01,0.00,-0.01,-31.81,21.05,-27.63
4998,-0.31,6.39,-7.96,-0.01,0.00,-0.01,-32.20,21.37,-28.67
5009,-0.32,6.39,-7.95,-0.01,0.00,-0.01,-32.20,21.37,-28.67
5020,-0.32,6.39,-7.95,-0.01,0.00,-0.01,-32.20,21.37,-28.67
5031,-0.32,6.38,-7.93,-0.01,0.00,-0.01,-32.20,21.37,-28.67
5042,-0.32,6.38,-7.93,-0.01,0.00,-0.01,-32.20,21.37,-28.67
5053,-0.33,6.38,-7.92,-0.01,0.00,-0.01,-32.20,21.37,-28.67
5064,-0.33,6.38,-7.92,-0.01,0.00,-0.01,-32.20,21.37,-28.67
5075,-0.31,6.40,-7.94,-0.01,0.00,-0.01,-32.20,21.37,-28.67
5086,-0.31,6.40,-7.94,-0.01,0.00,-0.01,-32.20,21.37,-28.67
5097,-0.32,6.41,-7.90,-0.01,0.00,-0.01,-32.20,21.37,-28.67
5108,-0.31,6.40,-7.95,-0.01,0.00,-0.01,-32.20,21.37,-28.67
5119,-0.31,6.40,-7.95,-0.01,0.00,-0.01,-31.23,20.56,-29.19
5130,-0.30,6.39,-7.96,-0.01,0.00,-0.01,-31.23,20.56,-29.19
5141,-0.30,6.39,-7.96,-0.01,0.00,-0.01,-31.23,20.56,-29.19
5152,-0.31,6.38,-7.93,-0.01,0.00,-0.01,-31.23,20.56,-29.19
5163,-0.31,6.38,-7.93,-0.01,0.00,-0.01,-31.23,20.56,-29.19
5174,-0.33,6.39,-7.94,-0.01,0.00,-0.01,-31.23,20.56,-29.19
5185,-0.33,6.39,-7.94,-0.01,0.00,-0.01,-31.23,20.56,-29.19
5196,-0.32,6.39,-7.93,-0.01,0.00,-0.01,-31.23,20.56,-29.19
5207,-0.32,6.39,-7.93,-0.01,0.00,-0.01,-31.23,20.56,-29.19
5218,-0.31,6.39,-7.93,-0.01,0.00,-0.01,-31.23,20.56,-29.19
5229,-0.31,6.38,-7.93,-0.01,0.00,-0.01,-31.23,20.56,-29.19
5240,-0.31,6.38,-7.93,-0.01,0.00,-0.01,-31.23,20.56,-29.19
5251,-0.33,6.40,-7.93,-0.01,0.00,-0.01,-33.18,20.24,-28.15
5262,-0.33,6.40,-7.93,-0.01,0.00,-0.01,-33.18,20.24,-28.15
5273,-0.32,6.40,-7.91,-0.01,0.00,-0.01,-33.18,20.24,-28.15
5284,-0.32,6.40,-7.91,-0.01,0.00,-0.01,-33.18,20.24,-28.15
5295,-0.33,6.39,-7.94,-0.01,0.00,-0.01,-33.18,20.24,-28.15
5306,-0.33,6.39,-7.94,-0.01,0.00,-0.01,-33.18,20.24,-28.15
5317,-0.31,6.39,-7.96,-0.01,0.00,-0.01,-33.18,20.24,-28.15
5328,-0.31,6.39,-7.96,-0.01,0.00,-0.01,-33.18,20.24,-28.15
5339,-0.31,6.41,-7.94,-0.01,0.00,-0.01,-33.18,20.24,-28.15
5350,-0.31,6.42,-7.92,-0.01,0.00,-0.01,-33.18,20.24,-28.15
5361,-0.31,6.42,-7.92,-0.01,0.00,-0.01,-33.18,20.24,-28.15
5372,-0.33,6.41,-7.92,-0.01,0.00,-0.01,-31.62,20.56,-28.50
5383,-0.33,6.41,-7.92,-0.01,0.00,-0.01,-31.62,20.56,-28.50
5394,-0.32,6.40,-7.93,-0.01,0.00,-0.01,-31.62,20.56,-28.50
5405,-0.32,6.40,-7.93,-0.01,0.00,-0.01,-31.62,20.56,-28.50
5416,-0.31,6.39,-7.93,-0.01,0.00,-0.01,-31.62,20.56,-28.50
5427,-0.31,6.39,-7.93,-0.01,0.00,-0.01,-31.62,20.56,-28.50
5438,-0.31,6.39,-7.93,-0.01,0.00,-0.01,-31.62,20.56,-28.50
5449,-0.31,6.41,-7.93,-0.01,0.00,-0.01,-31.62,20.56,-28.50
5460,-0.31,6.41,-7.93,-0.01,0.00,-0.01,-31.62,20.56,-28.50
5471,-0.33,6.40,-7.91,-0.01,0.00,-0.01,-31.62,20.56,-28.50
5482,-0.33,6.40,-7.91,-0.01,0.00,-0.01,-31.62,20.56,-28.50
5493,-0.32,6.39,-7.94,-0.01,0.00,-0.01,-31.81,19.44,-26.59
5504,-0.32,6.39,-7.94,-0.01,0.00,-0.01,-31.81,19.44,-26.59
5516,-0.31,6.38,-7.95,-0.01,0.00,-0.01,-31.81,19.44,-26.59
5526,-0.31,6.38,-7.95,-0.01,0.00,-0.01,-31.81,19.44,-26.59
5537,-0.32,6.39,-7.94,-0.01,0.00,-0.01,-31.81,19.44,-26.59
5548,-0.32,6.39,-7.94,-0.01,0.00,-0.01,-31.81,19.44,-26.59
5559,-0.32,6.39,-7.93,-0.01,0.00,-0.01,-31.81,19.44,-26.59
5570,-0.31,6.40,-7.93,-0.01,0.00,-0.01,-31.81,19.44,-26.59
5581,-0.31,6.40,-7.93,-0.01,0.00,-0.01,-31.81,19.44,-26.59
5592,-0.33,6.39,-7.94,-0.01,0.00,-0.01,-31.81,19.44,-26.59
5603,-0.33,6.39,-7.94,-0.01,0.00,-0.01,-31.81,19.44,-26.59
5614,-0.31,6.39,-7.94,-0.01,0.00,-0.01,-31.81,19.44,-26.59
5625,-0.31,6.39,-7.94,-0.01,0.00,-0.01,-31.81,19.44,-26.59
5636,-0.31,6.40,-7.96,-0.01,0.00,-0.01,-32.40,21.21,-28.15
5647,-0.31,6.40,-7.96,-0.01,0.00,-0.01,-32.40,21.21,-28.15
5658,-0.33,6.40,-7.92,-0.01,0.00,-0.01,-32.40,21.21,-28.15
5669,-0.31,6.38,-7.94,-0.01,0.00,-0.01,-32.40,21.21,-28.15
5680,-0.31,6.38,-7.94,-0.01,0.00,-0.01,-32.40,21.21,-28.15
5691,-0.33,6.40,-7.91,-0.01,0.00,-0.01,-32.40,21.21,-28.15
5702,-0.33,6.40,-7.91,-0.01,0.00,-0.01,-32.40,21.21,-28.15
5713,-0.31,6.39,-7.92,-0.01,0.00,-0.01,-32.40,21.21,-28.15
5724,-0.31,6.39,-7.92,-0.01,0.00,-0.01,-32.40,21.21,-28.15
5735,-0.30,6.39,-7.95,-0.01,0.00,-0.01,-32.40,21.21,-28.15
5746,-0.30,6.39,-7.95,-0.01,0.00,-0.01,-32.40,21.21,-28.15
5757,-0.30,6.40,-7.96,-0.01,0.00,-0.01,-32.40,20.56,-27.80
5768,-0.30,6.40,-7.96,-0.01,0.00,-0.01,-32.40,20.56,-27.80
5779,-0.31,6.41,-7.93,-0.01,0.00,-0.01,-32.40,20.56,-27.80
5790,-0.33,6.40,-7.93,-0.01,0.00,-0.01,-32.40,20.56,-27.80
5801,-0.33,6.40,-7.93,-0.01,0.00,-0.01,-32.40,20.56,-27.80
5812,-0.33,6.40,-7.93,-0.01,0.00,-0.01,-32.40,20.56,-27.80
5823,-0.33,6.40,-7.93,-0.01,0.00,-0.01,-32.40,20.56,-27.80
5834,-0.33,6.39,-7.95,-0.01,0.00,-0.01,-32.40,20.56,-27.80
5845,-0.33,6.39,-7.95,-0.01,0.00,-0.01,-32.40,20.56,-27.80
5856,-0.32,6.39,-7.92,-0.01,0.00,-0.01,-32.40,20.56,-27.80
5867,-0.32,6.39,-7.92,-0.01,0.00,-0.01,-32.40,20.56,-27.80
5878,-0.32,6.41,-7.95,-0.01,0.00,-0.01,-31.23,21.21,-27.45
5889,-0.31,6.40,-7.92,-0.01,0.00,-0.01,-31.23,21.21,-27.45
5900,-0.31,6.40,-7.92,-0.01,0.00,-0.01,-31.23,21.21,-27.45
5911,-0.31,6.39,-7.93,-0.01,0.00,-0.01,-31.23,21.21,-27.45
5922,-0.31,6.39,-7.93,-0.01,0.00,-0.01,-31.23,21.21,-27.45
5933,-0.32,6.38,-7.93,-0.01,0.00,-0.01,-31.23,21.21,-27.45
5944,-0.32,6.38,-7.93,-0.01,0.00,-0.01,-31.23,21.21,-27.45
5955,-0.32,6.41,-7.93,-0.01,0.00,-0.01,-31.23,21.21,-27.45
5966,-0.32,6.41,-7.93,-0.01,0.00,-0.01,-31.23,21.21,-27.45
5977,-0.30,6.40,-7.90,-0.01,0.00,-0.01,-31.23,21.21,-27.45
5988,-0.30,6.40,-7.90,-0.01,0.00,-0.01,-31.23,21.21,-27.45
5999,-0.33,6.40,-7.94,-0.01,0.00,-0.01,-31.23,21.21,-27.45
6010,-0.32,6.41,-7.94,-0.01,0.00,-0.01,-33.57,23.14,-28.15
6021,-0.32,6.41,-7.94,-0.01,0.00,-0.01,-33.57,23.14,-28.15
6032,-0.33,6.39,-7.93,-0.01,0.00,-0.01,-33.57,23.14,-28.15
6043,-0.33,6.39,-7.93,-0.01,0.00,-0.01,-33.57,23.14,-28.15
6054,-0.33,6.40,-7.93,-0.01,0.00,-0.01,-33.57,23.14,-28.15
6065,-0.33,6.40,-7.93,-0.01,0.00,-0.01,-33.57,23.14,-28.15
6076,-0.33,6.40,-7.95,-0.01,0.00,-0.01,-33.57,23.14,-28.15
6087,-0.33,6.40,-7.95,-0.01,0.00,-0.01,-33.57,23.14,-28.15
6098,-0.32,6.39,-7.94,-0.01,0.00,-0.01,-33.57,23.14,-28.15
6109,-0.32,6.38,-7.92,-0.01,0.00,-0.01,-33.57,23.14,-28.15
6120,-0.32,6.38,-7.92,-0.01,0.00,-0.01,-33.57,23.14,-28.15
6131,-0.32,6.41,-7.95,-0.01,0.00,-0.01,-32.01,20.56,-28.50
6142,-0.32,6.41,-7.95,-0.01,0.00,-0.01,-32.01,20.56,-28.50
6153,-0.32,6.40,-7.93,-0.01,0.00,-0.01,-32.01,20.56,-28.50
6164,-0.32,6.40,-7.93,-0.01,0.00,-0.01,-32.01,20.56,-28.50
6175,-0.32,6.40,-7.93,-0.01,0.00,-0.01,-32.01,20.56,-28.50
6186,-0.32,6.40,-7.93,-0.01,0.00,-0.01,-32.01,20.56,-28.50
6197,-0.31,6.40,-7.93,-0.01,0.00,-0.01,-32.01,20.56,-28.50
6208,-0.31,6.40,-7.93,-0.01,0.00,-0.01,-32.01,20.56,-28.50
6219,-0.33,6.40,-7.91,-0.01,0.00,-0.01,-32.01,20.56,-28.50
6230,-0.33,6.40,-7.90,-0.01,0.00,-0.01,-32.01,20.56,-28.50
6241,-0.33,6.40,-7.90,-0.01,0.00,-0.01,-32.01,20.56,-28.50
6252,-0.31,6.40,-7.92,-0.01,0.00,-0.01,-30.84,21.53,-27.11
6263,-0.31,6.40,-7.92,-0.01,0.00,-0.01,-30.84,21.53,-27.11
6274,-0.32,6.40,-7.94,-0.01,0.00,-0.01,-30.84,21.53,-27.11
6285,-0.32,6.40,-7.94,-0.01,0.00,-0.01,-30.84,21.53,-27.11
6296,-0.30,6.40,-7.93,-0.01,0.00,-0.01,-30.84,21.53,-27.11
6307,-0.30,6.40,-7.93,-0.01,0.00,-0.01,-30.84,21.53,-27.11
6318,-0.31,6.41,-7.90,-0.01,0.00,-0.01,-30.84,21.53,-27.11
6329,-0.31,6.41,-7.90,-0.01,0.00,-0.01,-30.84,21.53,-27.11
6341,-0.32,6.39,-7.93,-0.01,0.00,-0.01,-30.84,21.53,-27.11
6351,-0.31,6.38,-7.93,-0.01,0.00,-0.01,-30.84,21.53,-27.11
6362,-0.31,6.38,-7.93,-0.01,0.00,-0.01,-30.84,21.53,-27.11
6373,-0.33,6.40,-7.94,-0.01,0.00,-0.01,-30.84,21.53,-27.11
6384,-0.33,6.40,-7.94,-0.01,0.00,-0.01,-30.84,21.53,-27.11
6395,-0.32,6.41,-7.93,-0.01,0.00,-0.01,-32.79,21.53,-28.50
6406,-0.32,6.41,-7.93,-0.01,0.00,-0.01,-32.79,21.53,-28.50
6417,-0.32,6.40,-7.92,-0.01,0.00,-0.01,-32.79,21.53,-28.50
6428,-0.32,6.40,-7.92,-0.01,0.00,-0.01,-32.79,21.53,-28.50
6439,-0.32,6.40,-7.93,-0.01,0.00,-0.01,-32.79,21.53,-28.50
6450,-0.31,6.39,-7.92,-0.01,0.00,-0.01,-32.79,21.53,-28.50
6461,-0.31,6.39,-7.92,-0.01,0.00,-0.01,-32.79,21.53,-28.50
6472,-0.32,6.39,-7.94,-0.01,0.00,-0.01,-32.79,21.53,-28.50
6483,-0.32,6.39,-7.94,-0.01,0.00,-0.01,-32.79,21.53,-28.50
6494,-0.33,6.39,-7.94,-0.01,0.00,-0.01,-32.79,21.53,-28.50
6505,-0.33,6.39,-7.94,-0.01,0.00,-0.01,-32.79,21.53,-28.50
6516,-0.31,6.40,-7.94,-0.01,0.00,-0.01,-31.81,21.05,-27.63
6527,-0.31,6.40,-7.94,-0.01,0.00,-0.01,-31.81,21.05,-27.63
6538,-0.32,6.40,-7.93,-0.01,0.00,-0.01,-31.81,21.05,-27.63
6549,-0.32,6.40,-7.93,-0.01,0.00,-0.01,-31.81,21.05,-27.63
6560,-0.31,6.40,-7.94,-0.01,0.00,-0.01,-31.81,21.05,-27.63
6572,-0.31,6.40,-7.95,-0.01,0.00,-0.01,-31.81,21.05,-27.63
6582,-0.31,6.40,-7.95,-0.01,0.00,-0.01,-31.81,21.05,-27.63
6593,-0.32,6.39,-7.95,-0.01,0.00,-0.01,-31.81,21.05,-27.63
6604,-0.32,6.39,-7.95,-0.01,0.00,-0.01,-31.81,21.05,-27.63
6615,-0.32,6.39,-7.93,-0.01,0.00,-0.01,-31.81,21.05,-27.63
6626,-0.32,6.39,-7.93,-0.01,0.00,-0.01,-31.81,21.05,-27.63
6637,-0.33,6.40,-7.96,-0.01,0.00,-0.01,-31.23,21.85,-28.84
6648,-0.33,6.40,-7.96,-0.01,0.00,-0.01,-31.23,21.85,-28.84
6659,-0.32,6.40,-7.93,-0.01,0.00,-0.01,-31.23,21.85,-28.84
6670,-0.33,6.40,-7.94,-0.01,0.00,-0.01,-31.23,21.85,-28.84
6681,-0.33,6.40,-7.94,-0.01,0.00,-0.01,-31.23,21.85,-28.84
6692,-0.31,6.40,-7.92,-0.01,0.00,-0.01,-31.23,21.85,-28.84
6703,-0.31,6.40,-7.92,-0.01,0.00,-0.01,-31.23,21.85,-28.84
6714,-0.33,6.41,-7.94,-0.01,0.00,-0.01,-31.23,21.85,-28.84
6725,-0.33,6.41,-7.94,-0.01,0.00,-0.01,-31.23,21.85,-28.84
6736,-0.32,6.40,-7.93,-0.01,0.00,-0.01,-31.23,21.85,-28.84
6747,-0.32,6.40,-7.93,-0.01,0.00,-0.01,-31.23,21.85,-28.84
6758,-0.30,6.39,-7.93,-0.01,0.00,-0.01,-32.40,21.21,-27.45
6769,-0.30,6.39,-7.93,-0.01,0.00,-0.01,-32.40,21.21,-27.45
6780,-0.31,6.39,-7.94,-0.01,0.00,-0.01,-32.40,21.21,-27.45
6791,-0.31,6.40,-7.90,-0.01,0.00,-0.01,-32.40,21.21,-27.45
6802,-0.31,6.40,-7.90,-0.01,0.00,-0.01,-32.40,21.21,-27.45
6813,-0.32,6.40,-7.91,-0.01,0.00,-0.01,-32.40,21.21,-27.45
6824,-0.32,6.40,-7.91,-0.01,0.00,-0.01,-32.40,21.21,-27.45
6835,-0.31,6.39,-7.92,-0.01,0.00,-0.01,-32.40,21.21,-27.45
6846,-0.31,6.39,-7.92,-0.01,0.00,-0.01,-32.40,21.21,-27.45
6857,-0.30,6.40,-7.94,-0.01,0.00,-0.01,-32.40,21.21,-27.45
6868,-0.30,6.40,-7.94,-0.01,0.00,-0.01,-32.40,21.21,-27.45
6879,-0.31,6.40,-7.91,-0.01,0.00,-0.01,-32.40,21.21,-27.45
6890,-0.31,6.41,-7.93,-0.01,0.00,-0.01,-32.99,20.08,-26.24
6901,-0.31,6.41,-7.93,-0.01,0.00,-0.01,-32.99,20.08,-26.24
6912,-0.32,6.40,-7.93,-0.01,0.00,-0.01,-32.99,20.08,-26.24
6923,-0.32,6.40,-7.93,-0.01,0.00,-0.01,-32.99,20.08,-26.24
6934,-0.31,6.39,-7.93,-0.01,0.00,-0.01,-32.99,20.08,-26.24
6945,-0.31,6.39,-7.93,-0.01,0.00,-0.01,-32.99,20.08,-26.24
6956,-0.31,6.39,-7.92,-0.01,0.00,-0.01,-32.99,20.08,-26.24
6967,-0.31,6.39,-7.92,-0.01,0.00,-0.01,-32.99,20.08,-26.24
6978,-0.32,6.39,-7.92,-0.01,0.00,-0.01,-32.99,20.08,-26.24
6989,-0.32,6.39,-7.92,-0.01,0.00,-0.01,-32.99,20.08,-26.24
7000,-0.33,6.41,-7.89,-0.01,0.00,-0.01,-32.99,20.08,-26.24
7011,-0.32,6.40,-7.93,-0.01,0.00,-0.01,-32.79,21.85,-28.15
7023,-0.32,6.40,-7.93,-0.01,0.00,-0.01,-32.79,21.85,-28.15
7033,-0.32,6.40,-7.93,-0.01,0.00,-0.01,-32.79,21.85,-28.15
7044,-0.32,6.40,-7.93,-0.01,0.00,-0.01,-32.79,21.85,-28.15
7055,-0.30,6.40,-7.95,-0.01,0.00,-0.01,-32.79,21.85,-28.15
7066,-0.30,6.40,-7.95,-0.01,0.00,-0.01,-32.79,21.85,-28.15
7077,-0.32,6.40,-7.93,-0.01,0.00,-0.01,-32.79,21.85,-28.15
7088,-0.32,6.40,-7.93,-0.01,0.00,-0.01,-32.79,21.85,-28.15
7099,-0.31,6.39,-7.92,-0.01,0.00,-0.01,-32.79,21.85,-28.15
7110,-0.32,6.40,-7.92,-0.01,0.00,-0.01,-32.79,21.85,-28.15
7121,-0.32,6.40,-7.92,-0.01,0.00,-0.01,-32.79,21.85,-28.15
7132,-0.32,6.41,-7.93,-0.01,0.00,-0.01,-33.18,22.49,-28.84
7143,-0.32,6.41,-7.93,-0.01,0.00,-0.01,-33.18,22.49,-28.84
7154,-0.31,6.40,-7.94,-0.01,0.00,-0.01,-33.18,22.49,-28.84
7165,-0.31,6.40,-7.94,-0.01,0.00,-0.01,-33.18,22.49,-28.84
7176,-0.32,6.40,-7.94,-0.01,0.00,-0.01,-33.18,22.49,-28.84
7187,-0.32,6.40,-7.94,-0.01,0.00,-0.01,-33.18,22.49,-28.84
7198,-0.30,6.40,-7.93,-0.01,0.00,-0.01,-33.18,22.49,-28.84
7209,-0.30,6.40,-7.93,-0.01,0.00,-0.01,-33.18,22.49,-28.84
7220,-0.32,6.39,-7.93,-0.01,0.00,-0.01,-33.18,22.49,-28.84
7231,-0.32,6.41,-7.93,-0.01,0.00,-0.01,-33.18,22.49,-28.84
7242,-0.32,6.41,-7.93,-0.01,0.00,-0.01,-33.18,22.49,-28.84
7253,-0.31,6.40,-7.94,-0.01,0.00,-0.01,-33.18,22.49,-28.84
7264,-0.31,6.40,-7.94,-0.01,0.00,-0.01,-33.18,22.49,-28.84
7276,-0.32,6.39,-7.93,-0.01,0.00,-0.01,-32.01,20.24,-27.80
7286,-0.32,6.39,-7.93,-0.01,0.00,-0.01,-32.01,20.24,-27.80
7297,-0.32,6.40,-7.94,-0.01,0.00,-0.01,-32.01,20.24,-27.80
7308,-0.32,6.40,-7.94,-0.01,0.00,-0.01,-32.01,20.24,-27.80
7319,-0.30,6.40,-7.93,-0.01,0.00,-0.01,-32.01,20.24,-27.80
7330,-0.30,6.40,-7.93,-0.01,0.00,-0.01,-32.01,20.24,-27.80
7341,-0.31,6.40,-7.92,-0.01,0.00,-0.01,-32.01,20.24,-27.80
7352,-0.31,6.40,-7.94,-0.01,0.00,-0.01,-32.01,20.24,-27.80
7363,-0.31,6.40,-7.94,-0.01,0.00,-0.01,-32.01,20.24,-27.80
7374,-0.32,6.40,-7.93,-0.01,0.00,-0.01,-32.01,20.24,-27.80
7385,-0.32,6.40,-7.93,-0.01,0.00,-0.01,-32.01,20.24,-27.80
7396,-0.33,6.39,-7.96,-0.01,0.00,-0.01,-33.57,21.85,-27.45
7407,-0.33,6.39,-7.96,-0.01,0.00,-0.01,-33.57,21.85,-27.45
7418,-0.33,6.40,-7.93,-0.01,0.00,-0.01,-33.57,21.85,-27.45
7429,-0.33,6.40,-7.93,-0.01,0.00,-0.01,-33.57,21.85,-27.45
7440,-0.32,6.39,-7.93,-0.01,0.00,-0.01,-33.57,21.85,-27.45
7451,-0.31,6.40,-7.95,-0.01,0.00,-0.01,-33.57,21.85,-27.45
7462,-0.31,6.40,-7.95,-0.01,0.00,-0.01,-33.57,21.85,-27.45
7473,-0.33,6.39,-7.92,-0.01,0.00,-0.01,-33.57,21.85,-27.45
7484,-0.33,6.39,-7.92,-0.01,0.00,-0.01,-33.57,21.85,-27.45
7495,-0.32,6.40,-7.95,-0.01,0.00,-0.01,-33.57,21.85,-27.45
7506,-0.32,6.40,-7.95,-0.01,0.00,-0.01,-33.57,21.85,-27.45
7517,-0.32,6.40,-7.96,-0.01,0.00,-0.01,-32.60,21.69,-27.98
7528,-0.32,6.40,-7.96,-0.01,0.00,-0.01,-32.60,21.69,-27.98
7539,-0.30,6.39,-7.96,-0.01,0.00,-0.01,-32.60,21.69,-27.98
7550,-0.30,6.39,-7.96,-0.01,0.00,-0.01,-32.60,21.69,-27.98
7561,-0.32,6.40,-7.92,-0.01,0.00,-0.01,-32.60,21.69,-27.98
7572,-0.32,6.39,-7.94,-0.01,0.00,-0.01,-32.60,21.69,-27.98
7583,-0.32,6.39,-7.94,-0.01,0.00,-0.01,-32.60,21.69,-27.98
7594,-0.32,6.40,-7.93,-0.01,0.00,-0.01,-32.60,21.69,-27.98
7605,-0.32,6.40,-7.93,-0.01,0.00,-0.01,-32.60,21.69,-27.98
7616,-0.30,6.39,-7.90,-0.01,0.00,-0.01,-32.60,21.69,-27.98
7627,-0.30,6.39,-7.90,-0.01,0.00,-0.01,-32.60,21.69,-27.98
7638,-0.31,6.40,-7.91,-0.01,0.00,-0.01,-32.60,21.69,-27.98
7649,-0.31,6.40,-7.91,-0.01,0.00,-0.01,-32.60,21.69,-27.98
7660,-0.33,6.40,-7.93,-0.01,0.00,-0.01,-32.20,21.69,-28.32
7671,-0.32,6.39,-7.93,-0.01,0.00,-0.01,-32.20,21.69,-28.32
7682,-0.32,6.39,-7.93,-0.01,0.00,-0.01,-32.20,21.69,-28.32
7693,-0.34,6.38,-7.95,-0.01,0.00,-0.01,-32.20,21.69,-28.32
7704,-0.34,6.38,-7.95,-0.01,0.00,-0.01,-32.20,21.69,-28.32
7715,-0.34,6.40,-7.93,-0.01,0.00,-0.01,-32.20,21.69,-28.32
7727,-0.34,6.40,-7.93,-0.01,0.00,-0.01,-32.20,21.69,-28.32
7737,-0.29,6.41,-7.95,-0.01,0.00,-0.01,-32.20,21.69,-28.32
7748,-0.29,6.41,-7.95,-0.01,0.00,-0.01,-32.20,21.69,-28.32
7759,-0.29,6.40,-7.91,-0.01,0.00,-0.01,-32.20,21.69,-28.32
7770,-0.29,6.40,-7.91,-0.01,0.00,-0.01,-32.20,21.69,-28.32
7781,-0.30,6.39,-7.94,-0.01,0.00,-0.01,-33.38,21.69,-28.32
7792,-0.35,6.39,-7.95,-0.01,0.00,-0.01,-33.38,21.69,-28.32
7803,-0.35,6.39,-7.95,-0.01,0.00,-0.01,-33.38,21.69,-28.32
7814,-0.36,6.37,-7.96,-0.01,0.00,-0.01,-33.38,21.69,-28.32
7825,-0.36,6.37,-7.96,-0.01,0.00,-0.01,-33.38,21.69,-28.32
7836,-0.33,6.40,-7.95,-0.01,0.00,-0.01,-33.38,21.69,-28.32
7847,-0.33,6.40,-7.95,-0.01,0.00,-0.01,-33.38,21.69,-28.32
7858,-0.28,6.41,-7.93,-0.01,0.00,-0.01,-33.38,21.69,-28.32
7869,-0.28,6.41,-7.93,-0.01,0.00,-0.01,-33.38,21.69,-28.32
7880,-0.27,6.40,-7.90,-0.01,0.00,-0.01,-33.38,21.69,-28.32
7891,-0.35,6.40,-7.93,-0.01,0.00,-0.01,-33.18,20.24,-28.15
7902,-0.35,6.40,-7.93,-0.01,0.00,-0.01,-33.18,20.24,-28.15
7913,-0.35,6.38,-7.93,-0.01,0.00,-0.01,-33.18,20.24,-28.15
7924,-0.35,6.38,-7.93,-0.01,0.00,-0.01,-33.18,20.24,-28.15
7935,-0.35,6.39,-7.96,-0.01,0.00,-0.01,-33.18,20.24,-28.15
7946,-0.35,6.39,-7.96,-0.01,0.00,-0.01,-33.18,20.24,-28.15
7958,-0.32,6.39,-7.93,-0.01,0.00,-0.01,-33.18,20.24,-28.15
7968,-0.32,6.39,-7.93,-0.01,0.00,-0.01,-33.18,20.24,-28.15
7979,-0.29,6.41,-7.92,-0.01,0.00,-0.01,-33.18,20.24,-28.15
7990,-0.29,6.41,-7.92,-0.01,0.00,-0.01,-33.18,20.24,-28.15
8001,-0.30,6.40,-7.92,-0.01,0.00,-0.01,-33.18,20.24,-28.15
8012,-0.34,6.40,-7.94,-0.01,0.00,-0.01,-33.18,20.24,-28.15
8023,-0.34,6.40,-7.94,-0.01,0.00,-0.01,-33.18,20.24,-28.15
8034,-0.33,6.39,-7.96,-0.01,0.00,-0.01,-33.57,21.21,-28.15
8045,-0.33,6.39,-7.96,-0.01,0.00,-0.01,-33.57,21.21,-28.15
8056,-0.32,6.39,-7.90,-0.01,0.00,-0.01,-33.57,21.21,-28.15
8067,-0.32,6.39,-7.90,-0.01,0.00,-0.01,-33.57,21.21,-28.15
8078,-0.29,6.42,-7.92,-0.01,0.00,-0.01,-33.57,21.21,-28.15
8089,-0.29,6.42,-7.92,-0.01,0.00,-0.01,-33.57,21.21,-28.15
8100,-0.32,6.41,-7.92,-0.01,0.00,-0.01,-33.57,21.21,-28.15
8111,-0.35,6.40,-7.94,-0.01,0.00,-0.01,-33.57,21.21,-28.15
8122,-0.35,6.40,-7.94,-0.01,0.00,-0.01,-33.57,21.21,-28.15
8133,-0.33,6.39,-7.94,-0.01,0.00,-0.01,-33.57,21.21,-28.15
8144,-0.33,6.39,-7.94,-0.01,0.00,-0.01,-33.57,21.21,-28.15
8155,-0.30,6.40,-7.94,-0.01,0.00,-0.01,-31.81,20.73,-28.67
8166,-0.30,6.40,-7.94,-0.01,0.00,-0.01,-31.81,20.73,-28.67
8177,-0.29,6.40,-7.93,-0.01,0.00,-0.01,-31.81,20.73,-28.67
8188,-0.29,6.40,-7.93,-0.01,0.00,-0.01,-31.81,20.73,-28.67
8199,-0.31,6.40,-7.93,-0.01,0.00,-0.01,-31.81,20.73,-28.67
8210,-0.31,6.40,-7.93,-0.01,0.00,-0.01,-31.81,20.73,-28.67
8221,-0.36,6.40,-7.92,-0.01,0.00,-0.01,-31.81,20.73,-28.67
8232,-0.35,6.38,-7.92,-0.01,0.00,-0.01,-31.81,20.73,-28.67
8243,-0.35,6.38,-7.92,-0.01,0.00,-0.01,-31.81,20.73,-28.67
8254,-0.32,6.37,-7.93,-0.01,0.00,-0.01,-31.81,20.73,-28.67
8265,-0.32,6.37,-7.93,-0.01,0.00,-0.01,-31.81,20.73,-28.67
8276,-0.28,6.41,-7.95,-0.01,0.00,-0.01,-32.20,20.08,-28.32
8287,-0.28,6.41,-7.95,-0.01,0.00,-0.01,-32.20,20.08,-28.32
8298,-0.30,6.43,-7.93,-0.01,0.00,-0.01,-32.20,20.08,-28.32
8309,-0.30,6.43,-7.93,-0.01,0.00,-0.01,-32.20,20.08,-28.32
8320,-0.34,6.41,-7.92,-0.01,0.00,-0.01,-32.20,20.08,-28.32
8331,-0.34,6.41,-7.92,-0.01,0.00,-0.01,-32.20,20.08,-28.32
8342,-0.34,6.39,-7.96,-0.01,0.00,-0.01,-32.20,20.08,-28.32
8353,-0.30,6.39,-7.94,-0.01,0.00,-0.01,-32.20,20.08,-28.32
8364,-0.30,6.39,-7.94,-0.01,0.00,-0.01,-32.20,20.08,-28.32
8375,-0.27,6.40,-7.92,-0.01,0.00,-0.01,-32.20,20.08,-28.32
8386,-0.27,6.40,-7.92,-0.01,0.00,-0.01,-32.20,20.08,-28.32
8397,-0.28,6.40,-7.92,-0.01,0.00,-0.01,-33.57,21.21,-28.84
8408,-0.28,6.40,-7.92,-0.01,0.00,-0.01,-33.57,21.21,-28.84
8419,-0.34,6.40,-7.93,-0.01,0.00,-0.01,-33.57,21.21,-28.84
8430,-0.34,6.40,-7.93,-0.01,0.00,-0.01,-33.57,21.21,-28.84
8441,-0.35,6.39,-7.93,-0.01,0.00,-0.01,-33.57,21.21,-28.84
8452,-0.30,6.40,-7.95,-0.01,0.00,-0.01,-33.57,21.21,-28.84
8463,-0.30,6.40,-7.95,-0.01,0.00,-0.01,-33.57,21.21,-28.84
8475,-0.27,6.40,-7.91,-0.01,0.00,-0.01,-33.57,21.21,-28.84
8485,-0.27,6.40,-7.91,-0.01,0.00,-0.01,-33.57,21.21,-28.84
8496,-0.30,6.41,-7.94,-0.01,0.00,-0.01,-33.57,21.21,-28.84
8507,-0.30,6.41,-7.94,-0.01,0.00,-0.01,-33.57,21.21,-28.84
8518,-0.34,6.40,-7.95,-0.01,0.00,-0.01,-33.57,21.21,-28.84
8529,-0.34,6.40,-7.95,-0.01,0.00,-0.01,-33.57,21.21,-28.84
8540,-0.35,6.38,-7.98,-0.01,0.00,-0.01,-31.81,21.05,-29.02
8551,-0.35,6.38,-7.98,-0.01,0.00,-0.01,-31.81,21.05,-29.02
8562,-0.34,6.40,-7.95,-0.01,0.00,-0.01,-31.81,21.05,-29.02
8573,-0.31,6.41,-7.93,-0.01,0.00,-0.01,-31.81,21.05,-29.02
8584,-0.31,6.41,-7.93,-0.01,0.00,-0.01,-31.81,21.05,-29.02
8595,-0.29,6.41,-7.92,-0.01,0.00,-0.01,-31.81,21.05,-29.02
8606,-0.29,6.41,-7.92,-0.01,0.00,-0.01,-31.81,21.05,-29.02
8617,-0.33,6.40,-7.94,-0.01,0.00,-0.01,-31.81,21.05,-29.02
8628,-0.33,6.40,-7.94,-0.01,0.00,-0.01,-31.81,21.05,-29.02
8639,-0.36,6.38,-7.92,-0.01,0.00,-0.01,-31.81,21.05,-29.02
8650,-0.36,6.38,-7.92,-0.01,0.00,-0.01,-31.81,21.05,-29.02
8661,-0.33,6.36,-7.94,-0.01,0.00,-0.01,-33.38,22.01,-27.28
8672,-0.30,6.39,-7.94,-0.01,0.00,-0.01,-33.38,22.01,-27.28
8683,-0.30,6.39,-7.94,-0.01,0.00,-0.01,-33.38,22.01,-27.28
8694,-0.28,6.29,-7.94,-0.02,0.00,-0.01,-33.38,22.01,-27.28
8705,-0.28,6.29,-7.94,-0.02,0.00,-0.01,-33.38,22.01,-27.28
8716,-0.38,6.58,-7.84,-0.10,0.03,-0.08,-33.38,22.01,-27.28
8727,-0.38,6.58,-7.84,-0.10,0.03,-0.08,-33.38,22.01,-27.28
8738,-0.34,6.40,-7.92,0.03,0.06,-0.06,-33.38,22.01,-27.28
8749,-0.34,6.40,-7.92,0.03,0.06,-0.06,-33.38,22.01,-27.28
8760,-0.32,6.39,-7.95,-0.00,0.01,-0.02,-33.38,22.01,-27.28
8771,-0.32,6.39,-7.95,-0.00,0.01,-0.02,-33.38,22.01,-27.28
8782,-0.30,6.38,-7.91,-0.01,0.00,-0.01,-32.60,22.01,-29.37
8793,-0.30,6.44,-7.92,-0.01,0.00,-0.01,-32.60,22.01,-29.37
8804,-0.30,6.44,-7.92,-0.01,0.00,-0.01,-32.60,22.01,-29.37
8815,-0.31,6.40,-7.92,-0.00,0.00,-0.01,-32.60,22.01,-29.37
8826,-0.31,6.40,-7.92,-0.00,0.00,-0.01,-32.60,22.01,-29.37
8837,-0.33,6.39,-7.92,-0.02,-0.00,-0.01,-32.60,22.01,-29.37
8848,-0.33,6.39,-7.92,-0.02,-0.00,-0.01,-32.60,22.01,-29.37
8859,-0.34,6.21,-8.15,-0.04,0.00,-0.03,-32.60,22.01,-29.37
8870,-0.34,6.21,-8.15,-0.04,0.00,-0.03,-32.60,22.01,-29.37
8881,-0.36,6.68,-7.69,-0.04,0.14,-0.22,-32.60,22.01,-29.37
8892,-0.11,5.92,-8.39,0.02,0.03,-0.35,-32.60,22.01,-29.37
8903,-0.11,5.92,-8.39,0.02,0.03,-0.35,-32.60,22.01,-29.37
8914,-0.26,6.16,-7.61,-0.05,-0.24,-0.05,-32.99,20.73,-27.28
8925,-0.26,6.16,-7.61,-0.05,-0.24,-0.05,-32.99,20.73,-27.28
8936,-0.40,6.23,-8.11,0.17,-0.24,0.38,-32.99,20.73,-27.28
8947,-0.40,6.23,-8.11,0.17,-0.24,0.38,-32.99,20.73,-27.28
8958,-0.61,6.41,-7.75,0.04,-0.38,0.47,-32.99,20.73,-27.28
8969,-0.61,6.41,-7.75,0.04,-0.38,0.47,-32.99,20.73,-27.28
8980,-0.58,6.75,-7.65,0.04,-0.24,0.29,-32.99,20.73,-27.28
8992,-0.58,6.75,-7.65,0.04,-0.24,0.29,-32.99,20.73,-27.28
9002,-1.19,6.57,-7.81,0.05,-0.01,0.01,-32.99,20.73,-27.28
9013,-1.10,6.79,-7.60,0.01,0.25,-0.33,-32.99,20.73,-27.28
9024,-1.10,6.79,-7.60,0.01,0.25,-0.33,-32.99,20.73,-27.28
9035,-0.04,6.37,-8.12,0.03,0.47,-0.56,-32.99,20.73,-28.32
9046,-0.04,6.37,-8.12,0.03,0.47,-0.56,-32.99,20.73,-28.32
9057,0.18,6.23,-8.38,-0.02,0.42,-0.53,-32.99,20.73,-28.32
9068,0.18,6.23,-8.38,-0.02,0.42,-0.53,-32.99,20.73,-28.32
9079,-0.09,6.30,-7.99,-0.04,0.31,-0.46,-32.99,20.73,-28.32
9090,-0.09,6.30,-7.99,-0.04,0.31,-0.46,-32.99,20.73,-28.32
9101,0.01,6.26,-8.08,0.03,0.27,-0.32,-32.99,20.73,-28.32
9112,-0.44,6.26,-8.09,0.04,0.16,-0.13,-32.99,20.73,-28.32
9123,-0.44,6.26,-8.09,0.04,0.16,-0.13,-32.99,20.73,-28.32
9134,-0.28,7.40,-8.96,0.21,0.17,0.10,-32.99,20.73,-28.32
9145,-0.28,7.40,-8.96,0.21,0.17,0.10,-32.99,20.73,-28.32
9162,-0.74,7.01,-8.34,1.24,0.15,0.15,-33.38,20.40,-29.71
9167,-0.74,7.01,-8.34,1.24,0.15,0.15,-33.38,20.40,-29.71
9178,-0.34,5.13,-8.01,1.81,0.17,0.05,-33.38,20.40,-29.71
9189,-0.34,5.13,-8.01,1.81,0.17,0.05,-33.38,20.40,-29.71
9200,-0.65,5.42,-8.87,1.29,0.23,0.13,-33.38,20.40,-29.71
9211,-0.65,5.42,-8.87,1.29,0.23,0.13,-33.38,20.40,-29.71
9222,-1.09,5.60,-10.25,1.88,0.14,0.36,-33.38,20.40,-29.71
9233,-1.01,5.30,-9.03,3.13,0.02,0.64,-33.38,20.40,-29.71
9244,-1.01,5.30,-9.03,3.13,0.02,0.64,-33.38,20.40,-29.71
9255,-0.93,5.04,-10.80,3.87,0.37,0.76,-33.38,20.40,-29.71
9266,-0.93,5.04,-10.80,3.87,0.37,0.76,-33.38,20.40,-29.71
9277,0.15,1.75,-7.32,4.83,0.93,1.02,-33.38,20.40,-29.71
9288,0.15,1.75,-7.32,4.83,0.93,1.02,-33.38,20.40,-29.71
9299,0.70,2.47,-10.64,2.65,1.84,1.14,-29.08,10.43,-37.01
9310,0.70,2.47,-10.64,2.65,1.84,1.14,-29.08,10.43,-37.01
9321,1.90,1.02,-11.01,2.36,2.28,1.26,-29.08,10.43,-37.01
9332,1.90,1.02,-11.01,2.36,2.28,1.26,-29.08,10.43,-37.01
9343,3.14,0.79,-12.52,2.32,1.97,1.74,-29.08,10.43,-37.01
9354,2.24,1.49,-13.58,2.69,0.80,2.27,-29.08,10.43,-37.01
9365,2.24,1.49,-13.58,2.69,0.80,2.27,-29.08,10.43,-37.01
9376,1.07,0.85,-12.62,3.12,-0.65,2.35,-29.08,10.43,-37.01
9387,1.07,0.85,-12.62,3.12,-0.65,2.35,-29.08,10.43,-37.01
9404,0.74,-2.67,-11.33,3.04,-1.43,2.38,-29.08,10.43,-37.01
9409,0.74,-2.67,-11.33,3.04,-1.43,2.38,-29.08,10.43,-37.01
9420,0.81,-3.54,-7.70,1.93,-1.53,3.05,-23.42,-0.03,-42.05
9431,0.81,-3.54,-7.70,1.93,-1.53,3.05,-23.42,-0.03,-42.05
9442,2.79,2.03,-10.65,-0.95,-1.40,3.06,-23.42,-0.03,-42.05
9453,2.23,3.67,-10.38,-0.71,-1.57,2.20,-23.42,-0.03,-42.05
9464,2.23,3.67,-10.38,-0.71,-1.57,2.20,-23.42,-0.03,-42.05
9475,-0.82,1.16,-11.44,0.69,-1.51,0.83,-23.42,-0.03,-42.05
9486,-0.82,1.16,-11.44,0.69,-1.51,0.83,-23.42,-0.03,-42.05
9497,-2.13,-1.76,-15.34,2.03,-1.61,0.35,-23.42,-0.03,-42.05
9508,-2.13,-1.76,-15.34,2.03,-1.61,0.35,-23.42,-0.03,-42.05
9519,0.07,-4.22,-12.27,2.86,-2.74,0.87,-23.42,-0.03,-42.05
9530,0.07,-4.22,-12.27,2.86,-2.74,0.87,-23.42,-0.03,-42.05
9541,1.03,-0.52,-7.51,0.84,-3.82,1.30,-33.96,-0.99,-38.23
9552,1.03,-0.52,-7.51,0.84,-3.82,1.30,-33.96,-0.99,-38.23
9563,0.14,2.67,-2.83,-0.87,-3.57,1.45,-33.96,-0.99,-38.23
9574,-1.16,1.95,-0.35,-2.21,-1.88,0.54,-33.96,-0.99,-38.23
9585,-1.16,1.95,-0.35,-2.21,-1.88,0.54,-33.96,-0.99,-38.23
9596,-2.75,1.11,-11.67,-4.55,0.21,-0.48,-33.96,-0.99,-38.23
9607,-2.75,1.11,-11.67,-4.55,0.21,-0.48,-33.96,-0.99,-38.23
9618,-1.04,-0.55,-14.11,-2.30,-0.30,-0.30,-33.96,-0.99,-38.23
9629,-1.04,-0.55,-14.11,-2.30,-0.30,-0.30,-33.96,-0.99,-38.23
9640,-2.99,-0.75,-12.49,-2.70,-2.13,-0.17,-33.96,-0.99,-38.23
9651,-2.99,-0.75,-12.49,-2.70,-2.13,-0.17,-33.96,-0.99,-38.23
9662,-2.95,2.99,-11.46,-4.90,-3.55,-0.13,-33.96,-0.99,-38.23
9673,-4.66,4.79,-6.13,-6.72,-4.17,-0.75,-42.55,11.23,-29.89
9684,-4.66,4.79,-6.13,-6.72,-4.17,-0.75,-42.55,11.23,-29.89
9695,-5.80,4.03,-6.97,-6.73,-3.15,-1.47,-42.55,11.23,-29.89
9706,-5.80,4.03,-6.97,-6.73,-3.15,-1.47,-42.55,11.23,-29.89
9717,-5.77,2.19,-4.09,-1.79,-1.06,-1.27,-42.55,11.23,-29.89
9728,-5.77,2.19,-4.09,-1.79,-1.06,-1.27,-42.55,11.23,-29.89
9739,-5.51,4.23,-6.61,0.08,0.57,-0.83,-42.55,11.23,-29.89
9750,-5.51,4.23,-6.61,0.08,0.57,-0.83,-42.55,11.23,-29.89
9761,-5.45,4.55,-6.74,0.77,1.05,-0.80,-42.55,11.23,-29.89
9772,-5.45,4.55,-6.74,0.77,1.05,-0.80,-42.55,11.23,-29.89
9783,-4.60,3.14,-6.73,-0.02,1.26,-1.04,-42.55,11.23,-29.89
9794,-3.25,2.42,-8.70,-1.53,1.39,-1.18,-47.63,11.56,-23.98
9805,-3.25,2.42,-8.70,-1.53,1.39,-1.18,-47.63,11.56,-23.98
9816,-3.19,2.53,-11.38,-2.39,1.09,-1.24,-47.63,11.56,-23.98
9827,-3.19,2.53,-11.38,-2.39,1.09,-1.24,-47.63,11.56,-23.98
9838,-3.34,2.08,-12.33,-1.39,0.33,-1.05,-47.63,11.56,-23.98
9849,-3.34,2.08,-12.33,-1.39,0.33,-1.05,-47.63,11.56,-23.98
9860,-3.70,1.81,-9.87,-0.17,-0.56,-0.50,-47.63,11.56,-23.98
9871,-3.70,1.81,-9.87,-0.17,-0.56,-0.50,-47.63,11.56,-23.98
9882,-4.61,3.24,-7.69,-0.27,-1.14,0.06,-47.63,11.56,-23.98
9893,-5.54,5.01,-5.99,-0.65,-1.18,0.20,-47.63,11.56,-23.98
9904,-5.54,5.01,-5.99,-0.65,-1.18,0.20,-47.63,11.56,-23.98
9915,-5.92,4.89,-5.63,-0.58,-0.56,-0.18,-51.53,12.84,-18.07
9926,-5.92,4.89,-5.63,-0.58,-0.56,-0.18,-51.53,12.84,-18.07
9937,-6.00,4.12,-7.06,-0.19,0.11,-0.47,-51.53,12.84,-18.07
9948,-6.00,4.12,-7.06,-0.19,0.11,-0.47,-51.53,12.84,-18.07
9959,-6.15,4.88,-9.32,0.12,0.36,-0.58,-51.53,12.84,-18.07
9970,-6.15,4.88,-9.32,0.12,0.36,-0.58,-51.53,12.84,-18.07
9981,-5.57,5.62,-7.73,0.68,0.21,-0.82,-51.53,12.84,-18.07
9992,-5.57,5.62,-7.73,0.68,0.21,-0.82,-51.53,12.84,-18.07
10003,-5.32,3.92,-7.47,0.26,0.06,-1.32,-51.53,12.84,-18.07
10014,-5.02,1.13,-7.95,0.44,0.09,-1.29,-51.53,12.84,-18.07
10025,-5.02,1.13,-7.95,0.44,0.09,-1.29,-51.53,12.84,-18.07
10036,-5.72,1.43,-8.25,0.59,0.13,-0.68,-51.53,12.84,-18.07
10047,-5.72,1.43,-8.25,0.59,0.13,-0.68,-51.53,12.84,-18.07
10058,-6.52,4.52,-9.03,0.10,0.05,-0.37,-49.78,10.11,-20.33
10069,-6.52,4.52,-9.03,0.10,0.05,-0.37,-49.78,10.11,-20.33
10080,-5.76,5.14,-6.83,-0.03,-0.11,-0.64,-49.78,10.11,-20.33
10091,-5.76,5.14,-6.83,-0.03,-0.11,-0.64,-49.78,10.11,-20.33
10103,-5.48,3.83,-7.32,-0.59,0.06,-1.24,-49.78,10.11,-20.33
10113,-7.03,1.53,-8.77,-1.13,0.09,-1.59,-49.78,10.11,-20.33
10124,-7.03,1.53,-8.77,-1.13,0.09,-1.59,-49.78,10.11,-20.33
10135,-6.58,1.36,-9.40,-2.52,-0.22,-1.64,-49.78,10.11,-20.33
10146,-6.58,1.36,-9.40,-2.52,-0.22,-1.64,-49.78,10.11,-20.33
10157,-5.25,3.06,-7.78,-4.82,-0.62,-1.56,-49.78,10.11,-20.33
10168,-5.25,3.06,-7.78,-4.82,-0.62,-1.56,-49.78,10.11,-20.33
10179,-5.94,5.13,-7.26,-6.59,-0.79,-1.44,-55.44,8.66,-15.64
10190,-5.94,5.13,-7.26,-6.59,-0.79,-1.44,-55.44,8.66,-15.64
10201,-6.63,6.70,-7.68,-5.13,-0.66,-1.20,-55.44,8.66,-15.64
10212,-6.63,6.70,-7.68,-5.13,-0.66,-1.20,-55.44,8.66,-15.64
10223,-6.65,8.12,-7.32,-1.84,-0.53,-1.28,-55.44,8.66,-15.64
10234,-6.42,8.09,-8.37,0.34,-0.33,-1.89,-55.44,8.66,-15.64
10245,-6.42,8.09,-8.37,0.34,-0.33,-1.89,-55.44,8.66,-15.64
10256,-4.31,5.38,-6.62,1.29,-0.52,-2.56,-55.44,8.66,-15.64
10267,-4.31,5.38,-6.62,1.29,-0.52,-2.56,-55.44,8.66,-15.64
10278,-7.58,4.13,-3.98,1.61,-0.94,-2.93,-55.44,8.66,-15.64
10289,-7.58,4.13,-3.98,1.61,-0.94,-2.93,-55.44,8.66,-15.64
10300,-6.68,3.16,-5.56,3.68,-0.61,-3.21,-57.78,0.30,-10.43
10311,-6.68,3.16,-5.56,3.68,-0.61,-3.21,-57.78,0.30,-10.43
10322,-5.95,0.57,-7.13,7.43,-0.39,-3.16,-57.78,0.30,-10.43
10333,-5.95,0.57,-7.13,7.43,-0.39,-3.16,-57.78,0.30,-10.43
10344,-6.63,-0.96,-8.84,8.88,-0.78,-2.81,-57.78,0.30,-10.43
10356,-6.06,0.02,-5.82,8.39,-1.80,-2.41,-57.78,0.30,-10.43
10366,-6.06,0.02,-5.82,8.39,-1.80,-2.41,-57.78,0.30,-10.43
10377,-7.57,-0.63,-0.19,6.57,-2.45,-2.18,-57.78,0.30,-10.43
10388,-7.57,-0.63,-0.19,6.57,-2.45,-2.18,-57.78,0.30,-10.43
10399,-6.72,-1.31,-2.65,2.07,-1.86,-2.66,-57.78,0.30,-10.43
10410,-6.72,-1.31,-2.65,2.07,-1.86,-2.66,-57.78,0.30,-10.43
10421,-6.75,-4.85,-6.66,1.47,-1.59,-3.26,-57.19,-20.78,1.56
10432,-6.75,-4.85,-6.66,1.47,-1.59,-3.26,-57.19,-20.78,1.56
10443,-7.42,-8.40,-0.35,4.33,-2.25,-3.07,-57.19,-20.78,1.56
10454,-8.93,-8.10,1.91,0.87,-2.30,-2.53,-57.19,-20.78,1.56
10465,-8.93,-8.10,1.91,0.87,-2.30,-2.53,-57.19,-20.78,1.56
10476,-6.59,-9.44,-0.68,-2.48,-1.16,-1.83,-57.19,-20.78,1.56
10487,-6.59,-9.44,-0.68,-2.48,-1.16,-1.83,-57.19,-20.78,1.56
10498,-6.33,-8.22,-1.15,-0.40,-0.07,-0.71,-57.19,-20.78,1.56
10509,-6.33,-8.22,-1.15,-0.40,-0.07,-0.71,-57.19,-20.78,1.56
10520,-8.95,-6.36,-2.60,1.39,0.30,0.06,-57.19,-20.78,1.56
10531,-8.95,-6.36,-2.60,1.39,0.30,0.06,-57.19,-20.78,1.56
10542,-9.59,-3.07,-3.32,0.77,0.14,0.20,-57.19,-20.78,1.56
10553,-9.59,-3.07,-3.32,0.77,0.14,0.20,-57.19,-20.78,1.56
10564,-8.71,-1.02,-3.98,1.29,0.17,-0.23,-53.09,-25.12,7.64
10575,-6.07,-1.39,-4.30,3.69,0.40,-0.99,-53.09,-25.12,7.64
10586,-6.07,-1.39,-4.30,3.69,0.40,-0.99,-53.09,-25.12,7.64
10597,-7.17,-4.59,-4.36,5.42,-0.21,-1.54,-53.09,-25.12,7.64
10608,-7.17,-4.59,-4.36,5.42,-0.21,-1.54,-53.09,-25.12,7.64
10619,-7.97,-5.36,-2.44,6.72,-0.80,-0.96,-53.09,-25.12,7.64
10630,-7.97,-5.36,-2.44,6.72,-0.80,-0.96,-53.09,-25.12,7.64
10641,-7.36,-4.97,0.51,7.55,-1.09,-0.23,-53.09,-25.12,7.64
10652,-7.36,-4.97,0.51,7.55,-1.09,-0.23,-53.09,-25.12,7.64
10663,-7.64,-5.74,3.35,6.25,-1.24,0.02,-53.09,-25.12,7.64
10674,-8.82,-4.85,2.82,3.13,-1.04,-0.07,-50.56,-19.81,27.62
10685,-8.82,-4.85,2.82,3.13,-1.04,-0.07,-50.56,-19.81,27.62
10696,-8.18,-3.10,1.95,1.66,-0.71,-0.31,-50.56,-19.81,27.62
10707,-8.18,-3.10,1.95,1.66,-0.71,-0.31,-50.56,-19.81,27.62
10718,-5.91,-4.39,4.77,2.19,-0.22,-0.77,-50.56,-19.81,27.62
10729,-5.91,-4.39,4.77,2.19,-0.22,-0.77,-50.56,-19.81,27.62
10740,-5.07,-7.13,6.18,1.20,0.31,-0.99,-50.56,-19.81,27.62
10751,-5.07,-7.13,6.18,1.20,0.31,-0.99,-50.56,-19.81,27.62
10762,-3.95,-7.56,2.25,-0.26,0.78,-0.50,-50.56,-19.81,27.62
10773,-3.95,-7.56,2.25,-0.26,0.78,-0.50,-50.56,-19.81,27.62
10784,-6.56,-6.78,-0.36,-0.93,0.53,0.34,-50.56,-19.81,27.62
10795,-6.60,-4.53,-0.27,-0.16,0.07,0.68,-49.58,-20.29,27.10
10806,-6.60,-4.53,-0.27,-0.16,0.07,0.68,-49.58,-20.29,27.10
10817,-7.24,-3.94,0.74,1.39,-0.26,0.36,-49.58,-20.29,27.10
10828,-7.24,-3.94,0.74,1.39,-0.26,0.36,-49.58,-20.29,27.10
10839,-7.70,-4.98,2.74,3.58,-0.32,-0.03,-49.58,-20.29,27.10
10850,-7.70,-4.98,2.74,3.58,-0.32,-0.03,-49.58,-20.29,27.10
10861,-8.99,-6.70,6.34,3.58,-0.38,-0.26,-49.58,-20.29,27.10
10872,-8.99,-6.70,6.34,3.58,-0.38,-0.26,-49.58,-20.29,27.10
10883,-8.77,-6.17,7.82,1.44,-0.23,-0.37,-49.58,-20.29,27.10
10894,-8.00,-6.68,5.35,-0.33,-0.08,-0.39,-49.58,-20.29,27.10
10905,-8.00,-6.68,5.35,-0.33,-0.08,-0.39,-49.58,-20.29,27.10
10916,-6.90,-6.87,3.82,-0.76,-0.18,-0.25,-49.58,-20.29,27.10
10927,-6.90,-6.87,3.82,-0.76,-0.18,-0.25,-49.58,-20.29,27.10
10938,-7.45,-7.95,4.08,-0.71,-0.23,-0.26,-48.41,-16.11,29.88
10949,-7.45,-7.95,4.08,-0.71,-0.23,-0.26,-48.41,-16.11,29.88
10960,-7.11,-8.52,3.63,-1.32,-0.18,-0.16,-48.41,-16.11,29.88
10971,-7.11,-8.52,3.63,-1.32,-0.18,-0.16,-48.41,-16.11,29.88
10982,-7.65,-7.32,2.44,-2.34,-0.15,0.12,-48.41,-16.11,29.88
10993,-7.65,-7.32,2.44,-2.34,-0.15,0.12,-48.41,-16.11,29.88
11004,-8.32,-4.52,1.97,-2.66,-0.15,0.12,-48.41,-16.11,29.88
11015,-8.18,-3.56,0.47,-1.80,-0.16,-0.41,-48.41,-16.11,29.88
11026,-8.18,-3.56,0.47,-1.80,-0.16,-0.41,-48.41,-16.11,29.88
11037,-5.85,-3.84,0.07,1.76,-0.06,-0.82,-48.41,-16.11,29.88
11048,-5.85,-3.84,0.07,1.76,-0.06,-0.82,-48.41,-16.11,29.88
11059,-5.56,-6.33,3.11,5.68,-0.41,-0.56,-48.21,-19.17,29.71
11075,-5.56,-6.33,3.11,5.68,-0.41,-0.56,-48.21,-19.17,29.71
11081,-6.48,-7.87,8.49,5.88,-0.89,0.12,-48.21,-19.17,29.71
11092,-6.48,-7.87,8.49,5.88,-0.89,0.12,-48.21,-19.17,29.71
11103,-7.87,-6.20,8.95,1.59,-0.81,0.60,-48.21,-19.17,29.71
11114,-6.80,-3.23,6.33,-2.06,-0.40,0.24,-48.21,-19.17,29.71
11125,-6.80,-3.23,6.33,-2.06,-0.40,0.24,-48.21,-19.17,29.71
11136,-4.32,-4.97,2.49,-1.63,0.12,-0.28,-48.21,-19.17,29.71
11147,-4.32,-4.97,2.49,-1.63,0.12,-0.28,-48.21,-19.17,29.71
11158,-5.95,-7.73,2.23,0.87,0.29,0.01,-48.21,-19.17,29.71
11169,-5.95,-7.73,2.23,0.87,0.29,0.01,-48.21,-19.17,29.71
11180,-7.30,-5.36,2.80,0.96,-0.13,0.48,-46.65,-14.66,33.88
11191,-7.30,-5.36,2.80,0.96,-0.13,0.48,-46.65,-14.66,33.88
11202,-8.46,-6.25,6.60,1.10,-0.50,0.37,-46.65,-14.66,33.88
11213,-8.46,-6.25,6.60,1.10,-0.50,0.37,-46.65,-14.66,33.88
11224,-8.09,-5.42,6.45,0.67,-0.30,0.17,-46.65,-14.66,33.88
11235,-7.02,-4.24,5.10,0.61,-0.03,0.06,-46.65,-14.66,33.88
11246,-7.02,-4.24,5.10,0.61,-0.03,0.06,-46.65,-14.66,33.88
11257,-6.03,-4.18,5.12,0.31,0.03,-0.13,-46.65,-14.66,33.88
11268,-6.03,-4.18,5.12,0.31,0.03,-0.13,-46.65,-14.66,33.88
11279,-5.04,-4.87,4.74,-0.13,0.32,-0.18,-46.65,-14.66,33.88
11290,-5.04,-4.87,4.74,-0.13,0.32,-0.18,-46.65,-14.66,33.88
11301,-6.14,-4.83,4.57,-0.59,0.71,0.04,-46.65,-14.66,33.88
11312,-6.14,-4.83,4.57,-0.59,0.71,0.04,-46.65,-14.66,33.88
11323,-8.70,-6.00,5.17,-0.35,0.79,0.16,-46.07,-12.57,34.05
11334,-8.70,-6.00,5.17,-0.35,0.79,0.16,-46.07,-12.57,34.05
11345,-10.17,-4.86,6.34,-0.47,0.47,0.16,-46.07,-12.57,34.05
11356,-7.39,-4.27,6.62,-1.19,0.27,-0.24,-46.07,-12.57,34.05
11367,-7.39,-4.27,6.62,-1.19,0.27,-0.24,-46.07,-12.57,34.05
11378,-6.23,-6.74,6.85,-1.82,0.52,-0.54,-46.07,-12.57,34.05
11389,-6.23,-6.74,6.85,-1.82,0.52,-0.54,-46.07,-12.57,34.05
11401,-4.54,-5.94,5.90,-2.63,1.17,-0.19,-46.07,-12.57,34.05
11411,-4.54,-5.94,5.90,-2.63,1.17,-0.19,-46.07,-12.57,34.05
11422,-5.59,-4.64,2.14,-3.05,1.69,0.21,-46.07,-12.57,34.05
11433,-5.59,-4.64,2.14,-3.05,1.69,0.21,-46.07,-12.57,34.05
11444,-6.31,-4.96,-1.88,-1.97,1.36,0.27,-50.95,-18.52,26.93
11455,-9.30,-5.87,0.72,-0.66,0.21,0.26,-50.95,-18.52,26.93
11466,-9.30,-5.87,0.72,-0.66,0.21,0.26,-50.95,-18.52,26.93
11477,-8.96,-5.89,3.25,0.52,-0.25,0.17,-50.95,-18.52,26.93
11488,-8.96,-5.89,3.25,0.52,-0.25,0.17,-50.95,-18.52,26.93
11499,-7.89,-5.61,3.24,-0.13,-0.14,-0.31,-50.95,-18.52,26.93
11510,-7.89,-5.61,3.24,-0.13,-0.14,-0.31,-50.95,-18.52,26.93
11521,-6.96,-3.95,1.29,-0.54,0.06,-0.72,-50.95,-18.52,26.93
11532,-6.96,-3.95,1.29,-0.54,0.06,-0.72,-50.95,-18.52,26.93
11543,-6.15,-4.43,-0.27,0.04,-0.11,-1.09,-50.95,-18.52,26.93
11554,-6.15,-4.43,-0.27,0.04,-0.11,-1.09,-50.95,-18.52,26.93
11565,-5.53,-5.73,-1.21,1.43,-0.67,-1.13,-50.95,-19.17,27.27
11576,-6.72,-5.68,1.74,3.36,-1.25,-0.81,-50.95,-19.17,27.27
11587,-6.72,-5.68,1.74,3.36,-1.25,-0.81,-50.95,-19.17,27.27
11598,-6.86,-5.61,5.55,5.12,-1.27,-0.62,-50.95,-19.17,27.27
11609,-6.86,-5.61,5.55,5.12,-1.27,-0.62,-50.95,-19.17,27.27
11620,-6.82,-5.56,8.67,5.50,-0.60,-0.62,-50.95,-19.17,27.27
11632,-6.82,-5.56,8.67,5.50,-0.60,-0.62,-50.95,-19.17,27.27
11642,-6.33,-4.69,8.21,3.64,0.40,-0.61,-50.95,-19.17,27.27
11653,-6.33,-4.69,8.21,3.64,0.40,-0.61,-50.95,-19.17,27.27
11664,-8.09,-5.99,6.53,1.95,0.96,-0.56,-50.95,-19.17,27.27
11675,-7.85,-6.95,7.85,0.67,0.62,-0.56,-50.95,-19.17,27.27
11686,-7.85,-6.95,7.85,0.67,0.62,-0.56,-50.95,-19.17,27.27
11697,-5.47,-5.87,6.23,-0.60,0.68,-0.34,-47.24,-10.00,33.70
11708,-5.47,-5.87,6.23,-0.60,0.68,-0.34,-47.24,-10.00,33.70
11719,-5.78,-7.68,6.34,-1.63,0.99,-0.10,-47.24,-10.00,33.70
11730,-5.78,-7.68,6.34,-1.63,0.99,-0.10,-47.24,-10.00,33.70
11741,-5.52,-7.65,4.40,-2.65,1.17,0.37,-47.24,-10.00,33.70
11752,-5.52,-7.65,4.40,-2.65,1.17,0.37,-47.24,-10.00,33.70
11763,-6.21,-6.66,3.56,-3.57,0.97,0.87,-47.24,-10.00,33.70
11774,-6.21,-6.66,3.56,-3.57,0.97,0.87,-47.24,-10.00,33.70
11785,-7.64,-6.44,4.04,-4.02,0.64,1.11,-47.24,-10.00,33.70
11796,-7.29,-6.54,4.48,-4.04,0.78,1.22,-47.24,-10.00,33.70
11807,-7.29,-6.54,4.48,-4.04,0.78,1.22,-47.24,-10.00,33.70
11818,-6.44,-3.91,-0.10,-3.50,1.06,1.34,-52.70,-17.40,25.36
11829,-6.44,-3.91,-0.10,-3.50,1.06,1.34,-52.70,-17.40,25.36
11840,-8.25,-3.85,0.11,-1.71,0.68,1.09,-52.70,-17.40,25.36
11851,-8.25,-3.85,0.11,-1.71,0.68,1.09,-52.70,-17.40,25.36
11862,-9.52,-6.20,4.09,-1.01,0.34,0.78,-52.70,-17.40,25.36
11873,-9.52,-6.20,4.09,-1.01,0.34,0.78,-52.70,-17.40,25.36
11884,-9.52,-5.30,4.91,-2.53,0.68,0.74,-52.70,-17.40,25.36
11895,-7.96,-4.12,1.33,-3.85,1.16,0.69,-52.70,-17.40,25.36
11906,-7.96,-4.12,1.33,-3.85,1.16,0.69,-52.70,-17.40,25.36
11917,-6.17,-3.59,-3.09,-3.21,1.12,0.41,-52.70,-17.40,25.36
11928,-6.17,-3.59,-3.09,-3.21,1.12,0.41,-52.70,-17.40,25.36
11939,-6.98,-4.82,-2.32,-1.58,0.34,0.13,-55.63,-19.49,18.24
11950,-6.98,-4.82,-2.32,-1.58,0.34,0.13,-55.63,-19.49,18.24
11961,-8.05,-6.24,0.37,-0.47,-0.07,0.00,-55.63,-19.49,18.24
11972,-8.05,-6.24,0.37,-0.47,-0.07,0.00,-55.63,-19.49,18.24
11983,-8.31,-5.52,0.96,-0.51,0.08,0.03,-55.63,-19.49,18.24
11994,-8.31,-5.52,0.96,-0.51,0.08,0.03,-55.63,-19.49,18.24
12005,-8.35,-5.13,-0.10,-0.48,0.42,-0.02,-55.63,-19.49,18.24
12016,-9.09,-4.80,-0.94,-0.51,0.39,-0.15,-55.63,-19.49,18.24
12027,-9.09,-4.80,-0.94,-0.51,0.39,-0.15,-55.63,-19.49,18.24
12038,-8.28,-4.83,-0.46,-0.57,0.16,-0.37,-55.63,-19.49,18.24
12049,-8.28,-4.83,-0.46,-0.57,0.16,-0.37,-55.63,-19.49,18.24
12060,-8.57,-7.93,1.45,0.01,0.49,-0.48,-55.63,-20.13,14.77
12071,-8.57,-7.93,1.45,0.01,0.49,-0.48,-55.63,-20.13,14.77
12082,-6.02,-4.13,-1.41,-0.31,0.92,-0.27,-55.63,-20.13,14.77
12093,-6.02,-4.13,-1.41,-0.31,0.92,-0.27,-55.63,-20.13,14.77
12104,-8.89,-8.66,-0.22,-0.42,0.79,-0.43,-55.63,-20.13,14.77
12115,-7.83,-5.64,-0.62,-0.77,0.57,-0.15,-55.63,-20.13,14.77
12126,-7.83,-5.64,-0.62,-0.77,0.57,-0.15,-55.63,-20.13,14.77
12137,-6.42,-6.31,-3.57,-0.55,0.66,-0.41,-55.63,-20.13,14.77
12148,-6.42,-6.31,-3.57,-0.55,0.66,-0.41,-55.63,-20.13,14.77
12159,-6.57,-7.83,-2.78,-0.16,0.12,-0.26,-55.63,-20.13,14.77
12170,-6.57,-7.83,-2.78,-0.16,0.12,-0.26,-55.63,-20.13,14.77
12181,-7.07,-8.92,-1.69,-0.26,-0.10,0.18,-55.63,-20.13,14.77
12192,-7.07,-8.92,-1.69,-0.26,-0.10,0.18,-55.63,-20.13,14.77
12203,-6.46,-7.30,-4.47,-0.72,-0.16,0.70,-53.29,-21.42,12.33
12214,-6.46,-7.30,-4.47,-0.72,-0.16,0.70,-53.29,-21.42,12.33
12225,-6.53,-6.70,-2.65,-0.60,-0.69,1.06,-53.29,-21.42,12.33
12236,-7.54,-5.89,-1.75,-0.30,-0.89,1.25,-53.29,-21.42,12.33
12247,-7.54,-5.89,-1.75,-0.30,-0.89,1.25,-53.29,-21.42,12.33
12258,-8.18,-5.58,-1.11,-0.06,-0.88,1.30,-53.29,-21.42,12.33
12269,-8.18,-5.58,-1.11,-0.06,-0.88,1.30,-53.29,-21.42,12.33
12280,-9.52,-3.93,0.75,0.06,-0.65,1.32,-53.29,-21.42,12.33
12291,-9.52,-3.93,0.75,0.06,-0.65,1.32,-53.29,-21.42,12.33
12302,-9.55,-3.69,0.06,-0.28,-0.12,0.94,-53.29,-21.42,12.33
12313,-9.55,-3.69,0.06,-0.28,-0.12,0.94,-53.29,-21.42,12.33
12324,-8.56,-4.19,-0.38,-0.54,0.06,0.63,-57.00,-17.40,14.24
12335,-8.56,-4.19,-0.38,-0.54,0.06,0.63,-57.00,-17.40,14.24
12346,-8.51,-4.67,-0.81,-0.63,0.08,0.55,-57.00,-17.40,14.24
12357,-8.95,-4.11,-1.56,-0.60,-0.03,0.59,-57.00,-17.40,14.24
12368,-8.95,-4.11,-1.56,-0.60,-0.03,0.59,-57.00,-17.40,14.24
12379,-9.15,-4.26,-0.65,-0.47,-0.15,0.52,-57.00,-17.40,14.24
12390,-9.15,-4.26,-0.65,-0.47,-0.15,0.52,-57.00,-17.40,14.24
12401,-9.33,-3.96,-0.87,-0.38,0.06,0.43,-57.00,-17.40,14.24
12412,-9.33,-3.96,-0.87,-0.38,0.06,0.43,-57.00,-17.40,14.24
12423,-9.05,-3.57,-1.55,-0.28,0.14,0.29,-57.00,-17.40,14.24
12434,-9.05,-3.57,-1.55,-0.28,0.14,0.29,-57.00,-17.40,14.24
12445,-8.44,-4.28,-2.04,-0.09,0.03,0.15,-58.56,-13.86,13.90
12456,-8.48,-4.86,-2.13,0.09,-0.15,0.18,-58.56,-13.86,13.90
12468,-8.48,-4.86,-2.13,0.09,-0.15,0.18,-58.56,-13.86,13.90
12478,-8.64,-4.66,-1.65,0.17,-0.28,0.32,-58.56,-13.86,13.90
12489,-8.64,-4.66,-1.65,0.17,-0.28,0.32,-58.56,-13.86,13.90
12500,-8.72,-4.61,-1.33,0.15,-0.32,0.40,-58.56,-13.86,13.90
12511,-8.72,-4.61,-1.33,0.15,-0.32,0.40,-58.56,-13.86,13.90
12522,-9.17,-3.88,-1.08,0.12,-0.34,0.46,-58.56,-13.86,13.90
12533,-9.17,-3.88,-1.08,0.12,-0.34,0.46,-58.56,-13.86,13.90
12544,-9.30,-3.65,-0.89,0.17,-0.27,0.37,-58.56,-13.86,13.90
12555,-9.30,-3.65,-0.89,0.17,-0.27,0.37,-58.56,-13.86,13.90
12566,-9.37,-3.57,-0.87,0.22,-0.15,0.22,-58.56,-13.86,13.90
12577,-9.82,-3.38,-0.37,0.19,-0.12,0.11,-58.56,-13.86,15.63
12588,-9.82,-3.38,-0.37,0.19,-0.12,0.11,-58.56,-13.86,15.63
12599,-9.78,-3.27,0.28,-0.00,-0.04,0.03,-58.56,-13.86,15.63
12610,-9.78,-3.27,0.28,-0.00,-0.04,0.03,-58.56,-13.86,15.63
12621,-9.23,-3.61,-0.83,-0.13,0.12,-0.05,-58.56,-13.86,15.63
12632,-9.23,-3.61,-0.83,-0.13,0.12,-0.05,-58.56,-13.86,15.63
12643,-8.71,-4.41,-1.42,-0.07,0.14,-0.11,-58.56,-13.86,15.63
12654,-8.71,-4.41,-1.42,-0.07,0.14,-0.11,-58.56,-13.86,15.63
12665,-8.72,-4.40,-1.76,0.07,0.05,-0.04,-58.56,-13.86,15.63
12676,-9.07,-4.03,-1.25,0.20,-0.07,0.03,-58.56,-13.86,15.63
12687,-9.07,-4.03,-1.25,0.20,-0.07,0.03,-58.56,-13.86,15.63
12698,-9.40,-3.78,-0.83,0.29,-0.03,0.04,-57.19,-14.02,16.16
12709,-9.40,-3.78,-0.83,0.29,-0.03,0.04,-57.19,-14.02,16.16
12720,-9.03,-4.27,-1.14,0.31,0.10,-0.02,-57.19,-14.02,16.16
12731,-9.03,-4.27,-1.14,0.31,0.10,-0.02,-57.19,-14.02,16.16
12742,-8.88,-4.12,-1.37,0.28,0.07,0.02,-57.19,-14.02,16.16
12753,-8.88,-4.12,-1.37,0.28,0.07,0.02,-57.19,-14.02,16.16
12764,-8.94,-4.21,-1.05,0.26,-0.03,0.06,-57.19,-14.02,16.16
12775,-8.94,-4.21,-1.05,0.26,-0.03,0.06,-57.19,-14.02,16.16
12786,-9.02,-4.20,-0.72,0.21,-0.09,0.12,-57.19,-14.02,16.16
12797,-9.28,-3.83,-0.33,0.20,-0.05,0.18,-57.19,-14.02,16.16
12809,-9.28,-3.83,-0.33,0.20,-0.05,0.18,-57.19,-14.02,16.16
12819,-9.58,-3.45,-0.40,0.05,-0.03,0.15,-58.76,-11.45,16.16
12830,-9.58,-3.45,-0.40,0.05,-0.03,0.15,-58.76,-11.45,16.16
12841,-9.33,-3.42,-0.90,-0.07,-0.04,0.04,-58.76,-11.45,16.16
12852,-9.33,-3.42,-0.90,-0.07,-0.04,0.04,-58.76,-11.45,16.16
12863,-9.38,-3.56,-0.88,-0.09,-0.09,-0.06,-58.76,-11.45,16.16
12874,-9.38,-3.56,-0.88,-0.09,-0.09,-0.06,-58.76,-11.45,16.16
12885,-9.19,-3.71,-0.92,-0.09,-0.15,-0.16,-58.76,-11.45,16.16
12896,-8.89,-3.98,-1.15,-0.01,-0.21,-0.23,-58.76,-11.45,16.16
12907,-8.89,-3.98,-1.15,-0.01,-0.21,-0.23,-58.76,-11.45,16.16
12918,-8.86,-4.21,-1.21,0.12,-0.29,-0.25,-58.76,-11.45,16.16
12929,-8.86,-4.21,-1.21,0.12,-0.29,-0.25,-58.76,-11.45,16.16
12940,-8.95,-4.41,-0.93,0.23,-0.38,-0.20,-58.76,-11.45,16.16
12951,-8.95,-4.41,-0.93,0.23,-0.38,-0.20,-58.76,-11.45,16.16
12962,-8.96,-4.53,-0.10,0.27,-0.41,-0.08,-58.76,-12.73,14.42
12973,-8.96,-4.53,-0.10,0.27,-0.41,-0.08,-58.76,-12.73,14.42
12984,-9.14,-4.13,0.11,0.27,-0.22,0.04,-58.76,-12.73,14.42
12995,-9.14,-4.13,0.11,0.27,-0.22,0.04,-58.76,-12.73,14.42
13006,-9.21,-3.89,-0.51,0.20,-0.05,0.01,-58.76,-12.73,14.42
13017,-9.28,-4.00,-0.16,0.18,0.04,-0.05,-58.76,-12.73,14.42
13028,-9.28,-4.00,-0.16,0.18,0.04,-0.05,-58.76,-12.73,14.42
13040,-9.37,-3.85,-0.34,0.13,0.18,-0.09,-58.76,-12.73,14.42
13050,-9.37,-3.85,-0.34,0.13,0.18,-0.09,-58.76,-12.73,14.42
13061,-9.19,-4.01,-0.29,0.08,0.27,-0.13,-58.76,-12.73,14.42
13072,-9.19,-4.01,-0.29,0.08,0.27,-0.13,-58.76,-12.73,14.42
13083,-8.78,-4.63,-0.80,0.07,0.36,-0.13,-58.37,-13.38,16.85
13094,-8.78,-4.63,-0.80,0.07,0.36,-0.13,-58.37,-13.38,16.85
13105,-8.75,-4.43,-1.13,0.05,0.29,-0.04,-58.37,-13.38,16.85
13116,-8.67,-4.48,-1.08,0.13,0.21,-0.00,-58.37,-13.38,16.85
13127,-8.67,-4.48,-1.08,0.13,0.21,-0.00,-58.37,-13.38,16.85
13138,-8.97,-4.13,-0.68,0.16,0.11,0.05,-58.37,-13.38,16.85
13149,-8.97,-4.13,-0.68,0.16,0.11,0.05,-58.37,-13.38,16.85
13160,-9.34,-3.98,-0.33,0.13,0.05,0.08,-58.37,-13.38,16.85
13171,-9.34,-3.98,-0.33,0.13,0.05,0.08,-58.37,-13.38,16.85
13182,-9.44,-3.74,-0.22,0.00,0.04,0.06,-58.37,-13.38,16.85
13193,-9.44,-3.74,-0.22,0.00,0.04,0.06,-58.37,-13.38,16.85
13204,-9.22,-4.07,-0.64,-0.09,0.08,-0.00,-58.56,-11.29,15.98
13215,-9.22,-4.07,-0.64,-0.09,0.08,-0.00,-58.56,-11.29,15.98
13226,-8.79,-4.31,-1.32,-0.10,0.06,-0.01,-58.56,-11.29,15.98
13237,-8.79,-4.33,-1.13,0.01,-0.01,0.02,-58.56,-11.29,15.98
13248,-8.79,-4.33,-1.13,0.01,-0.01,0.02,-58.56,-11.29,15.98
13259,-9.06,-4.14,-0.68,0.08,-0.06,0.06,-58.56,-11.29,15.98
13270,-9.06,-4.14,-0.68,0.08,-0.06,0.06,-58.56,-11.29,15.98
13281,-9.33,-3.88,-0.38,0.10,-0.03,0.09,-58.56,-11.29,15.98
13292,-9.33,-3.88,-0.38,0.10,-0.03,0.09,-58.56,-11.29,15.98
13303,-9.34,-3.90,-0.34,0.06,0.03,0.06,-58.56,-11.29,15.98
13314,-9.34,-3.90,-0.34,0.06,0.03,0.06,-58.56,-11.29,15.98
13325,-9.11,-4.05,-0.66,0.01,0.07,0.02,-58.56,-11.29,15.98
13336,-9.11,-4.05,-0.66,0.01,0.07,0.02,-58.56,-11.29,15.98
13347,-9.01,-4.18,-1.02,0.01,0.07,0.02,-57.58,-13.05,15.81
13358,-9.04,-4.07,-0.90,0.01,-0.00,0.03,-57.58,-13.05,15.81
13369,-9.04,-4.07,-0.90,0.01,-0.00,0.03,-57.58,-13.05,15.81
13385,-9.23,-4.05,-0.61,0.02,-0.05,0.03,-57.58,-13.05,15.81
13391,-9.23,-4.05,-0.61,0.02,-0.05,0.03,-57.58,-13.05,15.81
13402,-9.14,-4.08,-0.46,0.02,-0.01,0.05,-57.58,-13.05,15.81
13413,-9.14,-4.08,-0.46,0.02,-0.01,0.05,-57.58,-13.05,15.81
13424,-9.17,-3.96,-0.71,0.02,0.05,0.07,-57.58,-13.05,15.81
13435,-9.17,-3.96,-0.71,0.02,0.05,0.07,-57.58,-13.05,15.81
13446,-9.15,-3.87,-0.72,0.03,0.04,0.05,-57.58,-13.05,15.81
13457,-9.22,-4.07,-0.63,0.04,0.03,0.03,-58.76,-11.77,16.85
13468,-9.22,-4.07,-0.63,0.04,0.03,0.03,-58.76,-11.77,16.85
13479,-9.12,-4.10,-0.47,-0.03,0.02,0.05,-58.76,-11.77,16.85
13490,-9.12,-4.10,-0.47,-0.03,0.02,0.05,-58.76,-11.77,16.85
13501,-9.17,-4.08,-0.78,-0.12,0.03,0.08,-58.76,-11.77,16.85
13512,-9.17,-4.08,-0.78,-0.12,0.03,0.08,-58.76,-11.77,16.85
13523,-9.26,-3.74,-1.06,-0.12,0.01,0.12,-58.76,-11.77,16.85
13534,-9.26,-3.74,-1.06,-0.12,0.01,0.12,-58.76,-11.77,16.85
13545,-9.21,-4.03,-0.91,-0.08,-0.04,0.12,-58.76,-11.77,16.85
13556,-9.21,-4.03,-0.91,-0.08,-0.04,0.12,-58.76,-11.77,16.85
13567,-9.23,-3.85,-0.83,-0.03,-0.09,0.13,-58.76,-11.77,16.85
13578,-9.26,-3.77,-0.59,0.04,-0.12,0.12,-59.54,-11.12,15.81
13589,-9.26,-3.77,-0.59,0.04,-0.12,0.12,-59.54,-11.12,15.81
13600,-9.28,-3.64,-0.17,0.02,-0.13,0.12,-59.54,-11.12,15.81
13616,-9.28,-3.64,-0.17,0.02,-0.13,0.12,-59.54,-11.12,15.81
13622,-9.32,-3.78,-0.26,-0.09,-0.07,0.08,-59.54,-11.12,15.81
13633,-9.32,-3.78,-0.26,-0.09,-0.07,0.08,-59.54,-11.12,15.81
13644,-9.25,-3.74,-0.66,-0.13,-0.00,0.06,-59.54,-11.12,15.81
13655,-9.25,-3.74,-0.66,-0.13,-0.00,0.06,-59.54,-11.12,15.81
13666,-9.23,-3.96,-0.57,-0.17,0.01,0.05,-59.54,-11.12,15.81
13677,-9.24,-3.97,-0.57,-0.24,0.03,0.08,-59.54,-11.12,15.81
13689,-9.24,-3.97,-0.57,-0.24,0.03,0.08,-59.54,-11.12,15.81
13699,-9.14,-3.65,-0.88,-0.24,0.03,0.11,-59.54,-11.12,15.81
13710,-9.14,-3.65,-0.88,-0.24,0.03,0.11,-59.54,-11.12,15.81
13721,-9.31,-3.84,-0.47,-0.21,-0.02,0.08,-57.98,-10.48,15.46
13732,-9.31,-3.84,-0.47,-0.21,-0.02,0.08,-57.98,-10.48,15.46
13743,-9.29,-3.63,-1.31,-0.20,-0.03,0.09,-57.98,-10.48,15.46
13754,-9.29,-3.63,-1.31,-0.20,-0.03,0.09,-57.98,-10.48,15.46
13765,-9.31,-3.60,-0.51,-0.14,-0.15,0.10,-57.98,-10.48,15.46
13776,-9.31,-3.60,-0.51,-0.14,-0.15,0.10,-57.98,-10.48,15.46
13787,-9.16,-3.48,-1.14,-0.09,-0.17,0.09,-57.98,-10.48,15.46
13798,-9.26,-3.71,-0.05,-0.08,-0.29,0.05,-57.98,-10.48,15.46
13809,-9.26,-3.71,-0.05,-0.08,-0.29,0.05,-57.98,-10.48,15.46
13820,-9.22,-3.53,-0.75,-0.13,-0.22,0.02,-57.98,-10.48,15.46
13831,-9.22,-3.53,-0.75,-0.13,-0.22,0.02,-57.98,-10.48,15.46
13842,-9.29,-3.83,-0.21,-0.17,-0.26,0.00,-60.12,-11.29,17.72
13853,-9.29,-3.83,-0.21,-0.17,-0.26,0.00,-60.12,-11.29,17.72
13864,-9.25,-4.03,-0.36,-0.13,-0.23,0.00,-60.12,-11.29,17.72
13875,-9.25,-4.03,-0.36,-0.13,-0.23,0.00,-60.12,-11.29,17.72
13886,-9.29,-3.63,-0.98,-0.11,-0.16,0.02,-60.12,-11.29,17.72
13897,-9.10,-3.47,-1.54,-0.15,-0.28,0.03,-60.12,-11.29,17.72
13908,-9.10,-3.47,-1.54,-0.15,-0.28,0.03,-60.12,-11.29,17.72
13919,-9.29,-3.45,0.12,-0.16,-0.47,0.05,-60.12,-11.29,17.72
13930,-9.29,-3.45,0.12,-0.16,-0.47,0.05,-60.12,-11.29,17.72
13941,-9.24,-3.72,-0.27,-0.14,-0.34,0.01,-60.12,-11.29,17.72
13952,-9.24,-3.72,-0.27,-0.14,-0.34,0.01,-60.12,-11.29,17.72
13963,-9.34,-3.63,0.23,-0.05,-0.31,-0.00,-57.98,-11.77,17.20
13974,-9.34,-3.63,0.23,-0.05,-0.31,-0.00,-57.98,-11.77,17.20
13985,-9.36,-3.49,-0.17,-0.05,-0.27,-0.05,-57.98,-11.77,17.20
13996,-9.36,-3.49,-0.17,-0.05,-0.27,-0.05,-57.98,-11.77,17.20
14007,-9.00,-3.37,-0.74,-0.05,-0.31,-0.07,-57.98,-11.77,17.20
14018,-9.23,-3.81,-0.24,-0.03,-0.39,-0.10,-57.98,-11.77,17.20
14030,-9.23,-3.81,-0.24,-0.03,-0.39,-0.10,-57.98,-11.77,17.20
14040,-9.37,-3.84,0.11,0.02,-0.45,-0.10,-57.98,-11.77,17.20
14051,-9.37,-3.84,0.11,0.02,-0.45,-0.10,-57.98,-11.77,17.20
14062,-9.34,-3.73,0.39,0.08,-0.45,-0.11,-57.98,-11.77,17.20
14073,-9.34,-3.73,0.39,0.08,-0.45,-0.11,-57.98,-11.77,17.20
14084,-9.14,-3.39,0.11,0.14,-0.37,-0.14,-57.58,-12.41,19.28
14095,-9.14,-3.39,0.11,0.14,-0.37,-0.14,-57.58,-12.41,19.28
14106,-9.40,-3.87,0.81,0.18,-0.37,-0.18,-57.58,-12.41,19.28
14117,-9.23,-3.30,-0.04,0.23,-0.22,-0.17,-57.58,-12.41,19.28
14128,-9.23,-3.30,-0.04,0.23,-0.22,-0.17,-57.58,-12.41,19.28
14139,-9.23,-3.91,0.35,0.30,-0.17,-0.21,-57.58,-12.41,19.28
14150,-9.23,-3.91,0.35,0.30,-0.17,-0.21,-57.58,-12.41,19.28
14161,-9.30,-3.91,0.74,0.32,-0.13,-0.18,-57.58,-12.41,19.28
14172,-9.30,-3.91,0.74,0.32,-0.13,-0.18,-57.58,-12.41,19.28
14183,-9.20,-3.75,0.12,0.28,-0.08,-0.17,-57.58,-12.41,19.28
14194,-9.20,-3.75,0.12,0.28,-0.08,-0.17,-57.58,-12.41,19.28
14205,-9.31,-3.87,0.57,0.27,-0.10,-0.17,-57.58,-12.41,19.28
14216,-9.31,-3.87,0.57,0.27,-0.10,-0.17,-57.58,-12.41,19.28
14227,-9.20,-3.81,0.84,0.18,-0.01,-0.16,-56.22,-12.57,21.89
14238,-9.32,-4.07,1.48,0.07,0.12,-0.15,-56.22,-12.57,21.89
14249,-9.32,-4.07,1.48,0.07,0.12,-0.15,-56.22,-12.57,21.89
14260,-9.36,-4.13,1.70,-0.04,0.38,-0.11,-56.22,-12.57,21.89
14271,-9.36,-4.13,1.70,-0.04,0.38,-0.11,-56.22,-12.57,21.89
14282,-9.25,-3.62,0.20,-0.13,0.70,-0.03,-56.22,-12.57,21.89
14293,-9.25,-3.62,0.20,-0.13,0.70,-0.03,-56.22,-12.57,21.89
14304,-9.25,-4.05,0.04,-0.11,0.78,0.01,-56.22,-12.57,21.89
14315,-9.25,-4.05,0.04,-0.11,0.78,0.01,-56.22,-12.57,21.89
14326,-9.12,-4.31,-0.25,-0.14,0.76,0.06,-56.22,-12.57,21.89
14337,-9.12,-4.31,-0.25,-0.14,0.76,0.06,-56.22,-12.57,21.89
14349,-9.11,-4.27,-0.22,-0.18,0.68,0.12,-58.95,-12.57,18.07
14359,-9.15,-3.92,-0.83,-0.25,0.61,0.20,-58.95,-12.57,18.07
14370,-9.15,-3.92,-0.83,-0.25,0.61,0.20,-58.95,-12.57,18.07
14381,-9.19,-4.29,-0.23,-0.34,0.54,0.25,-58.95,-12.57,18.07
14392,-9.19,-4.29,-0.23,-0.34,0.54,0.25,-58.95,-12.57,18.07
14403,-9.06,-3.85,-0.68,-0.39,0.50,0.29,-58.95,-12.57,18.07
14414,-9.06,-3.85,-0.68,-0.39,0.50,0.29,-58.95,-12.57,18.07
14425,-8.99,-3.11,-1.02,-0.36,0.42,0.29,-58.95,-12.57,18.07
14441,-8.99,-3.11,-1.02,-0.36,0.42,0.29,-58.95,-12.57,18.07
14447,-9.35,-3.67,-0.75,-0.23,0.40,0.20,-58.95,-12.57,18.07
14458,-9.35,-3.95,-0.50,-0.27,0.35,0.19,-58.37,-11.45,16.16
14469,-9.35,-3.95,-0.50,-0.27,0.35,0.19,-58.37,-11.45,16.16
14480,-9.22,-3.94,-1.06,-0.36,0.32,0.23,-58.37,-11.45,16.16
14491,-9.22,-3.94,-1.06,-0.36,0.32,0.23,-58.37,-11.45,16.16
14502,-9.27,-3.31,-1.85,-0.40,0.25,0.28,-58.37,-11.45,16.16
14513,-9.27,-3.31,-1.85,-0.40,0.25,0.28,-58.37,-11.45,16.16
14524,-9.32,-3.09,-1.29,-0.39,0.08,0.29,-58.37,-11.45,16.16
14535,-9.32,-3.09,-1.29,-0.39,0.08,0.29,-58.37,-11.45,16.16
14546,-9.31,-3.54,-0.92,-0.35,0.01,0.24,-58.37,-11.45,16.16
14557,-9.31,-3.54,-0.92,-0.35,0.01,0.24,-58.37,-11.45,16.16
14568,-9.36,-3.13,-1.28,-0.34,0.01,0.27,-58.37,-11.45,16.16
14579,-9.38,-3.34,-1.14,-0.34,-0.06,0.25,-58.37,-11.45,16.16
14590,-9.38,-3.34,-1.14,-0.34,-0.06,0.25,-58.37,-11.45,16.16
14601,-9.41,-2.98,-1.30,-0.35,-0.16,0.27,-59.34,-10.96,14.24
14612,-9.41,-2.98,-1.30,-0.35,-0.16,0.27,-59.34,-10.96,14.24
14624,-9.45,-3.14,-1.03,-0.34,-0.17,0.25,-59.34,-10.96,14.24
14634,-9.45,-3.14,-1.03,-0.34,-0.17,0.25,-59.34,-10.96,14.24
14645,-9.42,-2.83,-0.78,-0.30,-0.16,0.21,-59.34,-10.96,14.24
14656,-9.42,-2.83,-0.78,-0.30,-0.16,0.21,-59.34,-10.96,14.24
14667,-9.30,-3.06,-1.19,-0.20,-0.14,0.14,-59.34,-10.96,14.24
14678,-9.51,-2.82,-1.17,-0.24,-0.24,0.10,-59.34,-10.96,14.24
14689,-9.51,-2.82,-1.17,-0.24,-0.24,0.10,-59.34,-10.96,14.24
14700,-9.39,-2.56,-1.98,-0.24,-0.35,0.00,-59.34,-10.96,14.24
14711,-9.39,-2.56,-1.98,-0.24,-0.35,0.00,-59.34,-10.96,14.24
14722,-9.32,-3.09,-1.14,-0.20,-0.54,-0.08,-58.76,-11.45,16.16
14733,-9.32,-3.09,-1.14,-0.20,-0.54,-0.08,-58.76,-11.45,16.16
14744,-9.35,-3.70,-0.92,-0.16,-0.55,-0.11,-58.76,-11.45,16.16
14755,-9.35,-3.70,-0.92,-0.16,-0.55,-0.11,-58.76,-11.45,16.16
14766,-9.47,-3.26,-0.09,-0.17,-0.49,-0.06,-58.76,-11.45,16.16
14777,-9.47,-3.26,-0.09,-0.17,-0.49,-0.06,-58.76,-11.45,16.16
14788,-9.36,-3.06,-0.44,-0.15,-0.33,-0.07,-58.76,-11.45,16.16
14799,-9.40,-3.19,-0.42,-0.14,-0.36,-0.16,-58.76,-11.45,16.16
14810,-9.40,-3.19,-0.42,-0.14,-0.36,-0.16,-58.76,-11.45,16.16
14821,-9.25,-3.15,-0.93,-0.07,-0.37,-0.20,-58.76,-11.45,16.16
14832,-9.25,-3.15,-0.93,-0.07,-0.37,-0.20,-58.76,-11.45,16.16
14843,-9.46,-3.90,-0.15,-0.02,-0.35,-0.18,-57.39,-11.29,18.07
14854,-9.46,-3.90,-0.15,-0.02,-0.35,-0.18,-57.39,-11.29,18.07
14865,-9.38,-3.26,-0.91,-0.03,-0.29,-0.12,-57.39,-11.29,18.07
14877,-9.38,-3.26,-0.91,-0.03,-0.29,-0.12,-57.39,-11.29,18.07
14887,-9.45,-3.43,0.13,0.07,-0.33,-0.13,-57.39,-11.29,18.07
14898,-9.45,-3.36,-0.33,0.07,-0.26,-0.13,-57.39,-11.29,18.07
14909,-9.45,-3.36,-0.33,0.07,-0.26,-0.13,-57.39,-11.29,18.07
14920,-9.45,-3.23,-0.34,0.11,-0.30,-0.17,-57.39,-11.29,18.07
14931,-9.45,-3.23,-0.34,0.11,-0.30,-0.17,-57.39,-11.29,18.07
14942,-9.46,-2.89,0.13,0.23,-0.24,-0.19,-57.39,-11.29,18.07
14953,-9.46,-2.89,0.13,0.23,-0.24,-0.19,-57.39,-11.29,18.07
14964,-9.48,-3.65,0.07,0.29,-0.11,-0.23,-57.39,-11.29,18.07
14975,-9.48,-3.65,0.07,0.29,-0.11,-0.23,-57.39,-11.29,18.07
14986,-9.41,-3.61,-0.26,0.23,-0.05,-0.19,-57.19,-11.45,19.98
14997,-9.41,-3.61,-0.26,0.23,-0.05,-0.19,-57.19,-11.45,19.98
15008,-9.36,-3.36,-0.22,0.22,-0.04,-0.16,-57.19,-11.45,19.98
15019,-9.36,-3.67,-0.03,0.22,-0.05,-0.16,-57.19,-11.45,19.98
15030,-9.36,-3.67,-0.03,0.22,-0.05,-0.16,-57.19,-11.45,19.98
15041,-9.35,-3.51,-0.03,0.20,-0.07,-0.12,-57.19,-11.45,19.98
15052,-9.35,-3.51,-0.03,0.20,-0.07,-0.12,-57.19,-11.45,19.98
15063,-9.42,-3.64,0.14,0.19,-0.09,-0.12,-57.19,-11.45,19.98
15074,-9.42,-3.64,0.14,0.19,-0.09,-0.12,-57.19,-11.45,19.98
15085,-9.40,-3.48,0.20,0.14,-0.04,-0.08,-57.19,-11.45,19.98
15096,-9.40,-3.48,0.20,0.14,-0.04,-0.08,-57.19,-11.45,19.98
15107,-9.45,-3.48,0.52,0.07,0.03,-0.07,-55.83,-10.64,19.46
15118,-9.41,-3.77,0.63,-0.03,0.14,-0.07,-55.83,-10.64,19.46
15129,-9.41,-3.77,0.63,-0.03,0.14,-0.07,-55.83,-10.64,19.46
15140,-9.42,-3.86,0.34,-0.08,0.33,-0.01,-55.83,-10.64,19.46
15151,-9.42,-3.86,0.34,-0.08,0.33,-0.01,-55.83,-10.64,19.46
15162,-9.38,-3.24,-0.58,-0.16,0.47,0.11,-55.83,-10.64,19.46
15173,-9.38,-3.24,-0.58,-0.16,0.47,0.11,-55.83,-10.64,19.46
15184,-9.40,-3.46,-0.46,-0.21,0.48,0.15,-55.83,-10.64,19.46
15196,-9.40,-3.46,-0.46,-0.21,0.48,0.15,-55.83,-10.64,19.46
15206,-9.43,-3.66,-0.20,-0.25,0.45,0.18,-55.83,-10.64,19.46
15217,-9.43,-3.66,-0.20,-0.25,0.45,0.18,-55.83,-10.64,19.46
15228,-9.35,-3.24,-0.71,-0.24,0.47,0.22,-57.58,-11.12,17.55
15239,-9.31,-3.90,-0.24,-0.19,0.41,0.18,-57.58,-11.12,17.55
15250,-9.31,-3.90,-0.24,-0.19,0.41,0.18,-57.58,-11.12,17.55
15261,-9.41,-2.89,-1.11,-0.24,0.39,0.19,-57.58,-11.12,17.55
15272,-9.41,-2.89,-1.11,-0.24,0.39,0.19,-57.58,-11.12,17.55
15283,-9.36,-3.86,-0.42,-0.17,0.31,0.14,-57.58,-11.12,17.55
15294,-9.36,-3.86,-0.42,-0.17,0.31,0.14,-57.58,-11.12,17.55
15305,-9.38,-3.27,-0.92,-0.29,0.33,0.20,-57.58,-11.12,17.55
15316,-9.38,-3.27,-0.92,-0.29,0.33,0.20,-57.58,-11.12,17.55
15327,-9.29,-3.54,-1.24,-0.29,0.33,0.19,-57.58,-11.12,17.55
15338,-9.29,-3.54,-1.24,-0.29,0.33,0.19,-57.58,-11.12,17.55
15349,-9.40,-3.08,-1.24,-0.29,0.26,0.20,-57.58,-11.12,17.55
15360,-9.48,-2.97,-1.02,-0.26,0.21,0.17,-59.34,-12.25,15.63
15371,-9.48,-2.97,-1.02,-0.26,0.21,0.17,-59.34,-12.25,15.63
15382,-9.51,-3.11,-1.03,-0.27,0.19,0.14,-59.34,-12.25,15.63
15393,-9.51,-3.11,-1.03,-0.27,0.19,0.14,-59.34,-12.25,15.63
15404,-9.46,-2.91,-1.16,-0.28,0.16,0.14,-59.34,-12.25,15.63
15415,-9.46,-2.91,-1.16,-0.28,0.16,0.14,-59.34,-12.25,15.63
15427,-9.43,-3.21,-1.20,-0.28,0.17,0.15,-59.34,-12.25,15.63
15437,-9.43,-3.21,-1.20,-0.28,0.17,0.15,-59.34,-12.25,15.63
15448,-9.42,-3.33,-1.15,-0.30,0.17,0.17,-59.34,-12.25,15.63
15459,-9.41,-3.13,-1.05,-0.33,0.14,0.20,-59.34,-12.25,15.63
15470,-9.41,-3.13,-1.05,-0.33,0.14,0.20,-59.34,-12.25,15.63
15481,-9.52,-2.56,-1.71,-0.34,0.10,0.20,-59.34,-10.64,13.20
15492,-9.52,-2.56,-1.71,-0.34,0.10,0.20,-59.34,-10.64,13.20
15503,-9.62,-3.04,-1.25,-0.30,0.03,0.11,-59.34,-10.64,13.20
15514,-9.62,-3.04,-1.25,-0.30,0.03,0.11,-59.34,-10.64,13.20
15525,-9.50,-2.86,-1.07,-0.31,0.08,0.19,-59.34,-10.64,13.20
15536,-9.50,-2.86,-1.07,-0.31,0.08,0.19,-59.34,-10.64,13.20
15547,-9.47,-2.78,-1.59,-0.33,0.09,0.17,-59.34,-10.64,13.20
15558,-9.47,-2.78,-1.59,-0.33,0.09,0.17,-59.34,-10.64,13.20
15569,-9.59,-2.96,-1.58,-0.25,0.02,0.10,-59.34,-10.64,13.20
15580,-9.65,-2.22,-1.49,-0.28,-0.07,0.14,-59.34,-10.64,13.20
15591,-9.65,-2.22,-1.49,-0.28,-0.07,0.14,-59.34,-10.64,13.20
15602,-9.65,-2.36,-1.11,-0.32,-0.16,0.08,-60.12,-9.68,14.94
15613,-9.65,-2.36,-1.11,-0.32,-0.16,0.08,-60.12,-9.68,14.94
15624,-9.60,-2.54,-1.34,-0.29,-0.17,0.03,-60.12,-9.68,14.94
15635,-9.60,-2.54,-1.34,-0.29,-0.17,0.03,-60.12,-9.68,14.94
15646,-9.70,-2.47,-1.48,-0.31,-0.22,-0.00,-60.12,-9.68,14.94
15657,-9.70,-2.47,-1.48,-0.31,-0.22,-0.00,-60.12,-9.68,14.94
15668,-9.62,-3.20,-1.02,-0.33,-0.36,-0.06,-60.12,-9.68,14.94
15679,-9.86,-2.94,-1.88,-0.33,-0.37,-0.01,-60.12,-9.68,14.94
15690,-9.86,-2.94,-1.88,-0.33,-0.37,-0.01,-60.12,-9.68,14.94
15702,-9.35,-2.59,-1.72,-0.22,-0.30,0.03,-60.12,-9.68,14.94
15712,-9.35,-2.59,-1.72,-0.22,-0.30,0.03,-60.12,-9.68,14.94
15723,-9.64,-2.60,-1.05,-0.27,-0.36,-0.02,-60.12,-9.68,14.94
15734,-9.64,-2.60,-1.05,-0.27,-0.36,-0.02,-60.12,-9.68,14.94
15745,-9.61,-2.32,-1.30,-0.29,-0.42,-0.10,-60.12,-9.68,14.94
15756,-9.61,-2.32,-1.30,-0.29,-0.42,-0.10,-60.12,-9.68,14.94
15767,-9.63,-2.33,-1.10,-0.24,-0.45,-0.15,-60.12,-9.68,14.94
15778,-9.63,-2.33,-1.10,-0.24,-0.45,-0.15,-60.12,-9.68,14.94
15789,-9.42,-3.17,-0.82,-0.10,-0.46,-0.24,-60.12,-9.68,14.94
15800,-9.52,-2.83,-1.14,-0.06,-0.42,-0.24,-60.12,-9.68,14.94
15811,-9.52,-2.83,-1.14,-0.06,-0.42,-0.24,-60.12,-9.68,14.94
15822,-9.67,-2.86,-0.45,-0.01,-0.39,-0.24,-60.12,-9.68,14.94
15833,-9.67,-2.86,-0.45,-0.01,-0.39,-0.24,-60.12,-9.68,14.94
15844,-9.65,-3.06,-0.67,-0.01,-0.30,-0.22,-60.12,-9.68,14.94
15855,-9.65,-3.06,-0.67,-0.01,-0.30,-0.22,-60.12,-9.68,14.94
15866,-9.64,-2.77,-0.66,0.02,-0.25,-0.19,-57.58,-11.12,17.89
15877,-9.64,-2.77,-0.66,0.02,-0.25,-0.19,-57.58,-11.12,17.89
15888,-9.58,-2.86,-0.57,0.11,-0.13,-0.16,-57.58,-11.12,17.89
15899,-9.54,-3.03,-0.60,0.11,-0.09,-0.16,-57.58,-11.12,17.89
15910,-9.54,-3.03,-0.60,0.11,-0.09,-0.16,-57.58,-11.12,17.89
15921,-9.49,-3.01,-0.84,0.13,-0.09,-0.18,-57.58,-11.12,17.89
15932,-9.49,-3.01,-0.84,0.13,-0.09,-0.18,-57.58,-11.12,17.89
15943,-9.56,-3.59,-0.23,0.15,-0.12,-0.17,-57.58,-11.12,17.89
15954,-9.56,-3.59,-0.23,0.15,-0.12,-0.17,-57.58,-11.12,17.89
15965,-9.52,-2.81,-0.45,0.13,-0.07,-0.09,-57.58,-11.12,17.89
15976,-9.52,-2.81,-0.45,0.13,-0.07,-0.09,-57.58,-11.12,17.89
15987,-9.52,-3.30,-0.40,0.14,-0.05,-0.14,-57.58,-11.77,18.24
15998,-9.52,-3.30,-0.40,0.14,-0.05,-0.14,-57.58,-11.77,18.24
16009,-9.59,-3.04,-0.58,0.14,-0.03,-0.12,-57.58,-11.77,18.24
16020,-9.55,-3.11,-0.31,0.10,-0.01,-0.10,-57.58,-11.77,18.24
16031,-9.55,-3.11,-0.31,0.10,-0.01,-0.10,-57.58,-11.77,18.24
16043,-9.59,-3.41,0.38,0.03,0.07,-0.08,-57.58,-11.77,18.24
16053,-9.59,-3.41,0.38,0.03,0.07,-0.08,-57.58,-11.77,18.24
16064,-9.59,-3.52,-0.10,-0.07,0.30,0.00,-57.58,-11.77,18.24
16075,-9.59,-3.52,-0.10,-0.07,0.30,0.00,-57.58,-11.77,18.24
16086,-9.54,-3.06,-1.10,-0.13,0.46,0.14,-57.58,-11.77,18.24
16097,-9.54,-3.06,-1.10,-0.13,0.46,0.14,-57.58,-11.77,18.24
16108,-9.54,-3.43,-0.82,-0.15,0.44,0.19,-58.17,-11.61,17.72
16119,-9.54,-3.25,-0.74,-0.19,0.45,0.25,-58.17,-11.61,17.72
16130,-9.54,-3.25,-0.74,-0.19,0.45,0.25,-58.17,-11.61,17.72
16141,-9.48,-2.76,-1.24,-0.25,0.44,0.28,-58.17,-11.61,17.72
16152,-9.48,-2.76,-1.24,-0.25,0.44,0.28,-58.17,-11.61,17.72
16163,-9.54,-3.03,-1.30,-0.22,0.39,0.25,-58.17,-11.61,17.72
16174,-9.54,-3.03,-1.30,-0.22,0.39,0.25,-58.17,-11.61,17.72
16185,-9.49,-2.83,-1.12,-0.26,0.32,0.25,-58.17,-11.61,17.72
16196,-9.49,-2.83,-1.12,-0.26,0.32,0.25,-58.17,-11.61,17.72
16207,-9.55,-2.88,-1.02,-0.18,0.31,0.26,-58.17,-11.61,17.72
16218,-9.55,-2.88,-1.02,-0.18,0.31,0.26,-58.17,-11.61,17.72
16229,-9.56,-2.16,-1.96,-0.29,0.29,0.26,-58.17,-11.61,17.72
16240,-9.56,-3.00,-1.22,-0.19,0.19,0.17,-58.76,-10.80,15.81
16251,-9.56,-3.00,-1.22,-0.19,0.19,0.17,-58.76,-10.80,15.81
16262,-9.59,-2.69,-1.22,-0.27,0.20,0.23,-58.76,-10.80,15.81
16273,-9.59,-2.69,-1.22,-0.27,0.20,0.23,-58.76,-10.80,15.81
16284,-9.58,-2.71,-1.37,-0.25,0.15,0.19,-58.76,-10.80,15.81
16296,-9.58,-2.71,-1.37,-0.25,0.15,0.19,-58.76,-10.80,15.81
16306,-9.60,-2.47,-1.43,-0.25,0.16,0.21,-58.76,-10.80,15.81
16317,-9.60,-2.47,-1.43,-0.25,0.16,0.21,-58.76,-10.80,15.81
16328,-9.64,-2.86,-1.20,-0.25,0.16,0.20,-58.76,-10.80,15.81
16339,-9.64,-2.86,-1.20,-0.25,0.16,0.20,-58.76,-10.80,15.81
16350,-9.60,-2.60,-1.26,-0.29,0.15,0.21,-58.76,-10.80,15.81
16361,-9.63,-2.29,-1.84,-0.33,0.14,0.19,-58.76,-9.84,14.07
16372,-9.63,-2.29,-1.84,-0.33,0.14,0.19,-58.76,-9.84,14.07
16383,-9.69,-2.11,-1.74,-0.53,0.10,0.20,-58.76,-9.84,14.07
16394,-9.69,-2.11,-1.74,-0.53,0.10,0.20,-58.76,-9.84,14.07
16405,-9.62,-2.38,-1.14,-0.39,0.05,0.21,-58.76,-9.84,14.07
16416,-9.62,-2.38,-1.14,-0.39,0.05,0.21,-58.76,-9.84,14.07
16427,-9.55,-2.49,-1.94,-0.50,0.07,0.18,-58.76,-9.84,14.07
16438,-9.55,-2.49,-1.94,-0.50,0.07,0.18,-58.76,-9.84,14.07
16449,-9.63,-2.44,-1.80,-0.30,0.04,0.14,-58.76,-9.84,14.07
16460,-9.69,-1.98,-1.72,-0.29,0.01,0.12,-58.76,-9.84,14.07
16471,-9.69,-1.98,-1.72,-0.29,0.01,0.12,-58.76,-9.84,14.07
16482,-9.74,-2.34,-1.54,-0.32,-0.03,0.09,-59.73,-9.36,12.51
16493,-9.74,-2.34,-1.54,-0.32,-0.03,0.09,-59.73,-9.36,12.51
16504,-9.79,-1.48,-1.47,-0.37,-0.08,0.13,-59.73,-9.36,12.51
16515,-9.79,-1.48,-1.47,-0.37,-0.08,0.13,-59.73,-9.36,12.51
16526,-9.70,-2.14,-1.92,-0.34,-0.12,0.02,-59.73,-9.36,12.51
16537,-9.70,-2.14,-1.92,-0.34,-0.12,0.02,-59.73,-9.36,12.51
16548,-9.56,-2.31,-1.70,-0.31,-0.23,-0.03,-59.73,-9.36,12.51
16559,-9.56,-2.31,-1.70,-0.31,-0.23,-0.03,-59.73,-9.36,12.51
16570,-9.47,-2.52,-1.87,-0.27,-0.31,-0.09,-59.73,-9.36,12.51
16581,-9.78,-2.61,-1.44,-0.24,-0.44,-0.15,-59.73,-9.36,12.51
16592,-9.78,-2.61,-1.44,-0.24,-0.44,-0.15,-59.73,-9.36,12.51
16603,-9.84,-1.81,-1.53,-0.32,-0.56,-0.15,-59.73,-9.36,12.51
16615,-9.84,-1.81,-1.53,-0.32,-0.56,-0.15,-59.73,-9.36,12.51
16625,-9.79,-1.81,-0.64,-0.29,-0.56,-0.18,-59.73,-10.00,14.94
16636,-9.79,-1.81,-0.64,-0.29,-0.56,-0.18,-59.73,-10.00,14.94
16647,-9.50,-2.71,-1.14,-0.31,-0.42,-0.22,-59.73,-10.00,14.94
16658,-9.50,-2.71,-1.14,-0.31,-0.42,-0.22,-59.73,-10.00,14.94
16669,-9.65,-2.36,-1.41,-0.30,-0.36,-0.25,-59.73,-10.00,14.94
16680,-9.67,-2.49,-1.79,-0.14,-0.29,-0.24,-59.73,-10.00,14.94
16691,-9.67,-2.49,-1.79,-0.14,-0.29,-0.24,-59.73,-10.00,14.94
16702,-9.63,-2.53,-1.81,-0.03,-0.31,-0.20,-59.73,-10.00,14.94
16713,-9.63,-2.53,-1.81,-0.03,-0.31,-0.20,-59.73,-10.00,14.94
16724,-9.72,-2.62,-0.50,0.01,-0.42,-0.22,-59.73,-10.00,14.94
16735,-9.72,-2.62,-0.50,0.01,-0.42,-0.22,-59.73,-10.00,14.94
16746,-9.64,-2.47,-0.73,0.03,-0.27,-0.19,-57.98,-11.77,16.16
16757,-9.64,-2.47,-0.73,0.03,-0.27,-0.19,-57.98,-11.77,16.16
16768,-9.70,-2.86,-0.68,-0.02,-0.21,-0.22,-57.98,-11.77,16.16
16779,-9.70,-2.86,-0.68,-0.02,-0.21,-0.22,-57.98,-11.77,16.16
16790,-9.61,-2.21,-1.30,0.05,-0.06,-0.15,-57.98,-11.77,16.16
16801,-9.65,-2.65,-0.88,0.11,-0.07,-0.18,-57.98,-11.77,16.16
16812,-9.65,-2.65,-0.88,0.11,-0.07,-0.18,-57.98,-11.77,16.16
16823,-9.68,-2.55,-0.57,0.16,-0.07,-0.21,-57.98,-11.77,16.16
16834,-9.68,-2.55,-0.57,0.16,-0.07,-0.21,-57.98,-11.77,16.16
16845,-9.65,-2.74,-0.84,0.14,-0.04,-0.22,-57.98,-11.77,16.16
16856,-9.65,-2.74,-0.84,0.14,-0.04,-0.22,-57.98,-11.77,16.16
16867,-9.58,-2.86,-1.41,0.09,-0.01,-0.18,-57.78,-10.96,16.33
16878,-9.58,-2.86,-1.41,0.09,-0.01,-0.18,-57.78,-10.96,16.33
16889,-9.72,-2.93,-0.99,0.10,-0.02,-0.11,-57.78,-10.96,16.33
16900,-9.66,-2.39,-0.61,0.11,0.01,-0.05,-57.78,-10.96,16.33
16911,-9.66,-2.39,-0.61,0.11,0.01,-0.05,-57.78,-10.96,16.33
16922,-9.64,-2.85,-0.25,0.07,0.07,-0.07,-57.78,-10.96,16.33
16933,-9.64,-2.85,-0.25,0.07,0.07,-0.07,-57.78,-10.96,16.33
16944,-9.63,-2.72,-1.25,0.04,0.20,-0.03,-57.78,-10.96,16.33
16956,-9.63,-2.72,-1.25,0.04,0.20,-0.03,-57.78,-10.96,16.33
16966,-9.59,-3.11,-0.67,0.04,0.19,0.01,-57.78,-10.96,16.33
16977,-9.59,-3.11,-0.67,0.04,0.19,0.01,-57.78,-10.96,16.33
16988,-9.60,-2.77,-1.42,0.05,0.25,0.10,-57.78,-10.96,16.33
16999,-9.60,-2.77,-1.42,0.05,0.25,0.10,-57.78,-10.96,16.33
17010,-9.55,-3.49,-0.40,0.07,0.16,0.09,-57.78,-11.61,17.72
17021,-9.63,-2.59,-0.93,0.03,0.24,0.19,-57.78,-11.61,17.72
17032,-9.63,-2.59,-0.93,0.03,0.24,0.19,-57.78,-11.61,17.72
17043,-9.66,-2.75,-0.57,0.00,0.23,0.21,-57.78,-11.61,17.72
17054,-9.66,-2.75,-0.57,0.00,0.23,0.21,-57.78,-11.61,17.72
17065,-9.65,-2.43,-0.85,-0.07,0.25,0.20,-57.78,-11.61,17.72
17076,-9.65,-2.43,-0.85,-0.07,0.25,0.20,-57.78,-11.61,17.72
17087,-9.64,-2.75,-0.96,-0.08,0.28,0.18,-57.78,-11.61,17.72
17098,-9.64,-2.75,-0.96,-0.08,0.28,0.18,-57.78,-11.61,17.72
17109,-9.57,-2.44,-1.67,-0.12,0.34,0.22,-57.78,-11.61,17.72
17120,-9.69,-1.98,-1.97,-0.10,0.26,0.21,-59.93,-10.80,17.72
17131,-9.69,-1.98,-1.97,-0.10,0.26,0.21,-59.93,-10.80,16.16
17142,-9.62,-3.03,-0.84,-0.05,0.15,0.15,-59.93,-10.80,16.16
17153,-9.62,-3.03,-0.84,-0.05,0.15,0.15,-59.93,-10.80,16.16
17164,-9.61,-1.95,-1.71,-0.13,0.23,0.26,-59.93,-10.80,16.16
17175,-9.61,-1.95,-1.71,-0.13,0.23,0.26,-59.93,-10.80,16.16
17191,-9.71,-2.19,-1.70,-0.15,0.16,0.18,-59.93,-10.80,16.16
17197,-9.71,-2.19,-1.70,-0.15,0.16,0.18,-59.93,-10.80,16.16
17208,-9.64,-2.63,-0.90,-0.13,0.09,0.14,-59.93,-10.80,16.16
17219,-9.64,-2.63,-0.90,-0.13,0.09,0.14,-59.93,-10.80,16.16
17230,-9.76,-1.90,-1.87,-0.13,0.16,0.19,-59.93,-10.80,16.16
17241,-9.72,-2.12,-1.38,-0.15,0.09,0.16,-60.51,-10.32,13.20
17252,-9.72,-2.12,-1.38,-0.15,0.09,0.16,-60.51,-10.32,13.20
17263,-9.70,-2.52,-1.20,-0.19,0.07,0.15,-60.51,-10.32,13.20
17274,-9.70,-2.52,-1.20,-0.19,0.07,0.15,-60.51,-10.32,13.20
17285,-9.72,-2.23,-1.06,-0.19,0.13,0.21,-60.51,-10.32,13.20
17296,-9.72,-2.23,-1.06,-0.19,0.13,0.21,-60.51,-10.32,13.20
17307,-9.69,-1.64,-2.16,-0.21,0.16,0.19,-60.51,-10.32,13.20
17318,-9.69,-1.64,-2.16,-0.21,0.16,0.19,-60.51,-10.32,13.20
17329,-9.80,-2.24,-0.80,-0.18,0.05,0.10,-60.51,-10.32,13.20
17340,-9.80,-2.24,-0.80,-0.18,0.05,0.10,-60.51,-10.32,13.20
17351,-9.79,-2.06,-1.57,-0.42,0.06,0.14,-60.51,-10.32,13.20
17362,-9.61,-2.37,-1.95,-0.38,0.04,0.18,-60.51,-10.32,13.20
17373,-9.61,-2.37,-1.95,-0.38,0.04,0.18,-60.51,-10.32,13.20
17384,-9.79,-1.56,-1.44,-0.41,0.02,0.24,-58.56,-10.32,13.55
17395,-9.79,-1.56,-1.44,-0.41,0.02,0.24,-58.56,-10.32,13.55
17406,-9.77,-1.95,-1.47,-0.37,0.02,0.15,-58.56,-10.32,13.55
17417,-9.77,-1.95,-1.47,-0.37,0.02,0.15,-58.56,-10.32,13.55
17428,-9.86,-1.47,-1.63,-0.43,-0.01,0.12,-58.56,-10.32,13.55
17439,-9.86,-1.47,-1.63,-0.43,-0.01,0.12,-58.56,-10.32,13.55
17450,-9.80,-1.52,-1.46,-0.51,-0.09,0.08,-58.56,-10.32,13.55
17461,-9.55,-2.27,-1.38,-0.48,-0.11,0.08,-58.56,-10.32,13.55
17472,-9.55,-2.27,-1.38,-0.48,-0.11,0.08,-58.56,-10.32,13.55
17483,-9.76,-1.75,-1.80,-0.47,-0.08,0.08,-58.56,-10.32,13.55
17494,-9.76,-1.75,-1.80,-0.47,-0.08,0.08,-58.56,-10.32,13.55
17505,-9.61,-1.81,-1.91,-0.48,-0.15,-0.01,-60.32,-10.16,13.72
17516,-9.61,-1.81,-1.91,-0.48,-0.15,-0.01,-60.32,-10.16,13.72
17527,-9.78,-1.71,-1.77,-0.47,-0.17,-0.06,-60.32,-10.16,13.72
17538,-9.78,-1.71,-1.77,-0.47,-0.17,-0.06,-60.32,-10.16,13.72
17549,-9.71,-1.97,-1.79,-0.40,-0.16,-0.10,-60.32,-10.16,13.72
17561,-9.81,-1.47,-1.82,-0.34,-0.17,-0.13,-60.32,-10.16,13.72
17571,-9.81,-1.47,-1.82,-0.34,-0.17,-0.13,-60.32,-10.16,13.72
17582,-9.69,-1.67,-2.23,-0.33,-0.25,-0.23,-60.32,-10.16,13.72
17593,-9.69,-1.67,-2.23,-0.33,-0.25,-0.23,-60.32,-10.16,13.72
17604,-9.58,-1.75,-1.82,-0.32,-0.36,-0.29,-60.32,-10.16,13.72
17615,-9.58,-1.75,-1.82,-0.32,-0.36,-0.29,-60.32,-10.16,13.72
17626,-9.39,-2.08,-2.34,-0.26,-0.36,-0.29,-57.98,-11.45,14.77
17637,-9.39,-2.08,-2.34,-0.26,-0.36,-0.29,-57.98,-11.45,14.77
17648,-9.91,-1.75,-1.53,-0.19,-0.39,-0.28,-57.98,-11.45,14.77
17659,-9.91,-1.75,-1.53,-0.19,-0.39,-0.28,-57.98,-11.45,14.77
17670,-9.72,-1.61,-1.85,-0.12,-0.30,-0.28,-57.98,-11.45,14.77
17681,-9.85,-1.93,-1.50,-0.04,-0.30,-0.35,-57.98,-11.45,14.77
17692,-9.85,-1.93,-1.50,-0.04,-0.30,-0.35,-57.98,-11.45,14.77
17703,-9.67,-1.91,-1.30,0.12,-0.22,-0.29,-57.98,-11.45,14.77
17714,-9.67,-1.91,-1.30,0.12,-0.22,-0.29,-57.98,-11.45,14.77
17725,-9.79,-2.62,-0.98,0.15,-0.16,-0.34,-57.98,-11.45,14.77
17736,-9.79,-2.62,-0.98,0.15,-0.16,-0.34,-57.98,-11.45,14.77
17747,-9.74,-2.16,-1.21,0.18,-0.12,-0.30,-57.19,-13.38,16.85
17758,-9.74,-2.16,-1.21,0.18,-0.12,-0.30,-57.19,-13.38,16.85
17769,-9.63,-2.35,-1.64,0.11,-0.14,-0.29,-57.19,-13.38,16.85
17780,-9.63,-2.35,-1.64,0.11,-0.14,-0.29,-57.19,-13.38,16.85
17791,-9.72,-2.87,-0.95,0.11,-0.17,-0.20,-57.19,-13.38,16.85
17802,-9.77,-1.87,-1.06,0.12,-0.10,-0.05,-57.19,-13.38,16.85
17813,-9.77,-1.87,-1.06,0.12,-0.10,-0.05,-57.19,-13.38,16.85
17824,-9.70,-2.35,-0.78,0.14,-0.03,-0.11,-57.19,-13.38,16.85
17835,-9.70,-2.35,-0.78,0.14,-0.03,-0.11,-57.19,-13.38,16.85
17846,-9.71,-2.20,-0.97,0.14,0.05,-0.12,-57.19,-13.38,16.85
17857,-9.71,-2.20,-0.97,0.14,0.05,-0.12,-57.19,-13.38,16.85
17868,-9.66,-2.56,-1.37,0.10,0.05,-0.17,-57.19,-13.38,16.85
17879,-9.66,-2.56,-1.37,0.10,0.05,-0.17,-57.19,-13.38,16.85
17890,-9.63,-2.90,-1.29,0.10,0.01,-0.12,-58.17,-14.18,17.72
17901,-9.75,-2.35,-0.70,0.06,-0.02,-0.03,-58.17,-14.18,17.72
17912,-9.75,-2.35,-0.70,0.06,-0.02,-0.03,-58.17,-14.18,17.72
17923,-9.77,-2.42,-0.61,-0.04,0.05,-0.02,-58.17,-14.18,17.72
17934,-9.77,-2.42,-0.61,-0.04,0.05,-0.02,-58.17,-14.18,17.72
17946,-9.61,-3.39,-0.57,-0.10,0.23,0.06,-58.17,-14.18,17.72
17956,-9.61,-3.39,-0.57,-0.10,0.23,0.06,-58.17,-14.18,17.72
17967,-9.71,-2.14,-1.46,-0.25,0.38,0.28,-58.17,-14.18,17.72
17978,-9.71,-2.14,-1.46,-0.25,0.38,0.28,-58.17,-14.18,17.72
17989,-9.69,-2.66,-1.08,-0.18,0.33,0.31,-58.17,-14.18,17.72
18000,-9.69,-2.66,-1.08,-0.18,0.33,0.31,-58.17,-14.18,17.72
18011,-9.68,-1.69,-1.88,-0.25,0.38,0.40,-59.54,-13.05,16.16
18022,-9.73,-2.11,-1.48,-0.21,0.25,0.34,-59.54,-13.05,16.16
18033,-9.73,-2.11,-1.48,-0.21,0.25,0.34,-59.54,-13.05,16.16
18044,-9.79,-2.02,-1.69,-0.20,0.26,0.37,-59.54,-13.05,16.16
18055,-9.79,-2.02,-1.69,-0.20,0.26,0.37,-59.54,-13.05,16.16
18066,-9.68,-2.06,-1.40,-0.18,0.22,0.35,-59.54,-13.05,16.16
18077,-9.68,-2.06,-1.40,-0.18,0.22,0.35,-59.54,-13.05,16.16
18088,-9.76,-2.31,-1.26,-0.14,0.18,0.30,-59.54,-13.05,16.16
18099,-9.76,-2.31,-1.26,-0.14,0.18,0.30,-59.54,-13.05,16.16
18110,-9.72,-2.06,-1.47,-0.17,0.14,0.27,-59.54,-13.05,16.16
18121,-9.75,-1.46,-2.09,-0.15,0.12,0.21,-59.15,-10.80,14.77
18132,-9.75,-1.46,-2.09,-0.15,0.12,0.21,-59.15,-10.80,14.77
18143,-9.77,-1.95,-1.37,-0.14,0.06,0.15,-59.15,-10.80,14.77
18154,-9.77,-1.95,-1.37,-0.14,0.06,0.15,-59.15,-10.80,14.77
18165,-9.77,-1.81,-1.43,-0.17,0.12,0.20,-59.15,-10.80,14.77
18176,-9.77,-1.81,-1.43,-0.17,0.12,0.20,-59.15,-10.80,14.77
18187,-9.77,-1.65,-1.74,-0.20,0.13,0.18,-59.15,-10.80,14.77
18198,-9.77,-1.65,-1.74,-0.20,0.13,0.18,-59.15,-10.80,14.77
18209,-9.76,-1.81,-1.94,-0.19,0.10,0.14,-59.15,-10.80,14.77
18221,-9.76,-1.81,-1.94,-0.19,0.10,0.14,-59.15,-10.80,14.77
18231,-9.83,-1.82,-1.83,-0.22,0.06,0.17,-59.15,-10.80,14.77
18242,-9.85,-0.83,-1.64,-0.25,0.07,0.28,-59.15,-10.80,14.77
18253,-9.85,-0.83,-1.64,-0.25,0.07,0.28,-59.15,-10.80,14.77
18264,-10.12,-2.22,-0.54,-0.28,0.10,0.23,-58.95,-10.64,13.90
18275,-10.12,-2.22,-0.54,-0.28,0.10,0.23,-58.95,-10.64,13.90
18286,-9.80,-0.59,-2.47,-0.51,0.16,0.27,-58.95,-10.64,13.90
18297,-9.80,-0.59,-2.47,-0.51,0.16,0.27,-58.95,-10.64,13.90
18308,-9.86,-1.99,-2.06,-0.25,0.04,0.13,-58.95,-10.64,13.90
18319,-9.86,-1.99,-2.06,-0.25,0.04,0.13,-58.95,-10.64,13.90
18330,-9.79,-0.36,-2.67,-0.36,-0.01,0.22,-58.95,-10.64,13.90
18341,-9.79,-0.36,-2.67,-0.36,-0.01,0.22,-58.95,-10.64,13.90
18352,-9.86,-1.52,-1.30,-0.29,-0.14,0.05,-58.95,-10.64,13.90
18363,-9.98,-0.85,-1.49,-0.41,-0.13,0.02,-58.95,-10.64,13.90
18374,-9.98,-0.85,-1.49,-0.41,-0.13,0.02,-58.95,-10.64,13.90
18385,-10.02,-0.93,-1.47,-0.48,-0.19,-0.06,-59.15,-10.16,14.42
18396,-10.02,-0.93,-1.47,-0.48,-0.19,-0.06,-59.15,-10.16,14.42
18407,-9.78,-1.53,-1.27,-0.49,-0.26,-0.14,-59.15,-10.16,14.42
18418,-9.78,-1.53,-1.27,-0.49,-0.26,-0.14,-59.15,-10.16,14.42
18429,-9.94,-1.15,-1.88,-0.48,-0.22,-0.18,-59.15,-10.16,14.42
18440,-9.94,-1.15,-1.88,-0.48,-0.22,-0.18,-59.15,-10.16,14.42
18452,-9.88,-1.02,-2.03,-0.44,-0.24,-0.20,-59.15,-10.16,14.42
18462,-10.05,-1.24,-1.97,-0.39,-0.31,-0.28,-59.15,-10.16,14.42
18473,-10.05,-1.24,-1.97,-0.39,-0.31,-0.28,-59.15,-10.16,14.42
18484,-9.94,-1.02,-2.01,-0.35,-0.39,-0.34,-59.15,-10.16,14.42
18495,-9.94,-1.02,-2.01,-0.35,-0.39,-0.34,-59.15,-10.16,14.42
18506,-9.71,-1.96,-1.72,-0.26,-0.46,-0.43,-58.17,-12.57,14.59
18517,-9.71,-1.96,-1.72,-0.26,-0.46,-0.43,-58.17,-12.57,14.59
18528,-9.87,-1.88,-0.93,-0.16,-0.42,-0.37,-58.17,-12.57,14.59
18539,-9.87,-1.88,-0.93,-0.16,-0.42,-0.37,-58.17,-12.57,14.59
18550,-9.73,-1.90,-1.54,-0.12,-0.24,-0.27,-58.17,-12.57,14.59
18561,-9.73,-1.90,-1.54,-0.12,-0.24,-0.27,-58.17,-12.57,14.59
18572,-9.88,-1.38,-1.46,-0.11,-0.22,-0.27,-58.17,-12.57,14.59
18583,-9.84,-1.52,-1.52,-0.05,-0.24,-0.39,-58.17,-12.57,14.59
18594,-9.84,-1.52,-1.52,-0.05,-0.24,-0.39,-58.17,-12.57,14.59
18605,-9.63,-1.88,-1.99,0.08,-0.17,-0.39,-58.17,-12.57,14.59
18616,-9.63,-1.88,-1.99,0.08,-0.17,-0.39,-58.17,-12.57,14.59
18627,-9.76,-2.10,-1.23,0.16,-0.17,-0.35,-58.17,-12.57,14.59
18638,-9.76,-2.10,-1.23,0.16,-0.17,-0.35,-58.17,-12.57,14.59
18649,-9.77,-2.01,-1.27,0.20,-0.07,-0.26,-59.15,-13.38,17.20
18660,-9.77,-2.01,-1.27,0.20,-0.07,-0.26,-59.15,-13.38,17.20
18671,-9.77,-1.94,-1.50,0.19,-0.04,-0.24,-59.15,-13.38,17.20
18682,-9.69,-2.06,-0.92,0.20,-0.05,-0.23,-59.15,-13.38,17.20
18693,-9.69,-2.06,-0.92,0.20,-0.05,-0.23,-59.15,-13.38,17.20
18704,-9.85,-2.21,-1.24,0.21,-0.00,-0.25,-59.15,-13.38,17.20
18715,-9.85,-2.21,-1.24,0.21,-0.00,-0.25,-59.15,-13.38,17.20
18726,-9.88,-2.07,-1.41,0.20,0.00,-0.23,-59.15,-13.38,17.20
18737,-9.88,-2.07,-1.41,0.20,0.00,-0.23,-59.15,-13.38,17.20
18748,-9.72,-2.37,-1.02,0.21,0.03,-0.18,-59.15,-13.38,17.20
18759,-9.72,-2.37,-1.02,0.21,0.03,-0.18,-59.15,-13.38,17.20
18770,-9.60,-2.35,-1.23,0.14,0.04,-0.11,-56.22,-13.54,17.02
18781,-9.60,-2.35,-1.23,0.14,0.04,-0.11,-56.22,-13.54,17.02
18792,-9.80,-2.57,-0.93,0.07,0.04,-0.09,-56.22,-13.54,17.02
18803,-9.78,-2.86,0.04,-0.00,0.12,-0.01,-56.22,-13.54,17.02
18814,-9.78,-2.86,0.04,-0.00,0.12,-0.01,-56.22,-13.54,17.02
18825,-9.78,-1.94,-1.05,-0.12,0.38,0.16,-56.22,-13.54,17.02
18836,-9.78,-1.94,-1.05,-0.12,0.38,0.16,-56.22,-13.54,17.02
18847,-9.80,-2.02,-1.65,-0.13,0.50,0.29,-56.22,-13.54,17.02
18858,-9.80,-2.02,-1.65,-0.13,0.50,0.29,-56.22,-13.54,17.02
18869,-9.67,-2.35,-1.91,-0.18,0.46,0.31,-56.22,-13.54,17.02
18880,-9.67,-2.35,-1.91,-0.18,0.46,0.31,-56.22,-13.54,17.02
18891,-9.75,-2.13,-1.65,-0.18,0.38,0.36,-58.76,-12.73,14.07
18902,-9.82,-2.90,-1.29,-0.19,0.31,0.35,-58.76,-12.73,14.07
18913,-9.82,-2.90,-1.29,-0.19,0.31,0.35,-58.76,-12.73,14.07
18925,-9.68,-2.20,-1.25,-0.24,0.25,0.40,-58.76,-12.73,14.07
18935,-9.68,-2.20,-1.25,-0.24,0.25,0.40,-58.76,-12.73,14.07
18946,-9.76,-1.68,-1.62,-0.22,0.20,0.34,-58.76,-12.73,14.07
18957,-9.76,-1.68,-1.62,-0.22,0.20,0.34,-58.76,-12.73,14.07
18968,-9.75,-1.98,-1.97,-0.16,0.14,0.26,-58.76,-12.73,14.07
18979,-9.75,-1.98,-1.97,-0.16,0.14,0.26,-58.76,-12.73,14.07
18990,-9.79,-1.68,-1.59,-0.16,0.10,0.28,-58.76,-12.73,14.07
19001,-9.79,-1.68,-1.59,-0.16,0.10,0.28,-58.76,-12.73,14.07
19012,-9.76,-1.19,-2.09,-0.15,0.16,0.31,-58.76,-12.73,14.07
19023,-9.78,-1.41,-1.85,-0.14,0.12,0.22,-60.12,-12.89,13.55
19034,-9.78,-1.41,-1.85,-0.14,0.12,0.22,-60.12,-12.89,13.55
19045,-9.78,-1.31,-2.33,-0.13,0.11,0.16,-60.12,-12.89,13.55
19056,-9.78,-1.31,-2.33,-0.13,0.11,0.16,-60.12,-12.89,13.55
19067,-9.77,-1.98,-1.35,-0.11,0.07,0.17,-60.12,-12.89,13.55
19078,-9.77,-1.98,-1.35,-0.11,0.07,0.17,-60.12,-12.89,13.55
19089,-9.84,-0.89,-2.12,-0.20,0.11,0.22,-60.12,-12.89,13.55
19100,-9.84,-0.89,-2.12,-0.20,0.11,0.22,-60.12,-12.89,13.55
19111,-9.79,-1.60,-1.79,-0.13,0.06,0.10,-60.12,-12.89,13.55
19122,-9.82,-1.07,-2.04,-0.12,0.08,0.13,-60.12,-12.89,13.55
19133,-9.82,-1.07,-2.04,-0.12,0.08,0.13,-60.12,-12.89,13.55
19144,-9.83,-1.22,-2.15,-0.11,0.07,0.11,-58.76,-11.77,13.72
19155,-9.83,-1.22,-2.15,-0.11,0.07,0.11,-58.76,-11.77,13.72
19166,-9.85,-1.39,-1.80,-0.09,0.03,0.11,-58.76,-11.77,13.72
19177,-9.85,-1.39,-1.80,-0.09,0.03,0.11,-58.76,-11.77,13.72
19188,-9.80,-1.00,-2.15,-0.12,0.03,0.15,-58.76,-11.77,13.72
19199,-9.80,-1.00,-2.15,-0.12,0.03,0.15,-58.76,-11.77,13.72
19210,-9.82,-1.08,-2.09,-0.10,0.03,0.11,-58.76,-11.77,13.72
19222,-9.82,-1.08,-2.09,-0.10,0.03,0.11,-58.76,-11.77,13.72
19232,-9.77,-1.48,-2.11,-0.07,0.04,0.07,-58.76,-11.77,13.72
19243,-9.83,-1.05,-1.79,-0.10,0.03,0.10,-58.76,-11.77,13.72
19254,-9.83,-1.05,-1.79,-0.10,0.03,0.10,-58.76,-11.77,13.72
19265,-9.90,-0.92,-2.09,-0.11,0.04,0.09,-60.12,-11.61,12.51
19276,-9.90,-0.92,-2.09,-0.11,0.04,0.09,-60.12,-11.61,12.51
19287,-9.91,-0.88,-2.17,-0.16,-0.05,0.06,-60.12,-11.61,12.51
19298,-9.91,-0.88,-2.17,-0.16,-0.05,0.06,-60.12,-11.61,12.51
19309,-9.87,-1.00,-2.06,-0.19,-0.16,0.04,-60.12,-11.61,12.51
19320,-9.87,-1.00,-2.06,-0.19,-0.16,0.04,-60.12,-11.61,12.51
19331,-9.74,-1.75,-1.41,-0.15,-0.15,0.01,-60.12,-11.61,12.51
19342,-9.74,-1.75,-1.41,-0.15,-0.15,0.01,-60.12,-11.61,12.51
19353,-9.90,-0.85,-1.80,-0.21,-0.05,0.02,-60.12,-11.61,12.51
19364,-9.80,-1.07,-2.13,-0.22,-0.03,-0.05,-60.12,-11.61,12.51
19375,-9.80,-1.07,-2.13,-0.22,-0.03,-0.05,-60.12,-11.61,12.51
19386,-9.96,-1.00,-1.67,-0.26,-0.09,-0.07,-58.95,-11.29,12.51
19397,-9.96,-1.00,-1.67,-0.26,-0.09,-0.07,-58.95,-11.29,12.51
19408,-9.90,-0.98,-2.00,-0.27,-0.07,-0.08,-58.95,-11.29,12.51
19419,-9.90,-0.98,-2.00,-0.27,-0.07,-0.08,-58.95,-11.29,12.51
19430,-9.84,-1.17,-1.92,-0.31,-0.12,-0.10,-58.95,-11.29,12.51
19441,-9.84,-1.17,-1.92,-0.31,-0.12,-0.10,-58.95,-11.29,12.51
19453,-9.95,-0.83,-1.50,-0.32,-0.13,-0.12,-58.95,-11.29,12.51
19463,-9.82,-1.09,-2.22,-0.34,-0.12,-0.23,-58.95,-11.29,12.51
19474,-9.82,-1.09,-2.22,-0.34,-0.12,-0.23,-58.95,-11.29,12.51
19485,-9.76,-1.52,-1.84,-0.30,-0.20,-0.31,-58.95,-11.29,12.51
19496,-9.76,-1.52,-1.84,-0.30,-0.20,-0.31,-58.95,-11.29,12.51
19507,-9.72,-0.97,-2.29,-0.22,-0.18,-0.31,-58.95,-11.29,12.51
19518,-9.72,-0.97,-2.29,-0.22,-0.18,-0.31,-58.95,-11.29,12.51
19529,-9.78,-0.91,-2.55,-0.15,-0.24,-0.42,-58.56,-12.57,14.24
19540,-9.78,-0.91,-2.55,-0.15,-0.24,-0.42,-58.56,-12.57,14.24
19551,-9.81,-1.35,-1.76,-0.09,-0.33,-0.49,-58.56,-12.57,14.24
19562,-9.81,-1.35,-1.76,-0.09,-0.33,-0.49,-58.56,-12.57,14.24
19573,-9.56,-2.20,-1.56,-0.01,-0.37,-0.54,-58.56,-12.57,14.24
19584,-9.67,-2.13,-2.21,0.06,-0.38,-0.49,-58.56,-12.57,14.24
19595,-9.67,-2.13,-2.21,0.06,-0.38,-0.49,-58.56,-12.57,14.24
19606,-9.57,-1.84,-1.47,0.15,-0.40,-0.43,-58.56,-12.57,14.24
19617,-9.57,-1.84,-1.47,0.15,-0.40,-0.43,-58.56,-12.57,14.24
19628,-9.83,-2.14,-1.45,0.20,-0.36,-0.47,-58.56,-12.57,14.24
19639,-9.83,-2.14,-1.45,0.20,-0.36,-0.47,-58.56,-12.57,14.24
19650,-9.77,-2.27,-1.21,0.26,-0.32,-0.39,-57.19,-14.66,14.42
19661,-9.77,-2.27,-1.21,0.26,-0.32,-0.39,-57.19,-14.66,14.42
19672,-9.87,-2.02,-0.46,0.27,-0.21,-0.27,-57.19,-14.66,14.42
19683,-9.90,-1.82,-0.91,0.22,-0.03,-0.21,-57.19,-14.66,14.42
19694,-9.90,-1.82,-0.91,0.22,-0.03,-0.21,-57.19,-14.66,14.42
19705,-9.73,-1.95,-1.53,0.15,0.07,-0.22,-57.19,-14.66,14.42
19716,-9.73,-1.95,-1.53,0.15,0.07,-0.22,-57.19,-14.66,14.42
19727,-9.79,-2.30,-1.55,0.16,0.07,-0.21,-57.19,-14.66,14.42
19738,-9.79,-2.30,-1.55,0.16,0.07,-0.21,-57.19,-14.66,14.42
19749,-9.71,-2.49,-0.94,0.18,0.03,-0.15,-57.19,-14.66,14.42
19760,-9.71,-2.49,-0.94,0.18,0.03,-0.15,-57.19,-14.66,14.42
19771,-9.79,-1.98,-1.39,0.10,0.09,-0.05,-56.80,-15.63,16.85
19782,-9.79,-1.98,-1.39,0.10,0.09,-0.05,-56.80,-15.63,16.85
19793,-9.80,-2.10,-1.20,0.04,0.09,-0.04,-56.80,-15.63,16.85
19804,-9.88,-2.49,-0.47,-0.05,0.16,0.01,-56.80,-15.63,16.85
19816,-9.88,-2.49,-0.47,-0.05,0.16,0.01,-56.80,-15.63,16.85
19826,-9.67,-2.31,-1.40,-0.09,0.36,0.16,-56.80,-15.63,16.85
19837,-9.67,-2.31,-1.40,-0.09,0.36,0.16,-56.80,-15.63,16.85
19848,-9.64,-1.78,-2.67,-0.15,0.39,0.29,-56.80,-15.63,16.85
19859,-9.64,-1.78,-2.67,-0.15,0.39,0.29,-56.80,-15.63,16.85
19870,-9.57,-2.67,-1.44,-0.07,0.26,0.38,-56.80,-15.63,16.85
19881,-9.57,-2.67,-1.44,-0.07,0.26,0.38,-56.80,-15.63,16.85
19892,-9.76,-1.43,-1.69,-0.24,0.26,0.51,-56.80,-15.63,16.85
19903,-9.73,-2.03,-1.99,-0.22,0.19,0.39,-56.80,-13.38,14.07
19914,-9.73,-2.03,-1.99,-0.22,0.19,0.39,-56.80,-13.38,14.07
19925,-9.73,-1.73,-1.47,-0.26,0.14,0.44,-56.80,-13.38,14.07
19936,-9.73,-1.73,-1.47,-0.26,0.14,0.44,-56.80,-13.38,14.07
19947,-9.82,-1.33,-1.69,-0.27,0.13,0.38,-56.80,-13.38,14.07
19958,-9.82,-1.33,-1.69,-0.27,0.13,0.38,-56.80,-13.38,14.07
19969,-9.80,-1.70,-1.34,-0.20,0.12,0.31,-56.80,-13.38,14.07
19980,-9.80,-1.70,-1.34,-0.20,0.12,0.31,-56.80,-13.38,14.07
19991,-9.78,-1.59,-1.71,-0.20,0.14,0.28,-56.80,-13.38,14.07
20002,-9.78,-1.59,-1.71,-0.20,0.14,0.28,-56.80,-13.38,14.07
20013,-9.82,-1.27,-2.40,-0.18,0.12,0.24,-56.80,-13.38,14.07
20024,-9.85,-1.07,-1.70,-0.20,0.04,0.22,-59.15,-11.45,13.38
20035,-9.85,-1.07,-1.70,-0.20,0.04,0.22,-59.15,-11.45,13.38
20046,-9.84,-1.43,-1.72,-0.22,0.05,0.21,-59.15,-11.45,13.38
20057,-9.84,-1.43,-1.72,-0.22,0.05,0.21,-59.15,-11.45,13.38
20069,-9.88,-1.03,-1.76,-0.25,0.06,0.21,-59.15,-11.45,13.38
20079,-9.88,-1.03,-1.76,-0.25,0.06,0.21,-59.15,-11.45,13.38
20090,-9.91,-0.80,-2.13,-0.24,0.05,0.13,-59.15,-11.45,13.38
20101,-9.91,-0.80,-2.13,-0.24,0.05,0.13,-59.15,-11.45,13.38
20112,-9.84,-1.21,-1.70,-0.23,0.01,0.10,-59.15,-11.45,13.38
20123,-9.84,-1.17,-1.40,-0.21,0.03,0.14,-59.15,-11.45,13.38
20134,-9.84,-1.17,-1.40,-0.21,0.03,0.14,-59.15,-11.45,13.38
20145,-9.93,-0.94,-1.63,-0.20,0.10,0.14,-59.54,-12.41,12.33
20156,-9.93,-0.94,-1.63,-0.20,0.10,0.14,-59.54,-12.41,12.33
20167,-9.91,-1.23,-1.97,-0.19,0.12,0.08,-59.54,-12.41,12.33
20178,-9.91,-1.23,-1.97,-0.19,0.12,0.08,-59.54,-12.41,12.33
20189,-9.85,-1.16,-2.05,-0.22,0.05,0.07,-59.54,-12.41,12.33
20200,-9.85,-1.16,-2.05,-0.22,0.05,0.07,-59.54,-12.41,12.33
20211,-9.78,-1.13,-1.94,-0.23,-0.06,0.04,-59.54,-12.41,12.33
20222,-9.78,-1.13,-1.94,-0.23,-0.06,0.04,-59.54,-12.41,12.33
20233,-9.73,-1.26,-2.43,-0.19,-0.07,0.00,-59.54,-12.41,12.33
20244,-9.69,-1.30,-1.75,-0.17,-0.13,-0.04,-59.54,-12.41,12.33
20255,-9.69,-1.30,-1.75,-0.17,-0.13,-0.04,-59.54,-12.41,12.33
20266,-9.83,-0.97,-2.62,-0.12,-0.08,-0.09,-59.54,-12.41,12.33
20277,-9.83,-0.97,-2.62,-0.12,-0.08,-0.09,-59.54,-12.41,12.33
20288,-9.80,-1.02,-2.48,-0.03,-0.14,-0.16,-59.54,-13.38,13.38
20300,-9.80,-1.02,-2.48,-0.03,-0.14,-0.16,-59.54,-13.38,13.38
20310,-9.90,-0.97,-2.33,0.02,-0.27,-0.29,-59.54,-13.38,13.38
20321,-9.90,-0.97,-2.33,0.02,-0.27,-0.29,-59.54,-13.38,13.38
20332,-9.82,-0.96,-1.85,-0.00,-0.40,-0.43,-59.54,-13.38,13.38
20343,-9.87,-1.69,-1.46,0.00,-0.47,-0.49,-59.54,-13.38,13.38
20354,-9.87,-1.69,-1.46,0.00,-0.47,-0.49,-59.54,-13.38,13.38
20365,-9.66,-1.51,-1.38,0.04,-0.43,-0.43,-59.54,-13.38,13.38
20376,-9.66,-1.51,-1.38,0.04,-0.43,-0.43,-59.54,-13.38,13.38
20387,-9.66,-1.41,-1.47,0.04,-0.33,-0.43,-59.54,-13.38,13.38
20398,-9.66,-1.41,-1.47,0.04,-0.33,-0.43,-59.54,-13.38,13.38
20409,-9.64,-1.41,-1.57,0.06,-0.30,-0.50,-59.34,-13.86,15.63
20420,-9.64,-1.41,-1.57,0.06,-0.30,-0.50,-59.34,-13.86,15.63
20431,-9.70,-1.78,-1.30,0.18,-0.28,-0.58,-59.34,-13.86,15.63
20442,-9.70,-1.78,-1.30,0.18,-0.28,-0.58,-59.34,-13.86,15.63
20453,-9.89,-2.25,-1.20,0.21,-0.25,-0.55,-59.34,-13.86,15.63
20464,-9.85,-1.82,-1.86,0.25,-0.15,-0.39,-59.34,-13.86,15.63
20475,-9.85,-1.82,-1.86,0.25,-0.15,-0.39,-59.34,-13.86,15.63
20486,-9.74,-1.84,-1.46,0.27,-0.14,-0.33,-59.34,-13.86,15.63
20497,-9.74,-1.84,-1.46,0.27,-0.14,-0.33,-59.34,-13.86,15.63
20508,-9.78,-1.95,-1.16,0.27,-0.16,-0.34,-59.34,-13.86,15.63
20519,-9.78,-1.95,-1.16,0.27,-0.16,-0.34,-59.34,-13.86,15.63
20530,-9.80,-2.33,-1.25,0.25,-0.17,-0.36,-57.98,-15.31,17.20
20541,-9.80,-2.33,-1.25,0.25,-0.17,-0.36,-57.98,-15.31,17.20
20552,-9.78,-2.46,-0.88,0.28,-0.06,-0.25,-57.98,-15.31,17.20
20563,-9.78,-2.46,-0.88,0.28,-0.06,-0.25,-57.98,-15.31,17.20
20574,-9.81,-2.20,-0.81,0.20,0.05,-0.09,-57.98,-15.31,17.20
20585,-9.73,-1.55,-1.10,0.09,0.11,-0.07,-57.98,-15.31,17.20
20596,-9.73,-1.55,-1.10,0.09,0.11,-0.07,-57.98,-15.31,17.20
20607,-9.65,-2.74,-1.11,0.09,0.13,-0.18,-57.98,-15.31,17.20
20618,-9.65,-2.74,-1.11,0.09,0.13,-0.18,-57.98,-15.31,17.20
20629,-9.65,-2.77,-1.55,0.05,0.18,-0.05,-57.98,-15.31,17.20
20640,-9.65,-2.77,-1.55,0.05,0.18,-0.05,-57.98,-15.31,17.20
20651,-9.87,-2.36,-0.26,-0.01,0.17,0.13,-57.98,-15.31,17.20
20662,-9.87,-2.36,-0.26,-0.01,0.17,0.13,-57.98,-15.31,17.20
20673,-9.74,-2.37,-1.13,-0.12,0.32,0.22,-57.00,-17.08,15.98
20684,-9.73,-1.47,-1.95,-0.18,0.41,0.31,-57.00,-17.08,15.98
20695,-9.73,-1.47,-1.95,-0.18,0.41,0.31,-57.00,-17.08,15.98
20706,-9.72,-2.52,-1.50,-0.10,0.40,0.26,-57.00,-17.08,15.98
20717,-9.72,-2.52,-1.50,-0.10,0.40,0.26,-57.00,-17.08,15.98
20728,-9.63,-2.12,-1.98,-0.15,0.40,0.35,-57.00,-17.08,15.98
20739,-9.63,-2.12,-1.98,-0.15,0.40,0.35,-57.00,-17.08,15.98
20750,-9.67,-2.18,-1.61,-0.16,0.26,0.34,-57.00,-17.08,15.98
20761,-9.67,-2.18,-1.61,-0.16,0.26,0.34,-57.00,-17.08,15.98
20772,-9.67,-2.05,-1.61,-0.20,0.21,0.42,-57.00,-17.08,15.98
20783,-9.67,-2.05,-1.61,-0.20,0.21,0.42,-57.00,-17.08,15.98
20794,-9.81,-1.64,-1.75,-0.23,0.16,0.42,-57.58,-14.99,14.07
20805,-9.72,-1.58,-2.05,-0.16,0.13,0.35,-57.58,-14.99,14.07
20816,-9.72,-1.58,-2.05,-0.16,0.13,0.35,-57.58,-14.99,14.07
20827,-9.80,-1.15,-1.95,-0.11,0.06,0.29,-57.58,-14.99,14.07
20838,-9.80,-1.15,-1.95,-0.11,0.06,0.29,-57.58,-14.99,14.07
20849,-9.85,-1.49,-1.74,-0.03,0.02,0.22,-57.58,-14.99,14.07
20860,-9.85,-1.49,-1.74,-0.03,0.02,0.22,-57.58,-14.99,14.07
20871,-9.69,-1.86,-1.89,0.00,0.04,0.20,-57.58,-14.99,14.07
20882,-9.69,-1.86,-1.89,0.00,0.04,0.20,-57.58,-14.99,14.07
20893,-9.87,-1.18,-1.39,0.02,0.03,0.23,-57.58,-14.99,14.07
20904,-9.79,-1.58,-1.61,-0.04,0.04,0.19,-57.98,-13.38,14.42
20915,-9.79,-1.58,-1.61,-0.04,0.04,0.19,-57.98,-13.38,14.42
20926,-9.93,-1.47,-1.74,-0.11,0.01,0.18,-57.98,-13.38,14.42
20937,-9.93,-1.47,-1.74,-0.11,0.01,0.18,-57.98,-13.38,14.42
20948,-9.82,-1.07,-2.07,-0.13,0.00,0.20,-57.98,-13.38,14.42
20959,-9.82,-1.07,-2.07,-0.13,0.00,0.20,-57.98,-13.38,14.42
20970,-9.83,-1.27,-1.79,-0.10,-0.04,0.16,-57.98,-13.38,14.42
20981,-9.83,-1.27,-1.79,-0.10,-0.04,0.16,-57.98,-13.38,14.42
20992,-9.84,-1.45,-1.74,-0.08,-0.04,0.14,-57.98,-13.38,14.42
21003,-9.84,-1.45,-1.74,-0.08,-0.04,0.14,-57.98,-13.38,14.42
21014,-9.90,-1.63,-2.02,-0.08,-0.05,0.14,-57.98,-13.38,14.42
21025,-9.93,-0.24,-2.05,-0.15,-0.07,0.23,-57.98,-11.45,13.38
21036,-9.93,-0.24,-2.05,-0.15,-0.07,0.23,-57.98,-11.45,13.38
21047,-9.88,-1.19,-1.36,-0.14,-0.10,0.10,-57.98,-11.45,13.38
21058,-9.88,-1.19,-1.36,-0.14,-0.10,0.10,-57.98,-11.45,13.38
21074,-9.89,-1.03,-1.47,-0.18,-0.06,0.10,-57.98,-11.45,13.38
21080,-9.89,-1.03,-1.47,-0.18,-0.06,0.10,-57.98,-11.45,13.38
21091,-10.01,-0.51,-1.56,-0.22,-0.05,0.07,-57.98,-11.45,13.38
21102,-10.01,-0.51,-1.56,-0.22,-0.05,0.07,-57.98,-11.45,13.38
21113,-9.98,-1.19,-1.22,-0.32,-0.13,-0.04,-57.98,-11.45,13.38
21124,-9.88,-1.04,-1.43,-0.33,-0.15,-0.04,-57.98,-11.45,13.38
21135,-9.88,-1.04,-1.43,-0.33,-0.15,-0.04,-57.98,-11.45,13.38
21146,-9.91,-1.04,-1.56,-0.27,-0.09,-0.06,-57.98,-11.45,13.38
21157,-9.91,-1.04,-1.56,-0.27,-0.09,-0.06,-57.98,-11.45,13.38
21169,-10.03,-0.88,-1.78,-0.27,-0.08,-0.10,-58.56,-11.61,13.55
21179,-10.03,-0.88,-1.78,-0.27,-0.08,-0.10,-58.56,-11.61,13.55
21190,-9.74,-1.04,-2.06,-0.29,-0.16,-0.19,-58.56,-11.61,13.55
21201,-9.74,-1.04,-2.06,-0.29,-0.16,-0.19,-58.56,-11.61,13.55
21212,-9.75,-1.22,-2.11,-0.23,-0.23,-0.28,-58.56,-11.61,13.55
21223,-9.75,-1.22,-2.11,-0.23,-0.23,-0.28,-58.56,-11.61,13.55
21234,-9.81,-1.41,-1.94,-0.11,-0.27,-0.34,-58.56,-11.61,13.55
21245,-9.61,-1.36,-1.98,-0.06,-0.36,-0.40,-58.56,-11.61,13.55
21256,-9.61,-1.36,-1.98,-0.06,-0.36,-0.40,-58.56,-11.61,13.55
21267,-9.60,-1.12,-2.14,-0.03,-0.41,-0.45,-58.56,-11.61,13.55
21278,-9.60,-1.12,-2.14,-0.03,-0.41,-0.45,-58.56,-11.61,13.55
21289,-9.66,-1.57,-1.04,0.05,-0.41,-0.50,-58.17,-14.82,16.33
21300,-9.66,-1.57,-1.04,0.05,-0.41,-0.50,-58.17,-14.82,16.33
21311,-10.00,-1.72,-0.74,0.15,-0.32,-0.51,-58.17,-14.82,16.33
21322,-10.00,-1.72,-0.74,0.15,-0.32,-0.51,-58.17,-14.82,16.33
21333,-9.73,-1.80,-1.37,0.27,-0.15,-0.43,-58.17,-14.82,16.33
21344,-9.69,-1.51,-1.64,0.33,-0.09,-0.40,-58.17,-14.82,16.33
21355,-9.69,-1.51,-1.64,0.33,-0.09,-0.40,-58.17,-14.82,16.33
21366,-9.58,-1.61,-0.96,0.34,-0.07,-0.45,-58.17,-14.82,16.33
21377,-9.58,-1.61,-0.96,0.34,-0.07,-0.45,-58.17,-14.82,16.33
21388,-9.95,-2.66,-0.73,0.26,-0.08,-0.52,-58.17,-14.82,16.33
21399,-9.95,-2.66,-0.73,0.26,-0.08,-0.52,-58.17,-14.82,16.33
21410,-9.78,-2.81,-1.10,0.15,0.01,-0.30,-56.22,-16.11,17.37
21421,-9.78,-2.81,-1.10,0.15,0.01,-0.30,-56.22,-16.11,17.37
21432,-9.86,-1.97,-0.88,0.07,0.07,-0.03,-56.22,-16.11,17.37
21443,-9.86,-1.97,-0.88,0.07,0.07,-0.03,-56.22,-16.11,17.37
21454,-9.70,-1.23,-0.93,0.07,0.16,-0.04,-56.22,-16.11,17.37
21465,-9.69,-2.35,-1.62,0.13,0.22,-0.23,-56.22,-16.11,17.37
21476,-9.69,-2.35,-1.62,0.13,0.22,-0.23,-56.22,-16.11,17.37
21487,-9.75,-2.17,-0.92,0.09,0.16,-0.18,-56.22,-16.11,17.37
21498,-9.75,-2.17,-0.92,0.09,0.16,-0.18,-56.22,-16.11,17.37
21509,-9.69,-2.79,-0.93,0.04,0.22,-0.11,-56.22,-16.11,17.37
21520,-9.69,-2.79,-0.93,0.04,0.22,-0.11,-56.22,-16.11,17.37
21531,-9.73,-2.17,-1.56,-0.02,0.28,0.03,-56.22,-16.11,17.37
21542,-9.73,-2.17,-1.56,-0.02,0.28,0.03,-56.22,-16.11,17.37
21553,-9.75,-2.45,-1.73,-0.11,0.22,0.10,-57.39,-15.79,16.33
21564,-9.75,-2.45,-1.73,-0.11,0.22,0.10,-57.39,-15.79,16.33
21575,-9.80,-2.91,-0.72,-0.14,0.21,0.25,-57.39,-15.79,16.33
21586,-9.79,-1.47,-1.61,-0.28,0.32,0.47,-57.39,-15.79,16.33
21598,-9.79,-1.47,-1.61,-0.28,0.32,0.47,-57.39,-15.79,16.33
21608,-9.64,-2.03,-1.66,-0.23,0.31,0.45,-57.39,-15.79,16.33
21619,-9.64,-2.03,-1.66,-0.23,0.31,0.45,-57.39,-15.79,16.33
21630,-9.69,-1.89,-2.06,-0.22,0.26,0.45,-57.39,-15.79,16.33
21641,-9.69,-1.89,-2.06,-0.22,0.26,0.45,-57.39,-15.79,16.33
21652,-9.82,-1.49,-1.67,-0.22,0.18,0.47,-57.39,-15.79,16.33
21663,-9.82,-1.49,-1.67,-0.22,0.18,0.47,-57.39,-15.79,16.33
21674,-9.62,-1.99,-2.00,-0.20,0.09,0.40,-58.56,-14.50,14.94
21685,-9.78,-1.01,-2.35,-0.22,0.05,0.42,-58.56,-14.50,14.94
21696,-9.78,-1.01,-2.35,-0.22,0.05,0.42,-58.56,-14.50,14.94
21707,-9.79,-1.32,-1.46,-0.13,-0.01,0.32,-58.56,-14.50,14.94
21718,-9.79,-1.32,-1.46,-0.13,-0.01,0.32,-58.56,-14.50,14.94
21729,-9.85,-1.45,-1.55,-0.12,0.04,0.27,-58.56,-14.50,14.94
21740,-9.85,-1.45,-1.55,-0.12,0.04,0.27,-58.56,-14.50,14.94
21751,-9.80,-1.19,-1.97,-0.15,-0.00,0.21,-58.56,-14.50,14.94
21762,-9.80,-1.19,-1.97,-0.15,-0.00,0.21,-58.56,-14.50,14.94
21773,-9.91,-0.80,-1.69,-0.11,-0.04,0.14,-58.56,-14.50,14.94
21784,-9.91,-0.80,-1.69,-0.11,-0.04,0.14,-58.56,-14.50,14.94
21795,-9.83,-1.72,-1.82,-0.06,-0.02,0.08,-58.17,-13.86,13.90
21806,-9.90,-0.99,-1.35,-0.09,-0.04,0.15,-58.17,-13.86,13.90
21817,-9.90,-0.99,-1.35,-0.09,-0.04,0.15,-58.17,-13.86,13.90
21828,-9.92,-1.01,-1.16,-0.12,-0.00,0.12,-58.17,-13.86,13.90
21839,-9.92,-1.01,-1.16,-0.12,-0.00,0.12,-58.17,-13.86,13.90
21850,-9.91,-1.15,-1.60,-0.15,0.06,0.07,-58.17,-13.86,13.90
21861,-9.91,-1.15,-1.60,-0.15,0.06,0.07,-58.17,-13.86,13.90
21872,-9.94,-1.11,-1.62,-0.16,0.04,0.10,-58.17,-13.86,13.90
21883,-9.94,-1.11,-1.62,-0.16,0.04,0.10,-58.17,-13.86,13.90
21894,-9.83,-1.25,-1.57,-0.15,0.00,0.13,-58.17,-13.86,13.90
21905,-9.98,-0.69,-1.42,-0.15,-0.00,0.12,-58.17,-13.86,13.90
21916,-9.98,-0.69,-1.42,-0.15,-0.00,0.12,-58.17,-13.86,13.90
21927,-9.75,-1.68,-2.10,-0.11,0.01,0.01,-58.37,-13.38,13.03
21938,-9.75,-1.68,-2.10,-0.11,0.01,0.01,-58.37,-13.38,13.03
21949,-9.91,-0.99,-1.57,-0.15,-0.08,0.02,-58.37,-13.38,13.03
21961,-9.91,-0.99,-1.57,-0.15,-0.08,0.02,-58.37,-13.38,13.03
21971,-9.94,-0.85,-1.68,-0.13,-0.09,-0.00,-58.37,-13.38,13.03
21982,-9.94,-0.85,-1.68,-0.13,-0.09,-0.00,-58.37,-13.38,13.03
21993,-9.88,-1.08,-1.67,-0.11,-0.12,-0.07,-58.37,-13.38,13.03
22004,-9.88,-1.08,-1.67,-0.11,-0.12,-0.07,-58.37,-13.38,13.03
22015,-9.90,-0.68,-1.92,-0.12,-0.13,-0.12,-58.37,-13.38,13.03
22026,-9.86,-1.30,-1.52,-0.13,-0.19,-0.23,-58.37,-13.38,13.03
22037,-9.86,-1.30,-1.52,-0.13,-0.19,-0.23,-58.37,-13.38,13.03
22048,-9.82,-1.12,-2.11,-0.13,-0.27,-0.31,-58.56,-14.50,15.63
22059,-9.82,-1.12,-2.11,-0.13,-0.27,-0.31,-58.56,-14.50,15.63
22070,-9.90,-0.68,-1.80,-0.03,-0.34,-0.36,-58.56,-14.50,15.63
22081,-9.90,-0.68,-1.80,-0.03,-0.34,-0.36,-58.56,-14.50,15.63
22092,-9.72,-1.47,-1.80,0.01,-0.40,-0.47,-58.56,-14.50,15.63
22103,-9.72,-1.47,-1.80,0.01,-0.40,-0.47,-58.56,-14.50,15.63
22114,-9.80,-1.38,-2.04,0.10,-0.39,-0.50,-58.56,-14.50,15.63
22125,-9.56,-1.88,-1.85,0.22,-0.46,-0.54,-58.56,-14.50,15.63
22136,-9.56,-1.88,-1.85,0.22,-0.46,-0.54,-58.56,-14.50,15.63
22147,-9.84,-1.64,-0.76,0.30,-0.56,-0.51,-58.56,-14.50,15.63
22158,-9.84,-1.64,-0.76,0.30,-0.56,-0.51,-58.56,-14.50,15.63
22169,-9.70,-2.09,-0.52,0.33,-0.52,-0.48,-56.02,-15.95,16.85
22180,-9.70,-2.09,-0.52,0.33,-0.52,-0.48,-56.02,-15.95,16.85
22191,-9.89,-1.26,-0.10,0.36,-0.33,-0.40,-56.02,-15.95,16.85
22202,-9.89,-1.26,-0.10,0.36,-0.33,-0.40,-56.02,-15.95,16.85
22213,-9.68,-1.69,-1.26,0.48,-0.15,-0.54,-56.02,-15.95,16.85
22224,-9.68,-1.69,-1.26,0.48,-0.15,-0.54,-56.02,-15.95,16.85
22235,-9.87,-2.93,-0.62,0.63,-0.16,-0.58,-56.02,-15.95,16.85
22246,-9.85,-2.73,-0.28,0.47,-0.06,-0.32,-56.02,-15.95,16.85
22257,-9.85,-2.73,-0.28,0.47,-0.06,-0.32,-56.02,-15.95,16.85
22268,-9.82,-2.12,-0.55,0.23,0.05,-0.13,-56.02,-15.95,16.85
22279,-9.82,-2.12,-0.55,0.23,0.05,-0.13,-56.02,-15.95,16.85
22290,-9.89,-2.10,-0.51,0.12,0.11,-0.11,-56.02,-15.95,16.85
22301,-9.89,-2.10,-0.51,0.12,0.11,-0.11,-56.02,-15.95,16.85
22312,-9.85,-1.98,-0.85,0.03,0.15,-0.10,-57.78,-17.40,15.98
22323,-9.85,-1.98,-0.85,0.03,0.15,-0.10,-57.78,-17.40,15.98
22334,-9.68,-2.28,-0.76,0.03,0.15,-0.13,-57.78,-17.40,15.98
22346,-9.67,-2.47,-0.86,0.05,0.19,-0.13,-57.78,-17.40,15.98
22356,-9.67,-2.47,-0.86,0.05,0.19,-0.13,-57.78,-17.40,15.98
22367,-9.73,-2.28,-1.04,0.07,0.21,-0.09,-57.78,-17.40,15.98
22378,-9.73,-2.28,-1.04,0.07,0.21,-0.09,-57.78,-17.40,15.98
22389,-9.71,-2.67,-1.08,0.03,0.19,-0.06,-57.78,-17.40,15.98
22400,-9.71,-2.67,-1.08,0.03,0.19,-0.06,-57.78,-17.40,15.98
22411,-9.79,-2.49,-0.74,-0.04,0.17,0.04,-57.78,-17.40,15.98
22422,-9.79,-2.49,-0.74,-0.04,0.17,0.04,-57.78,-17.40,15.98
22433,-9.98,-2.31,-0.67,-0.14,0.25,0.21,-57.19,-17.24,18.59
22444,-9.98,-2.31,-0.67,-0.14,0.25,0.21,-57.19,-17.24,18.59
22455,-9.82,-2.19,-0.92,-0.28,0.31,0.32,-57.19,-17.24,18.59
22466,-9.78,-2.17,-1.07,-0.36,0.35,0.40,-57.19,-17.24,18.59
