time,ax,ay,az,gx,gy,gz,mx,my,mz
402,-0.50,6.29,-8.08,0.01,0.00,0.00,-10.89,21.22,-30.46
412,-0.46,6.28,-8.10,0.01,0.00,0.00,-10.89,21.22,-30.46
423,-0.46,6.28,-8.10,0.01,0.00,0.00,-10.89,21.22,-30.46
434,-0.52,6.30,-8.07,0.00,-0.00,0.00,-10.89,21.22,-30.46
445,-0.52,6.30,-8.07,0.00,-0.00,0.00,-10.89,21.22,-30.46
456,-0.52,6.29,-8.11,0.01,0.00,0.00,-10.89,21.22,-30.46
467,-0.50,6.28,-8.08,0.01,0.00,0.00,-10.89,21.22,-30.46
478,-0.50,6.28,-8.08,0.01,0.00,0.00,-10.89,21.22,-30.46
489,-0.49,6.29,-8.09,0.01,0.00,0.00,-10.89,21.22,-30.46
500,-0.49,6.29,-8.09,0.01,0.00,0.00,-10.89,21.22,-30.46
511,-0.50,6.32,-8.11,0.00,0.00,0.00,-10.38,21.05,-31.41
522,-0.50,6.32,-8.11,0.00,0.00,0.00,-10.38,21.05,-31.41
533,-0.51,6.32,-8.08,0.00,0.00,0.00,-10.38,21.05,-31.41
544,-0.51,6.32,-8.08,0.00,0.00,0.00,-10.38,21.05,-31.41
555,-0.51,6.28,-8.11,0.01,0.01,0.01,-10.38,21.05,-31.41
566,-0.51,6.28,-8.11,0.01,0.01,0.01,-10.38,21.05,-31.41
577,-0.50,6.27,-8.12,0.01,0.00,0.00,-10.38,21.05,-31.41
588,-0.51,6.29,-8.10,0.01,0.00,0.00,-10.38,21.05,-31.41
599,-0.51,6.29,-8.10,0.01,0.00,0.00,-10.38,21.05,-31.41
610,-0.51,6.31,-8.07,0.00,0.00,0.00,-10.38,21.05,-31.41
621,-0.51,6.31,-8.07,0.00,0.00,0.00,-10.38,21.05,-31.41
632,-0.52,6.31,-8.07,0.00,0.00,0.00,-11.05,19.34,-31.79
643,-0.52,6.31,-8.07,0.00,0.00,0.00,-11.05,19.34,-31.79
654,-0.51,6.27,-8.11,0.01,0.00,0.01,-11.05,19.34,-31.79
665,-0.51,6.27,-8.11,0.01,0.00,0.01,-11.05,19.34,-31.79
676,-0.50,6.27,-8.12,0.01,0.00,0.00,-11.05,19.34,-31.79
687,-0.50,6.30,-8.12,0.00,0.00,0.00,-11.05,19.34,-31.79
698,-0.50,6.30,-8.12,0.00,0.00,0.00,-11.05,19.34,-31.79
709,-0.50,6.31,-8.09,0.00,0.00,0.00,-11.05,19.34,-31.79
720,-0.50,6.31,-8.09,0.00,0.00,0.00,-11.05,19.34,-31.79
731,-0.51,6.31,-8.07,0.00,0.00,0.00,-11.05,19.34,-31.79
742,-0.51,6.31,-8.07,0.00,0.00,0.00,-11.05,19.34,-31.79
753,-0.49,6.27,-8.11,0.01,0.00,0.00,-10.89,19.51,-30.46
764,-0.49,6.27,-8.11,0.01,0.00,0.00,-10.89,19.51,-30.46
775,-0.50,6.27,-8.13,0.01,0.00,0.00,-10.89,19.51,-30.46
786,-0.50,6.27,-8.13,0.01,0.00,0.00,-10.89,19.51,-30.46
797,-0.51,6.29,-8.10,0.00,0.00,0.00,-10.89,19.51,-30.46
808,-0.51,6.29,-8.08,0.00,0.00,0.00,-10.89,19.51,-30.46
819,-0.51,6.29,-8.08,0.00,0.00,0.00,-10.89,19.51,-30.46
830,-0.50,6.30,-8.09,0.00,0.00,0.00,-10.89,19.51,-30.46
841,-0.50,6.30,-8.09,0.00,0.00,0.00,-10.89,19.51,-30.46
852,-0.52,6.27,-8.10,0.01,0.00,0.00,-10.89,19.51,-30.46
863,-0.52,6.27,-8.10,0.01,0.00,0.00,-10.89,19.51,-30.46
874,-0.51,6.28,-8.11,0.01,0.00,0.00,-10.89,19.51,-30.46
885,-0.51,6.28,-8.11,0.01,0.00,0.00,-10.89,19.51,-30.46
896,-0.52,6.27,-8.14,0.00,0.00,0.00,-9.71,20.02,-31.03
907,-0.49,6.30,-8.09,0.00,0.00,0.00,-9.71,20.02,-31.03
918,-0.49,6.30,-8.09,0.00,0.00,0.00,-9.71,20.02,-31.03
929,-0.50,6.29,-8.08,0.00,0.00,0.00,-9.71,20.02,-31.03
940,-0.50,6.29,-8.08,0.00,0.00,0.00,-9.71,20.02,-31.03
951,-0.52,6.27,-8.11,0.01,0.00,0.00,-9.71,20.02,-31.03
963,-0.52,6.27,-8.11,0.01,0.00,0.00,-9.71,20.02,-31.03
973,-0.53,6.27,-8.11,0.01,0.00,0.00,-9.71,20.02,-31.03
984,-0.53,6.27,-8.11,0.01,0.00,0.00,-9.71,20.02,-31.03
995,-0.50,6.27,-8.08,0.00,0.00,0.00,-9.71,20.02,-31.03
1006,-0.50,6.27,-8.08,0.00,0.00,0.00,-9.71,20.02,-31.03
1017,-0.50,6.30,-8.13,0.00,0.00,0.00,-10.05,20.02,-31.41
1028,-0.50,6.29,-8.10,0.00,0.00,0.00,-10.05,20.02,-31.41
1039,-0.50,6.29,-8.10,0.00,0.00,0.00,-10.05,20.02,-31.41
1050,-0.52,6.28,-8.12,0.01,0.00,0.00,-10.05,20.02,-31.41
1061,-0.52,6.28,-8.12,0.01,0.00,0.00,-10.05,20.02,-31.41
1072,-0.51,6.26,-8.12,0.00,0.00,0.00,-10.05,20.02,-31.41
1083,-0.51,6.26,-8.12,0.00,0.00,0.00,-10.05,20.02,-31.41
1094,-0.49,6.27,-8.10,0.00,0.00,0.00,-10.05,20.02,-31.41
1105,-0.49,6.27,-8.10,0.00,0.00,0.00,-10.05,20.02,-31.41
1116,-0.49,6.28,-8.08,0.00,0.00,0.00,-10.05,20.02,-31.41
1127,-0.51,6.29,-8.12,0.00,0.00,0.00,-10.89,20.54,-30.84
1138,-0.51,6.29,-8.12,0.00,0.00,0.00,-10.89,20.54,-30.84
1149,-0.52,6.26,-8.11,0.00,0.00,0.00,-10.89,20.54,-30.84
1160,-0.52,6.26,-8.11,0.00,0.00,0.00,-10.89,20.54,-30.84
1171,-0.52,6.26,-8.11,0.00,0.00,0.01,-10.89,20.54,-30.84
1182,-0.52,6.26,-8.11,0.00,0.00,0.01,-10.89,20.54,-30.84
1193,-0.51,6.28,-8.12,0.00,0.00,0.00,-10.89,20.54,-30.84
1204,-0.51,6.28,-8.12,0.00,0.00,0.00,-10.89,20.54,-30.84
1215,-0.51,6.30,-8.09,0.00,0.00,0.00,-10.89,20.54,-30.84
1226,-0.51,6.30,-8.09,0.00,0.00,0.00,-10.89,20.54,-30.84
1237,-0.51,6.29,-8.09,0.00,0.00,0.00,-10.89,20.54,-30.84
1248,-0.52,6.28,-8.13,0.00,0.00,0.00,-10.22,20.20,-30.08
1259,-0.52,6.28,-8.13,0.00,0.00,0.00,-10.22,20.20,-30.08
1270,-0.51,6.25,-8.11,0.00,0.00,0.01,-10.22,20.20,-30.08
1281,-0.51,6.25,-8.11,0.00,0.00,0.01,-10.22,20.20,-30.08
1292,-0.52,6.27,-8.09,0.00,0.00,0.00,-10.22,20.20,-30.08
1303,-0.52,6.27,-8.09,0.00,0.00,0.00,-10.22,20.20,-30.08
1314,-0.51,6.28,-8.10,0.00,0.00,0.00,-10.22,20.20,-30.08
1325,-0.51,6.28,-8.10,0.00,0.00,0.00,-10.22,20.20,-30.08
1336,-0.51,6.28,-8.09,0.00,0.00,0.00,-10.22,20.20,-30.08
1347,-0.50,6.26,-8.09,0.00,0.00,0.00,-10.22,20.20,-30.08
1358,-0.50,6.26,-8.09,0.00,0.00,0.00,-10.22,20.20,-30.08
1369,-0.50,6.25,-8.10,0.00,0.01,0.00,-10.22,20.20,-30.08
1380,-0.50,6.25,-8.10,0.00,0.01,0.00,-10.22,20.20,-30.08
1391,-0.52,6.27,-8.13,0.00,0.00,0.00,-10.38,21.73,-30.27
1402,-0.52,6.27,-8.13,0.00,0.00,0.00,-10.38,21.73,-30.27
1413,-0.51,6.30,-8.09,0.00,0.00,0.00,-10.38,21.73,-30.27
1424,-0.51,6.30,-8.09,0.00,0.00,0.00,-10.38,21.73,-30.27
1435,-0.51,6.28,-8.10,0.00,0.00,0.00,-10.38,21.73,-30.27
1446,-0.51,6.28,-8.10,0.00,0.00,0.00,-10.38,21.73,-30.27
1457,-0.52,6.26,-8.12,0.00,0.00,0.01,-10.38,21.73,-30.27
1468,-0.52,6.24,-8.13,0.00,0.00,0.00,-10.38,21.73,-30.27
1479,-0.52,6.24,-8.13,0.00,0.00,0.00,-10.38,21.73,-30.27
1490,-0.51,6.27,-8.12,0.00,0.00,0.00,-10.38,21.73,-30.27
1501,-0.51,6.27,-8.12,0.00,0.00,0.00,-10.38,21.73,-30.27
1512,-0.52,6.29,-8.13,0.00,0.00,0.00,-10.55,20.88,-30.84
1523,-0.52,6.29,-8.13,0.00,0.00,0.00,-10.55,20.88,-30.84
1534,-0.51,6.28,-8.09,0.00,0.00,0.01,-10.55,20.88,-30.84
1545,-0.51,6.28,-8.09,0.00,0.00,0.01,-10.55,20.88,-30.84
1556,-0.51,6.25,-8.10,0.00,0.00,0.01,-10.55,20.88,-30.84
1567,-0.51,6.25,-8.10,0.00,0.00,0.01,-10.55,20.88,-30.84
1578,-0.50,6.25,-8.11,0.00,0.00,0.00,-10.55,20.88,-30.84
1589,-0.52,6.27,-8.09,0.00,0.00,0.00,-10.55,20.88,-30.84
1601,-0.52,6.27,-8.09,0.00,0.00,0.00,-10.55,20.88,-30.84
1611,-0.51,6.28,-8.10,0.00,0.00,0.00,-10.55,20.88,-30.84
1622,-0.51,6.28,-8.10,0.00,0.00,0.00,-10.55,20.88,-30.84
1633,-0.52,6.28,-8.12,0.00,0.00,0.00,-9.38,20.71,-30.27
1644,-0.52,6.28,-8.12,0.00,0.00,0.00,-9.38,20.71,-30.27
1655,-0.52,6.26,-8.13,0.00,0.00,0.00,-9.38,20.71,-30.27
1666,-0.52,6.26,-8.13,0.00,0.00,0.00,-9.38,20.71,-30.27
1677,-0.51,6.26,-8.13,0.00,0.00,0.00,-9.38,20.71,-30.27
1688,-0.53,6.26,-8.11,0.00,0.00,0.00,-9.38,20.71,-30.27
1699,-0.53,6.26,-8.11,0.00,0.00,0.00,-9.38,20.71,-30.27
1710,-0.50,6.28,-8.09,0.00,0.00,0.00,-9.38,20.71,-30.27
1721,-0.50,6.28,-8.09,0.00,0.00,0.00,-9.38,20.71,-30.27
1732,-0.52,6.24,-8.06,0.00,0.00,0.00,-9.38,20.71,-30.27
1743,-0.52,6.24,-8.06,0.00,0.00,0.00,-9.38,20.71,-30.27
1754,-0.50,6.26,-8.04,0.00,0.00,0.00,-9.38,20.71,-30.27
1765,-0.50,6.26,-8.04,0.00,0.00,0.00,-9.38,20.71,-30.27
1776,-0.50,6.21,-8.11,0.01,0.00,0.01,-9.71,20.37,-30.65
1787,-0.50,6.21,-8.11,0.01,0.00,0.01,-9.71,20.37,-30.65
1798,-0.49,6.26,-8.11,0.01,0.00,0.00,-9.71,20.37,-30.65
1809,-0.54,6.31,-8.16,0.01,0.00,0.00,-9.71,20.37,-30.65
1820,-0.54,6.31,-8.16,0.01,0.00,0.00,-9.71,20.37,-30.65
1831,-0.54,6.30,-8.17,0.00,0.00,0.00,-9.71,20.37,-30.65
1842,-0.54,6.30,-8.17,0.00,0.00,0.00,-9.71,20.37,-30.65
1853,-0.53,6.28,-8.15,0.00,0.00,0.01,-9.71,20.37,-30.65
1864,-0.53,6.28,-8.15,0.00,0.00,0.01,-9.71,20.37,-30.65
1875,-0.51,6.29,-8.13,0.00,0.00,0.01,-9.71,20.37,-30.65
1886,-0.51,6.29,-8.13,0.00,0.00,0.01,-9.71,20.37,-30.65
1897,-0.51,6.26,-8.13,0.00,0.00,0.00,-9.71,19.68,-31.03
1908,-0.51,6.25,-8.10,-0.00,0.00,0.00,-9.71,19.68,-31.03
1919,-0.51,6.25,-8.10,-0.00,0.00,0.00,-9.71,19.68,-31.03
1930,-0.52,6.25,-8.08,0.00,0.00,0.00,-9.71,19.68,-31.03
1941,-0.52,6.25,-8.08,0.00,0.00,0.00,-9.71,19.68,-31.03
1952,0.70,6.31,-7.95,0.11,-0.10,0.27,-9.71,19.68,-31.03
1963,0.70,6.31,-7.95,0.11,-0.10,0.27,-9.71,19.68,-31.03
1974,-1.15,5.98,-8.42,0.21,-0.66,1.22,-9.71,19.68,-31.03
1985,-1.15,5.98,-8.42,0.21,-0.66,1.22,-9.71,19.68,-31.03
1996,0.55,7.06,-7.46,0.03,-0.27,0.75,-9.71,19.68,-31.03
2007,0.55,7.06,-7.46,0.03,-0.27,0.75,-9.71,19.68,-31.03
2018,-0.50,7.08,-7.36,-0.42,0.50,0.46,-8.37,20.02,-31.41
2029,-0.47,5.50,-9.11,-0.60,0.86,0.19,-8.37,20.02,-31.41
2040,-0.47,5.50,-9.11,-0.60,0.86,0.19,-8.37,20.02,-31.41
2051,-1.46,4.71,-8.87,-1.46,0.57,0.08,-8.37,20.02,-31.41
2062,-1.46,4.71,-8.87,-1.46,0.57,0.08,-8.37,20.02,-31.41
2073,-0.81,6.76,-7.52,-3.22,0.32,0.03,-8.37,20.02,-31.41
2084,-0.81,6.76,-7.52,-3.22,0.32,0.03,-8.37,20.02,-31.41
2095,1.37,8.27,-6.66,-4.83,0.04,0.45,-8.37,20.02,-31.41
2106,1.37,8.27,-6.66,-4.83,0.04,0.45,-8.37,20.02,-31.41
2117,1.88,8.58,-6.26,-4.79,-0.25,1.22,-8.37,20.02,-31.41
2128,0.61,9.07,-3.05,-4.29,-0.33,1.56,-8.37,20.02,-31.41
2139,0.61,9.07,-3.05,-4.29,-0.33,1.56,-8.37,20.02,-31.41
2150,-0.43,14.60,-3.72,-5.61,-0.20,1.07,-5.35,33.01,-15.06
2162,-0.43,14.60,-3.72,-5.61,-0.20,1.07,-5.35,33.01,-15.06
2172,-0.75,16.86,-5.43,-4.70,-0.01,-0.07,-5.35,33.01,-15.06
2183,-0.75,16.86,-5.43,-4.70,-0.01,-0.07,-5.35,33.01,-15.06
2194,-1.00,14.56,-6.82,-4.21,-0.45,-1.40,-5.35,33.01,-15.06
2205,-1.00,14.56,-6.82,-4.21,-0.45,-1.40,-5.35,33.01,-15.06
2216,-2.16,12.78,-6.84,-3.91,-1.36,-2.08,-5.35,33.01,-15.06
2227,-2.16,12.78,-6.84,-3.91,-1.36,-2.08,-5.35,33.01,-15.06
2238,-1.31,11.75,-7.13,-3.75,-2.12,-2.45,-5.35,33.01,-15.06
2249,-0.27,9.88,-7.88,-2.64,-2.57,-2.60,-5.35,33.01,-15.06
2260,-0.27,9.88,-7.88,-2.64,-2.57,-2.60,-5.35,33.01,-15.06
2271,-0.56,8.80,-5.34,-1.12,-3.44,-2.65,-9.54,30.79,10.22
2282,-0.56,8.80,-5.34,-1.12,-3.44,-2.65,-9.54,30.79,10.22
2293,-2.25,11.38,-2.50,-1.54,-4.53,-3.12,-9.54,30.79,10.22
2304,-2.25,11.38,-2.50,-1.54,-4.53,-3.12,-9.54,30.79,10.22
2315,-1.14,13.80,-3.18,-1.94,-5.09,-4.22,-9.54,30.79,10.22
2326,-1.14,13.80,-3.18,-1.94,-5.09,-4.22,-9.54,30.79,10.22
2337,1.43,12.19,-2.55,-0.92,-4.84,-5.12,-9.54,30.79,10.22
2348,3.40,9.49,-5.60,-0.38,-5.00,-5.68,-9.54,30.79,10.22
2359,3.40,9.49,-5.60,-0.38,-5.00,-5.68,-9.54,30.79,10.22
2370,3.69,5.61,-4.38,0.05,-6.44,-5.74,-9.54,30.79,10.22
2381,3.69,5.61,-4.38,0.05,-6.44,-5.74,-9.54,30.79,10.22
2392,3.51,3.03,-2.38,-0.89,-8.41,-5.39,-16.76,15.58,35.50
2403,3.51,3.03,-2.38,-0.89,-8.41,-5.39,-16.76,15.58,35.50
2414,5.16,2.09,-1.08,-1.41,-10.10,-4.79,-16.76,15.58,35.50
2425,5.16,2.09,-1.08,-1.41,-10.10,-4.79,-16.76,15.58,35.50
2436,5.51,2.87,22.12,-1.28,-11.19,-4.03,-16.76,15.58,35.50
2447,5.51,2.87,22.12,-1.28,-11.19,-4.03,-16.76,15.58,35.50
2458,1.75,10.73,0.18,-13.41,-7.47,-5.93,-16.76,15.58,35.50
2469,1.11,-1.22,10.49,-3.09,-3.49,-6.44,-16.76,15.58,35.50
2480,1.11,-1.22,10.49,-3.09,-3.49,-6.44,-16.76,15.58,35.50
2491,-0.41,-7.99,15.63,1.67,-1.33,-5.02,-16.76,15.58,35.50
2502,-0.41,-7.99,15.63,1.67,-1.33,-5.02,-16.76,15.58,35.50
2513,-1.92,-2.40,8.68,-0.90,0.09,-3.08,2.87,-5.77,53.55
2524,-1.92,-2.40,8.68,-0.90,0.09,-3.08,2.87,-5.77,53.55
2535,-2.06,2.30,8.72,-2.16,0.24,-2.02,2.87,-5.77,53.55
2546,-2.06,2.30,8.72,-2.16,0.24,-2.02,2.87,-5.77,53.55
2557,-3.60,2.31,8.91,-2.96,0.06,-2.18,2.87,-5.77,53.55
2568,-3.60,2.31,8.91,-2.96,0.06,-2.18,2.87,-5.77,53.55
2579,-4.68,0.82,9.69,-2.58,0.14,-2.42,2.87,-5.77,53.55
2590,-3.69,0.24,9.92,-2.00,0.36,-2.48,2.87,-5.77,53.55
2601,-3.69,0.24,9.92,-2.00,0.36,-2.48,2.87,-5.77,53.55
2612,-3.94,-0.16,9.49,-1.95,0.50,-2.81,2.87,-5.77,53.55
2623,-3.94,-0.16,9.49,-1.95,0.50,-2.81,2.87,-5.77,53.55
2634,-4.68,-1.09,8.54,-1.62,0.77,-3.05,2.87,-5.77,53.55
2645,-4.68,-1.09,8.54,-1.62,0.77,-3.05,2.87,-5.77,53.55
2656,-4.15,-2.35,8.70,-0.03,1.31,-2.48,6.22,-20.46,52.03
2667,-4.15,-2.35,8.70,-0.03,1.31,-2.48,6.22,-20.46,52.03
2678,-4.83,-1.44,8.48,0.38,1.37,-1.79,6.22,-20.46,52.03
2689,-4.96,-1.24,8.55,0.45,1.19,-1.56,6.22,-20.46,52.03
2700,-4.96,-1.24,8.55,0.45,1.19,-1.56,6.22,-20.46,52.03
2711,-4.08,-1.62,9.15,0.20,1.04,-1.51,6.22,-20.46,52.03
2722,-4.08,-1.62,9.15,0.20,1.04,-1.51,6.22,-20.46,52.03
2733,-5.09,-1.88,7.59,-0.64,0.93,-1.37,6.22,-20.46,52.03
2744,-5.09,-1.88,7.59,-0.64,0.93,-1.37,6.22,-20.46,52.03
2755,-5.64,-1.40,7.41,-0.75,0.80,-1.48,6.22,-20.46,52.03
2766,-5.64,-1.40,7.41,-0.75,0.80,-1.48,6.22,-20.46,52.03
2777,-6.15,-1.54,6.46,-0.18,0.82,-1.72,3.54,-21.48,49.75
2788,-6.15,-1.54,6.46,-0.18,0.82,-1.72,3.54,-21.48,49.75
2799,-5.09,-0.41,4.86,0.21,1.06,-1.44,3.54,-21.48,49.75
2810,-5.55,0.27,7.39,1.97,2.01,-1.33,3.54,-21.48,49.75
2821,-5.55,0.27,7.39,1.97,2.01,-1.33,3.54,-21.48,49.75
2832,-7.46,1.10,7.09,1.18,2.99,-1.82,3.54,-21.48,49.75
2843,-7.46,1.10,7.09,1.18,2.99,-1.82,3.54,-21.48,49.75
2854,-9.27,5.52,8.40,-0.50,3.77,-2.51,3.54,-21.48,49.75
2865,-9.27,5.52,8.40,-0.50,3.77,-2.51,3.54,-21.48,49.75
2876,-9.98,9.46,6.70,-0.67,5.01,-5.20,3.54,-21.48,49.75
2887,-9.98,9.46,6.70,-0.67,5.01,-5.20,3.54,-21.48,49.75
2898,-6.15,0.81,-1.49,-1.26,5.63,-9.34,-6.19,-26.61,43.67
2909,3.30,-19.06,1.34,-1.42,3.09,-9.60,-6.19,-26.61,43.67
2920,3.30,-19.06,1.34,-1.42,3.09,-9.60,-6.19,-26.61,43.67
2931,-1.99,-14.18,1.97,-3.65,0.80,-4.99,-6.19,-26.61,43.67
2942,-1.99,-14.18,1.97,-3.65,0.80,-4.99,-6.19,-26.61,43.67
2953,-4.64,-4.85,5.43,-1.42,0.90,-1.46,-6.19,-26.61,43.67
2964,-4.64,-4.85,5.43,-1.42,0.90,-1.46,-6.19,-26.61,43.67
2975,-3.01,-6.40,3.54,-1.97,1.60,-1.46,-6.19,-26.61,43.67
2986,-3.01,-6.40,3.54,-1.97,1.60,-1.46,-6.19,-26.61,43.67
2997,-1.64,-4.48,2.21,-1.43,1.97,-1.08,-6.19,-26.61,43.67
3008,-1.64,-4.48,2.21,-1.43,1.97,-1.08,-6.19,-26.61,43.67
3019,-3.52,-1.76,2.31,1.23,2.22,-1.29,-6.19,-26.61,43.67
3030,-3.65,-1.12,1.81,3.92,2.35,-2.38,-0.99,-38.05,35.88
3041,-3.65,-1.12,1.81,3.92,2.35,-2.38,-0.99,-38.05,35.88
3052,-5.67,-10.46,8.30,5.11,1.67,-4.10,-0.99,-38.05,35.88
3063,-5.67,-10.46,8.30,5.11,1.67,-4.10,-0.99,-38.05,35.88
3074,-2.81,-14.60,11.61,3.88,0.48,-4.67,-0.99,-38.05,35.88
3085,-2.81,-14.60,11.61,3.88,0.48,-4.67,-0.99,-38.05,35.88
3096,-1.09,-12.90,5.59,2.12,1.11,-3.12,-0.99,-38.05,35.88
3107,-1.09,-12.90,5.59,2.12,1.11,-3.12,-0.99,-38.05,35.88
3118,-3.04,-13.34,7.66,3.56,1.58,-0.77,-0.99,-38.05,35.88
3129,-2.41,-10.20,5.42,2.69,1.78,1.32,-0.99,-38.05,35.88
3140,-2.41,-10.20,5.42,2.69,1.78,1.32,-0.99,-38.05,35.88
3151,-2.33,-4.45,5.37,3.20,1.80,2.23,-1.66,-24.73,48.04
3162,-2.33,-4.45,5.37,3.20,1.80,2.23,-1.66,-24.73,48.04
3173,-3.29,-3.62,5.36,3.15,1.45,1.36,-1.66,-24.73,48.04
3184,-3.29,-3.62,5.36,3.15,1.45,1.36,-1.66,-24.73,48.04
3195,-4.26,-5.83,6.16,2.01,1.02,0.53,-1.66,-24.73,48.04
3206,-4.26,-5.83,6.16,2.01,1.02,0.53,-1.66,-24.73,48.04
3217,-5.67,-5.03,6.37,1.11,1.05,0.76,-1.66,-24.73,48.04
3228,-5.67,-5.03,6.37,1.11,1.05,0.76,-1.66,-24.73,48.04
3239,-4.95,-5.29,5.64,0.40,1.06,1.01,-1.66,-24.73,48.04
3250,-4.64,-5.47,6.32,-0.22,0.70,0.61,-1.66,-24.73,48.04
3261,-4.64,-5.47,6.32,-0.22,0.70,0.61,-1.66,-24.73,48.04
3272,-4.61,-5.37,6.23,0.17,0.42,0.13,-7.20,-14.65,48.61
3283,-4.61,-5.37,6.23,0.17,0.42,0.13,-7.20,-14.65,48.61
3294,-5.40,-5.46,6.40,0.82,0.22,-0.22,-7.20,-14.65,48.61
3305,-5.40,-5.46,6.40,0.82,0.22,-0.22,-7.20,-14.65,48.61
3316,-5.90,-5.33,5.94,1.64,0.19,-0.22,-7.20,-14.65,48.61
3327,-5.90,-5.33,5.94,1.64,0.19,-0.22,-7.20,-14.65,48.61
3338,-6.09,-5.84,5.56,1.22,-0.06,-0.37,-7.20,-14.65,48.61
3349,-6.02,-5.51,5.86,0.30,-0.57,-0.53,-7.20,-14.65,48.61
3360,-6.02,-5.51,5.86,0.30,-0.57,-0.53,-7.20,-14.65,48.61
3371,-6.37,-5.85,5.49,-0.05,-0.93,-0.71,-7.20,-14.65,48.61
3382,-6.37,-5.85,5.49,-0.05,-0.93,-0.71,-7.20,-14.65,48.61
3393,-7.38,-6.12,5.92,0.22,-1.34,-0.76,-7.20,-14.65,48.61
3404,-7.38,-6.12,5.92,0.22,-1.34,-0.76,-7.20,-14.65,48.61
3415,-7.75,-5.74,5.91,0.64,-1.64,-0.71,-5.02,-13.11,50.32
3426,-7.75,-5.74,5.91,0.64,-1.64,-0.71,-5.02,-13.11,50.32
3437,-7.67,-4.87,5.27,0.63,-1.85,-0.62,-5.02,-13.11,50.32
3448,-7.67,-4.87,5.27,0.63,-1.85,-0.62,-5.02,-13.11,50.32
3459,-6.97,-4.54,4.93,0.42,-2.04,-0.37,-5.02,-13.11,50.32
3470,-5.36,-3.73,5.29,0.60,-2.26,0.09,-5.02,-13.11,50.32
3481,-5.36,-3.73,5.29,0.60,-2.26,0.09,-5.02,-13.11,50.32
3492,-4.35,-2.94,5.19,1.01,-2.28,0.37,-5.02,-13.11,50.32
3503,-4.35,-2.94,5.19,1.01,-2.28,0.37,-5.02,-13.11,50.32
3515,-3.50,-2.77,4.01,0.82,-2.30,0.24,-5.02,-13.11,50.32
3525,-3.50,-2.77,4.01,0.82,-2.30,0.24,-5.02,-13.11,50.32
3536,-3.73,-3.14,3.86,-0.65,-2.59,-0.20,6.05,-11.06,53.74
3547,-3.73,-3.14,3.86,-0.65,-2.59,-0.20,6.05,-11.06,53.74
3558,-2.38,-2.90,5.79,-1.72,-2.53,-0.67,6.05,-11.06,53.74
3569,-1.66,-2.71,7.41,-0.66,-1.80,-0.70,6.05,-11.06,53.74
3580,-1.66,-2.71,7.41,-0.66,-1.80,-0.70,6.05,-11.06,53.74
3591,0.83,-3.40,7.48,0.64,-1.00,-0.27,6.05,-11.06,53.74
3602,0.83,-3.40,7.48,0.64,-1.00,-0.27,6.05,-11.06,53.74
3613,3.78,-3.71,7.41,0.44,-0.92,-0.22,6.05,-11.06,53.74
3624,3.78,-3.71,7.41,0.44,-0.92,-0.22,6.05,-11.06,53.74
3635,6.95,-4.82,7.40,0.31,-1.33,-0.39,6.05,-11.06,53.74
3646,6.95,-4.82,7.40,0.31,-1.33,-0.39,6.05,-11.06,53.74
3657,8.38,-4.90,8.83,0.87,-0.95,-0.31,17.12,-7.99,56.02
3668,8.38,-4.90,8.83,0.87,-0.95,-0.31,17.12,-7.99,56.02
3679,4.14,-5.58,9.34,1.16,-0.15,-0.72,17.12,-7.99,56.02
3690,-0.95,-5.72,10.95,0.65,-1.20,-1.20,17.12,-7.99,56.02
3701,-0.95,-5.72,10.95,0.65,-1.20,-1.20,17.12,-7.99,56.02
3712,0.98,-8.72,21.73,-0.91,-1.63,-0.84,17.12,-7.99,56.02
3723,0.98,-8.72,21.73,-0.91,-1.63,-0.84,17.12,-7.99,56.02
3734,1.19,-4.06,10.44,2.21,0.70,0.32,17.12,-7.99,56.02
3745,1.19,-4.06,10.44,2.21,0.70,0.32,17.12,-7.99,56.02
3756,-0.26,-3.98,8.01,1.82,0.77,0.66,17.12,-7.99,56.02
3767,-0.26,-3.98,8.01,1.82,0.77,0.66,17.12,-7.99,56.02
3778,-0.02,-2.42,4.40,0.99,0.95,0.84,17.79,-2.18,55.26
3789,-0.02,-2.42,4.40,0.99,0.95,0.84,17.79,-2.18,55.26
3800,-0.36,-1.59,5.15,-0.36,0.55,0.85,17.79,-2.18,55.26
3811,-0.11,-3.51,7.75,-1.70,-0.08,0.46,17.79,-2.18,55.26
3822,-0.11,-3.51,7.75,-1.70,-0.08,0.46,17.79,-2.18,55.26
3834,0.13,-6.21,12.72,-1.69,-0.30,0.22,17.79,-2.18,55.26
3844,0.13,-6.21,12.72,-1.69,-0.30,0.22,17.79,-2.18,55.26
3855,0.36,-4.85,7.91,-0.35,0.27,0.41,17.79,-2.18,55.26
3866,0.36,-4.85,7.91,-0.35,0.27,0.41,17.79,-2.18,55.26
3877,0.66,-4.91,7.61,-0.02,-0.05,0.39,17.79,-2.18,55.26
3888,0.66,-4.91,7.61,-0.02,-0.05,0.39,17.79,-2.18,55.26
3899,-0.69,-7.08,11.36,-0.19,-0.22,0.39,17.79,-2.18,55.26
3910,-1.65,-9.30,14.46,0.29,0.01,0.65,18.96,-7.82,58.12
3921,-1.65,-9.30,14.46,0.29,0.01,0.65,18.96,-7.82,58.12
3932,-0.62,-8.76,13.04,1.31,0.45,1.07,18.96,-7.82,58.12
3943,-0.62,-8.76,13.04,1.31,0.45,1.07,18.96,-7.82,58.12
3954,-0.65,-6.62,10.55,1.91,0.90,1.38,18.96,-7.82,58.12
3965,-0.65,-6.62,10.55,1.91,0.90,1.38,18.96,-7.82,58.12
3976,-0.96,-5.17,7.82,1.88,0.99,1.64,18.96,-7.82,58.12
3987,-0.96,-5.17,7.82,1.88,0.99,1.64,18.96,-7.82,58.12
3998,-0.18,-3.03,4.83,1.02,0.22,1.58,18.96,-7.82,58.12
4009,-0.18,-3.03,4.83,1.02,0.22,1.58,18.96,-7.82,58.12
4020,0.24,-1.89,5.71,0.41,-0.80,1.15,18.96,-7.82,58.12
4031,0.01,-0.89,6.70,-0.29,-1.05,0.46,14.94,-4.40,56.98
4042,0.01,-0.89,6.70,-0.29,-1.05,0.46,14.94,-4.40,56.98
4053,-0.15,-1.74,6.40,-0.25,-0.62,-0.07,14.94,-4.40,56.98
4064,-0.15,-1.74,6.40,-0.25,-0.62,-0.07,14.94,-4.40,56.98
4075,-0.35,-1.86,5.86,0.14,-0.13,0.06,14.94,-4.40,56.98
4086,-0.35,-1.86,5.86,0.14,-0.13,0.06,14.94,-4.40,56.98
4097,-0.74,-0.64,6.25,-0.01,0.26,0.46,14.94,-4.40,56.98
4108,-0.74,-0.64,6.25,-0.01,0.26,0.46,14.94,-4.40,56.98
4119,-0.91,-0.66,6.72,-0.71,0.48,0.28,14.94,-4.40,56.98
4130,-1.48,-2.32,7.57,-0.53,0.64,0.05,14.94,-4.40,56.98
4141,-1.48,-2.32,7.57,-0.53,0.64,0.05,14.94,-4.40,56.98
4153,-2.06,-2.26,8.38,-0.32,0.63,0.16,13.77,-6.96,56.41
4163,-2.06,-2.26,8.38,-0.32,0.63,0.16,13.77,-6.96,56.41
4174,-1.18,-2.48,8.88,-0.32,0.55,0.26,13.77,-6.96,56.41
4185,-1.18,-2.48,8.88,-0.32,0.55,0.26,13.77,-6.96,56.41
4196,-0.87,-2.89,10.11,-0.18,0.51,0.19,13.77,-6.96,56.41
4207,-0.87,-2.89,10.11,-0.18,0.51,0.19,13.77,-6.96,56.41
4218,-1.35,-2.93,9.41,-0.16,0.68,-0.19,13.77,-6.96,56.41
4229,-1.35,-2.93,9.41,-0.16,0.68,-0.19,13.77,-6.96,56.41
4240,-2.05,-3.07,9.05,-0.13,0.40,-0.57,13.77,-6.96,56.41
4251,-2.99,-3.57,9.49,-0.06,-0.06,-0.72,13.77,-6.96,56.41
4262,-2.99,-3.57,9.49,-0.06,-0.06,-0.72,13.77,-6.96,56.41
4273,-3.74,-3.32,10.07,0.06,-0.47,-0.50,13.77,-6.96,56.41
4284,-3.74,-3.32,10.07,0.06,-0.47,-0.50,13.77,-6.96,56.41
4295,-2.70,-3.57,10.58,-0.03,-0.69,-0.31,13.43,-7.65,58.31
4306,-2.70,-3.57,10.58,-0.03,-0.69,-0.31,13.43,-7.65,58.31
4317,-2.27,-3.63,10.33,0.34,-0.41,-0.05,13.43,-7.65,58.31
4328,-2.27,-3.63,10.33,0.34,-0.41,-0.05,13.43,-7.65,58.31
4339,-1.87,-2.50,8.97,0.76,0.05,0.27,13.43,-7.65,58.31
4350,-1.92,-2.24,8.17,0.66,0.39,0.40,13.43,-7.65,58.31
4361,-1.92,-2.24,8.17,0.66,0.39,0.40,13.43,-7.65,58.31
4372,-1.77,-3.14,8.35,0.27,0.48,0.56,13.43,-7.65,58.31
4383,-1.77,-3.14,8.35,0.27,0.48,0.56,13.43,-7.65,58.31
4394,-1.50,-3.50,9.74,0.09,0.56,0.95,13.43,-7.65,58.31
4405,-1.50,-3.50,9.74,0.09,0.56,0.95,13.43,-7.65,58.31
4416,-1.50,-3.55,9.79,1.28,0.91,1.63,11.25,-5.09,58.12
4427,-1.50,-3.55,9.79,1.28,0.91,1.63,11.25,-5.09,58.12
4438,-1.56,-1.35,10.60,3.24,1.42,2.17,11.25,-5.09,58.12
4449,-1.56,-1.35,10.60,3.24,1.42,2.17,11.25,-5.09,58.12
4460,-1.63,-1.64,11.94,4.29,1.62,2.29,11.25,-5.09,58.12
4471,-2.77,1.21,10.06,3.30,1.14,2.25,11.25,-5.09,58.12
4482,-2.77,1.21,10.06,3.30,1.14,2.25,11.25,-5.09,58.12
4493,-2.47,2.10,9.95,1.29,-0.11,1.63,11.25,-5.09,58.12
4504,-2.47,2.10,9.95,1.29,-0.11,1.63,11.25,-5.09,58.12
4515,-3.87,1.20,15.15,-1.78,-1.69,0.52,11.25,-5.09,58.12
4526,-3.87,1.20,15.15,-1.78,-1.69,0.52,11.25,-5.09,58.12
4537,-1.66,0.48,12.28,-2.19,-1.78,0.16,11.75,2.60,55.64
4548,-1.66,0.48,12.28,-2.19,-1.78,0.16,11.75,2.60,55.64
4559,2.26,-1.75,13.41,1.99,0.01,1.86,11.75,2.60,55.64
4570,0.07,2.83,13.09,4.66,2.05,3.52,11.75,2.60,55.64
4581,0.07,2.83,13.09,4.66,2.05,3.52,11.75,2.60,55.64
4592,0.09,2.50,9.25,4.79,3.45,3.21,11.75,2.60,55.64
4603,0.09,2.50,9.25,4.79,3.45,3.21,11.75,2.60,55.64
4614,0.17,3.40,8.32,6.12,5.00,3.26,11.75,2.60,55.64
4625,0.17,3.40,8.32,6.12,5.00,3.26,11.75,2.60,55.64
4636,-2.83,4.43,4.90,7.96,7.46,3.04,11.75,2.60,55.64
4647,-2.83,4.43,4.90,7.96,7.46,3.04,11.75,2.60,55.64
4658,-4.52,3.25,6.85,11.03,8.77,2.52,11.75,2.60,55.64
4669,-4.52,3.25,6.85,11.03,8.77,2.52,11.75,2.60,55.64
4680,-2.53,5.70,1.92,10.77,8.79,1.73,-4.01,31.64,27.51
4691,-4.96,3.48,-0.09,8.87,7.37,0.31,-4.01,31.64,27.51
4702,-4.96,3.48,-0.09,8.87,7.37,0.31,-4.01,31.64,27.51
4713,-4.46,2.68,-1.58,3.94,5.56,-0.53,-4.01,31.64,27.51
4729,-4.46,2.68,-1.58,3.94,5.56,-0.53,-4.01,31.64,27.51
4735,-2.24,3.83,-6.55,0.38,4.34,0.22,-4.01,31.64,27.51
4746,-2.24,3.83,-6.55,0.38,4.34,0.22,-4.01,31.64,27.51
4757,-1.43,3.80,-5.02,-1.41,2.51,0.41,-4.01,31.64,27.51
4768,-1.43,3.80,-5.02,-1.41,2.51,0.41,-4.01,31.64,27.51
4779,-1.72,1.68,-2.76,-3.66,1.31,0.11,-4.01,31.64,27.51
4790,-1.72,1.68,-2.76,-3.66,1.31,0.11,-4.01,31.64,27.51
4801,-8.13,8.45,-7.80,-5.58,0.65,0.50,-4.51,35.23,5.27
4812,-8.12,5.49,-1.94,-1.59,0.23,0.97,-4.51,35.23,5.27
4824,-8.12,5.49,-1.94,-1.59,0.23,0.97,-4.51,35.23,5.27
4834,-7.05,9.63,-2.28,-0.19,0.21,1.16,-4.51,35.23,5.27
4845,-7.05,9.63,-2.28,-0.19,0.21,1.16,-4.51,35.23,5.27
4856,-7.19,6.93,-1.41,-1.63,0.00,0.60,-4.51,35.23,5.27
4867,-7.19,6.93,-1.41,-1.63,0.00,0.60,-4.51,35.23,5.27
4878,-6.46,6.63,-1.62,-5.83,-0.25,0.19,-4.51,35.23,5.27
4889,-6.46,6.63,-1.62,-5.83,-0.25,0.19,-4.51,35.23,5.27
4900,-6.12,8.14,-0.29,-8.69,-0.94,0.20,-4.51,35.23,5.27
4911,-6.61,9.54,3.68,-8.61,-1.31,0.30,-0.32,27.54,31.69
4922,-6.61,9.54,3.68,-8.61,-1.31,0.30,-0.32,27.54,31.69
4933,-8.01,9.45,3.05,-7.15,-0.87,0.19,-0.32,27.54,31.69
4944,-8.01,9.45,3.05,-7.15,-0.87,0.19,-0.32,27.54,31.69
4955,-7.11,9.25,4.06,-2.34,-0.15,0.21,-0.32,27.54,31.69
4966,-7.11,9.25,4.06,-2.34,-0.15,0.21,-0.32,27.54,31.69
4977,-6.85,9.29,3.14,1.97,0.45,-0.04,-0.32,27.54,31.69
4988,-6.85,9.29,3.14,1.97,0.45,-0.04,-0.32,27.54,31.69
4999,-6.47,8.79,3.23,5.18,0.61,-0.31,-0.32,27.54,31.69
5010,-6.47,8.79,3.23,5.18,0.61,-0.31,-0.32,27.54,31.69
5021,-6.80,8.50,4.06,7.11,0.60,-0.50,-0.32,27.54,31.69
5032,-12.34,14.36,6.39,5.99,0.44,-0.52,1.02,31.64,18.39
5043,-12.34,14.36,6.39,5.99,0.44,-0.52,1.02,31.64,18.39
5054,-8.28,10.61,-4.32,2.60,-0.16,-1.19,1.02,31.64,18.39
5065,-8.28,10.61,-4.32,2.60,-0.16,-1.19,1.02,31.64,18.39
5076,-5.54,9.79,-0.31,7.35,-0.50,-0.71,1.02,31.64,18.39
5087,-5.54,9.79,-0.31,7.35,-0.50,-0.71,1.02,31.64,18.39
5098,-4.80,8.19,0.79,10.33,-0.49,-0.66,1.02,31.64,18.39
5109,-4.80,8.19,0.79,10.33,-0.49,-0.66,1.02,31.64,18.39
5120,-5.55,4.71,2.81,8.73,-0.45,-0.82,1.02,31.64,18.39
5131,-6.23,5.34,-1.98,3.84,-0.34,-0.91,1.02,31.64,18.39
5142,-6.23,5.34,-1.98,3.84,-0.34,-0.91,1.02,31.64,18.39
5153,-6.80,6.01,-3.99,1.74,-0.23,-0.71,1.02,31.64,18.39
5164,-6.80,6.01,-3.99,1.74,-0.23,-0.71,1.02,31.64,18.39
5175,-7.29,7.69,-5.78,0.37,-0.36,-0.41,-6.19,35.23,-9.17
5186,-7.29,7.69,-5.78,0.37,-0.36,-0.41,-6.19,35.23,-9.17
5197,-6.05,5.84,-2.04,0.30,-0.71,-0.30,-6.19,35.23,-9.17
5208,-6.05,5.84,-2.04,0.30,-0.71,-0.30,-6.19,35.23,-9.17
5219,-7.62,6.58,-2.49,-0.25,-0.34,-0.04,-6.19,35.23,-9.17
5230,-7.62,6.58,-2.49,-0.25,-0.34,-0.04,-6.19,35.23,-9.17
5241,-6.40,6.88,-3.13,0.26,-0.41,0.24,-6.19,35.23,-9.17
5252,-4.49,4.60,-0.17,0.23,-0.78,0.35,-6.19,35.23,-9.17
5263,-4.49,4.60,-0.17,0.23,-0.78,0.35,-6.19,35.23,-9.17
5274,-6.97,6.60,2.18,-1.57,-0.48,0.55,-6.19,35.23,-9.17
5285,-6.97,6.60,2.18,-1.57,-0.48,0.55,-6.19,35.23,-9.17
5297,-6.85,8.80,0.86,-3.84,0.37,0.32,-4.85,36.94,-5.75
5307,-6.85,8.80,0.86,-3.84,0.37,0.32,-4.85,36.94,-5.75
5323,-6.93,5.07,-1.07,-5.84,0.62,0.03,-4.85,36.94,-5.75
5329,-6.93,5.07,-1.07,-5.84,0.62,0.03,-4.85,36.94,-5.75
5340,-5.44,5.11,-0.52,-10.04,0.05,0.55,-4.85,36.94,-5.75
5351,-6.86,11.51,2.05,-15.14,-0.97,0.86,-4.85,36.94,-5.75
5362,-6.86,11.51,2.05,-15.14,-0.97,0.86,-4.85,36.94,-5.75
5373,-7.12,15.26,4.57,-14.20,-1.77,0.22,-4.85,36.94,-5.75
5384,-7.12,15.26,4.57,-14.20,-1.77,0.22,-4.85,36.94,-5.75
5395,-7.43,10.14,6.54,-0.88,-0.51,-0.39,-4.85,36.94,-5.75
5406,-7.43,10.14,6.54,-0.88,-0.51,-0.39,-4.85,36.94,-5.75
5417,-6.21,6.55,5.04,8.43,0.86,-0.35,-2.17,30.10,28.84
5428,-6.21,6.55,5.04,8.43,0.86,-0.35,-2.17,30.10,28.84
5439,-7.13,11.34,1.18,10.70,1.48,-0.11,-2.17,30.10,28.84
5450,-7.13,11.34,1.18,10.70,1.48,-0.11,-2.17,30.10,28.84
5461,-7.31,15.99,-0.28,13.90,1.68,-0.58,-2.17,30.10,28.84
5472,-5.63,9.08,0.56,17.43,1.39,-1.64,-2.17,30.10,28.84
5483,-5.63,9.08,0.56,17.43,1.39,-1.64,-2.17,30.10,28.84
5494,-4.85,1.09,2.78,14.38,0.62,-1.69,-2.17,30.10,28.84
5505,-4.85,1.09,2.78,14.38,0.62,-1.69,-2.17,30.10,28.84
5516,-6.58,2.10,-3.99,6.88,0.56,-1.14,-2.17,30.10,28.84
5527,-6.58,2.10,-3.99,6.88,0.56,-1.14,-2.17,30.10,28.84
5538,-6.64,2.51,-6.99,3.76,0.25,-0.73,-2.17,30.10,28.84
5549,-6.64,2.51,-6.99,3.76,0.25,-0.73,-2.17,30.10,28.84
5560,-7.10,3.06,-5.96,3.89,0.23,-0.36,-8.04,21.73,-32.17
5571,-6.73,4.68,-9.63,3.70,0.45,-0.49,-8.04,21.73,-32.17
5582,-6.73,4.68,-9.63,3.70,0.45,-0.49,-8.04,21.73,-32.17
5593,-7.19,2.44,-7.90,6.19,0.26,-0.89,-8.04,21.73,-32.17
5604,-7.19,2.44,-7.90,6.19,0.26,-0.89,-8.04,21.73,-32.17
5615,-6.91,-1.69,-4.15,6.76,0.09,-0.87,-8.04,21.73,-32.17
5626,-6.91,-1.69,-4.15,6.76,0.09,-0.87,-8.04,21.73,-32.17
5637,-6.33,-2.43,-6.73,3.86,0.19,-0.22,-8.04,21.73,-32.17
5648,-6.33,-2.43,-6.73,3.86,0.19,-0.22,-8.04,21.73,-32.17
5659,-6.89,-0.89,-7.07,2.04,0.07,0.25,-8.04,21.73,-32.17
5670,-6.89,-0.89,-7.07,2.04,0.07,0.25,-8.04,21.73,-32.17
5682,-6.78,1.67,-8.34,1.79,0.18,0.35,-9.21,3.11,-41.87
5692,-7.01,2.49,-7.64,3.03,0.07,0.08,-9.21,3.11,-41.87
5703,-7.01,2.49,-7.64,3.03,0.07,0.08,-9.21,3.11,-41.87
5714,-6.26,2.69,-10.52,4.56,-0.19,-0.38,-9.21,3.11,-41.87
5725,-6.26,2.69,-10.52,4.56,-0.19,-0.38,-9.21,3.11,-41.87
5736,-7.22,-2.35,-7.39,7.66,-0.59,-0.48,-9.21,3.11,-41.87
5747,-7.22,-2.35,-7.39,7.66,-0.59,-0.48,-9.21,3.11,-41.87
5758,-7.67,-1.25,-6.44,8.10,-0.80,-0.25,-9.21,3.11,-41.87
5769,-7.67,-1.25,-6.44,8.10,-0.80,-0.25,-9.21,3.11,-41.87
5780,-6.84,0.69,-8.59,9.95,-0.87,-0.21,-9.21,3.11,-41.87
5791,-7.30,3.05,-7.91,13.41,-1.34,-0.54,-9.21,3.11,-41.87
5802,-7.30,3.05,-7.91,13.41,-1.34,-0.54,-11.05,-33.27,-27.61
5813,-5.78,-5.94,2.84,15.38,-2.23,-1.06,-11.05,-33.27,-27.61
5824,-5.78,-5.94,2.84,15.38,-2.23,-1.06,-11.05,-33.27,-27.61
5835,-6.80,-8.03,10.91,11.66,-2.01,-0.70,-11.05,-33.27,-27.61
5846,-6.80,-8.03,10.91,11.66,-2.01,-0.70,-11.05,-33.27,-27.61
5857,-6.14,-5.35,6.05,6.03,-0.30,-0.79,-11.05,-33.27,-27.61
5868,-6.14,-5.35,6.05,6.03,-0.30,-0.79,-11.05,-33.27,-27.61
5879,-6.21,-9.29,5.83,2.55,0.97,-1.43,-11.05,-33.27,-27.61
5890,-6.21,-9.29,5.83,2.55,0.97,-1.43,-11.05,-33.27,-27.61
5901,-3.60,-10.42,15.34,-3.34,2.27,-1.78,-11.05,-33.27,-27.61
5912,2.07,-10.54,20.03,-15.16,5.49,-1.18,-11.05,-33.27,-27.61
5923,2.07,-10.54,20.03,-15.16,5.49,-1.18,-11.05,-33.27,-27.61
5934,0.27,6.50,-21.59,-17.47,6.75,2.27,-4.51,-36.86,-24.76
5945,0.27,6.50,-21.59,-17.47,6.75,2.27,-4.51,-36.86,-24.76
5956,-8.44,18.34,-15.10,-17.47,0.66,4.16,-4.51,-36.86,-24.76
5967,-8.44,18.34,-15.10,-17.47,0.66,4.16,-4.51,-36.86,-24.76
5978,-10.15,7.17,-0.15,-6.55,-0.94,1.48,-4.51,-36.86,-24.76
5989,-10.15,7.17,-0.15,-6.55,-0.94,1.48,-4.51,-36.86,-24.76
6000,-2.35,0.12,-20.33,-1.78,0.81,-0.43,-4.51,-36.86,-24.76
6011,-2.35,0.12,-20.33,-1.78,0.81,-0.43,-4.51,-36.86,-24.76
6022,-4.36,3.26,-13.12,3.59,-1.08,0.54,-4.51,-36.86,-24.76
6038,-10.48,3.35,-1.86,9.74,-2.08,1.22,-4.51,-36.86,-24.76
6044,-10.48,3.35,-1.86,9.74,-2.08,1.22,-4.51,-36.86,-24.76
6055,-10.25,0.01,3.03,13.38,0.05,0.54,-4.35,-17.90,-41.30
6066,-10.25,0.01,3.03,13.38,0.05,0.54,-4.35,-17.90,-41.30
6077,-0.56,-5.99,-22.08,6.84,0.96,-0.94,-4.35,-17.90,-41.30
6088,-0.56,-5.99,-22.08,6.84,0.96,-0.94,-4.35,-17.90,-41.30
6099,-4.20,0.87,-9.08,5.47,-2.57,-0.29,-4.35,-17.90,-41.30
6110,-4.20,0.87,-9.08,5.47,-2.57,-0.29,-4.35,-17.90,-41.30
6121,-7.04,2.90,-6.33,6.83,-3.56,-0.47,-4.35,-17.90,-41.30
6132,-6.77,1.64,-5.74,10.01,-3.34,-1.43,-4.35,-17.90,-41.30
6143,-6.77,1.64,-5.74,10.01,-3.34,-1.43,-4.35,-17.90,-41.30
6154,-9.12,-12.37,17.41,16.28,-3.14,-0.64,-4.35,-17.90,-41.30
6165,-9.12,-12.37,17.41,16.28,-3.14,-0.64,-4.35,-17.90,-41.30
6177,-7.59,-5.51,7.71,9.61,-0.87,0.56,-9.88,-45.06,5.65
6187,-7.59,-5.51,7.71,9.61,-0.87,0.56,-9.88,-45.06,5.65
6198,-6.34,-7.75,6.49,5.08,0.61,0.40,-9.88,-45.06,5.65
6209,-6.34,-7.75,6.49,5.08,0.61,0.40,-9.88,-45.06,5.65
6220,-5.10,-6.47,5.40,1.48,1.59,0.50,-9.88,-45.06,5.65
6231,-5.10,-6.47,5.40,1.48,1.59,0.50,-9.88,-45.06,5.65
6242,-6.02,-3.31,1.19,-2.18,2.06,0.30,-9.88,-45.06,5.65
6253,-6.23,-6.75,-5.79,-3.82,1.20,-0.66,-9.88,-45.06,5.65
6264,-6.23,-6.75,-5.79,-3.82,1.20,-0.66,-9.88,-45.06,5.65
6275,-7.69,-10.69,2.28,-0.56,-0.52,-0.28,-9.88,-45.06,5.65
6286,-7.69,-10.69,2.28,-0.56,-0.52,-0.28,-9.88,-45.06,5.65
6297,-7.76,-4.23,5.11,-0.08,-0.31,0.37,-10.05,-44.54,2.04
6308,-7.76,-4.23,5.11,-0.08,-0.31,0.37,-10.05,-44.54,2.04
6319,-7.56,-7.54,0.67,-0.53,0.63,0.13,-10.05,-44.54,2.04
6330,-7.56,-7.54,0.67,-0.53,0.63,0.13,-10.05,-44.54,2.04
6341,-7.53,-6.29,0.50,-0.85,0.54,0.27,-10.05,-44.54,2.04
6352,-7.16,-5.77,-0.42,-1.13,0.43,0.21,-10.05,-44.54,2.04
6363,-7.16,-5.77,-0.42,-1.13,0.43,0.21,-10.05,-44.54,2.04
6374,-6.60,-6.80,-1.06,-1.10,0.20,0.11,-10.05,-44.54,2.04
6385,-6.60,-6.80,-1.06,-1.10,0.20,0.11,-10.05,-44.54,2.04
6396,-7.49,-6.31,-0.04,-1.10,-0.13,0.19,-10.05,-44.54,2.04
6407,-7.49,-6.31,-0.04,-1.10,-0.13,0.19,-10.05,-44.54,2.04
6418,-8.10,-6.00,0.29,-1.25,-0.10,0.15,-10.05,-44.54,2.04
6429,-8.10,-6.00,0.29,-1.25,-0.10,0.15,-10.05,-44.54,2.04
6440,-7.47,-6.07,-0.81,-1.26,0.04,0.04,-11.22,-43.35,-4.61
6451,-7.47,-6.07,-0.81,-1.26,0.04,0.04,-11.22,-43.35,-4.61
6462,-8.45,-5.65,-1.82,-0.94,0.03,0.16,-11.22,-43.35,-4.61
6473,-8.86,-4.96,-2.04,-0.46,0.09,0.27,-11.22,-43.35,-4.61
6484,-8.86,-4.96,-2.04,-0.46,0.09,0.27,-11.22,-43.35,-4.61
6495,-8.14,-5.29,-2.14,-0.18,0.14,0.15,-11.22,-43.35,-4.61
6506,-8.14,-5.29,-2.14,-0.18,0.14,0.15,-11.22,-43.35,-4.61
6517,-7.86,-6.37,-0.37,-0.08,0.03,0.06,-11.22,-43.35,-4.61
6528,-7.86,-6.37,-0.37,-0.08,0.03,0.06,-11.22,-43.35,-4.61
6539,-7.60,-6.46,-0.23,-0.18,0.01,0.08,-11.22,-43.35,-4.61
6550,-7.60,-6.46,-0.23,-0.18,0.01,0.08,-11.22,-43.35,-4.61
6561,-7.77,-6.38,-0.33,-0.18,0.04,0.16,-11.05,-41.47,-4.80
6572,-7.98,-5.97,-0.61,-0.26,0.14,0.23,-11.05,-41.47,-4.80
6583,-7.98,-5.97,-0.61,-0.26,0.14,0.23,-11.05,-41.47,-4.80
6594,-7.95,-5.78,-1.42,-0.33,0.22,0.19,-11.05,-41.47,-4.80
6605,-7.95,-5.78,-1.42,-0.33,0.22,0.19,-11.05,-41.47,-4.80
6616,-7.42,-6.05,-1.09,-0.21,0.19,0.11,-11.05,-41.47,-4.80
6627,-7.42,-6.05,-1.09,-0.21,0.19,0.11,-11.05,-41.47,-4.80
6638,-7.08,-6.40,-0.89,-0.11,0.13,0.08,-11.05,-41.47,-4.80
6654,-7.08,-6.40,-0.89,-0.11,0.13,0.08,-11.05,-41.47,-4.80
6660,-6.62,-6.67,-0.71,-0.11,0.12,0.17,-11.05,-41.47,-4.80
6671,-6.62,-6.67,-0.71,-0.11,0.12,0.17,-11.05,-41.47,-4.80
6682,-8.91,-5.59,-1.01,-0.20,0.13,0.30,-11.22,-40.96,-7.65
6693,-8.43,-5.62,-1.32,0.00,0.19,0.14,-11.22,-40.96,-7.65
6704,-8.43,-5.62,-1.32,0.00,0.19,0.14,-11.22,-40.96,-7.65
6715,-8.39,-5.40,-1.12,-0.03,0.16,0.12,-11.22,-40.96,-7.65
6726,-8.39,-5.40,-1.12,-0.03,0.16,0.12,-11.22,-40.96,-7.65
6737,-8.39,-5.26,-0.57,-0.25,0.06,0.10,-11.22,-40.96,-7.65
6748,-8.39,-5.26,-0.57,-0.25,0.06,0.10,-11.22,-40.96,-7.65
6759,-8.22,-6.59,-0.83,-0.49,0.13,-0.01,-11.22,-40.96,-7.65
6770,-8.22,-6.59,-0.83,-0.49,0.13,-0.01,-11.22,-40.96,-7.65
6781,-8.21,-6.00,-2.84,-0.59,0.13,0.13,-11.22,-40.96,-7.65
6792,-7.62,-5.61,-2.06,-0.03,-0.06,0.33,-11.22,-40.96,-7.65
6803,-7.62,-5.61,-2.06,-0.03,-0.06,0.33,-11.22,-40.96,-7.65
6814,-7.54,-5.76,-1.61,0.22,-0.14,0.38,-13.07,-40.79,-10.12
6825,-7.54,-5.76,-1.61,0.22,-0.14,0.38,-13.07,-40.79,-10.12
6841,-7.29,-5.05,-0.63,0.11,-0.11,0.33,-13.07,-40.79,-10.12
6847,-7.29,-5.05,-0.63,0.11,-0.11,0.33,-13.07,-40.79,-10.12
6858,-7.66,-5.70,-1.82,-0.19,-0.04,0.05,-13.07,-40.79,-10.12
6869,-7.66,-5.70,-1.82,-0.19,-0.04,0.05,-13.07,-40.79,-10.12
6880,-7.58,-5.73,-2.38,-0.00,-0.09,-0.04,-13.07,-40.79,-10.12
6891,-7.58,-5.73,-2.38,-0.00,-0.09,-0.04,-13.07,-40.79,-10.12
6902,-7.87,-6.05,-0.35,0.27,-0.35,-0.09,-13.07,-40.79,-10.12
6914,-8.23,-5.75,-1.05,0.24,-0.30,-0.04,-13.07,-40.79,-10.12
6924,-8.23,-5.75,-1.05,0.24,-0.30,-0.04,-13.07,-40.79,-10.12
6935,-8.40,-5.20,-1.02,0.11,-0.20,0.01,-13.07,-40.10,-6.70
6946,-8.40,-5.20,-1.02,0.11,-0.20,0.01,-13.07,-40.10,-6.70
6957,-8.23,-5.58,-1.76,-0.08,-0.10,-0.01,-13.07,-40.10,-6.70
6968,-8.23,-5.58,-1.76,-0.08,-0.10,-0.01,-13.07,-40.10,-6.70
6979,-8.44,-5.55,-2.35,-0.01,-0.17,-0.03,-13.07,-40.10,-6.70
6990,-8.44,-5.55,-2.35,-0.01,-0.17,-0.03,-13.07,-40.10,-6.70
7001,-9.33,-4.69,-0.17,0.17,-0.26,-0.12,-13.07,-40.10,-6.70
7012,-9.33,-4.69,-0.17,0.17,-0.26,-0.12,-13.07,-40.10,-6.70
7023,-7.93,-5.47,0.17,0.02,0.05,-0.63,-13.07,-40.10,-6.70
7034,-6.05,-6.85,-1.59,-0.21,0.35,-0.93,-13.07,-40.10,-6.70
7045,-6.05,-6.85,-1.59,-0.21,0.35,-0.93,-13.07,-40.10,-6.70
7056,-5.64,-7.54,-0.53,-0.15,0.25,-0.76,-9.88,-41.30,-7.27
7067,-5.64,-7.54,-0.53,-0.15,0.25,-0.76,-9.88,-41.30,-7.27
7078,-5.63,-7.57,-1.19,-0.20,0.16,-0.24,-9.88,-41.30,-7.27
7089,-5.63,-7.57,-1.19,-0.20,0.16,-0.24,-9.88,-41.30,-7.27
7100,-6.54,-6.72,-0.48,-0.26,-0.00,0.34,-9.88,-41.30,-7.27
7111,-6.54,-6.72,-0.48,-0.26,-0.00,0.34,-9.88,-41.30,-7.27
7122,-12.06,-4.84,-1.28,-0.75,0.01,0.67,-9.88,-41.30,-7.27
7133,-9.30,-4.34,-2.32,-0.72,0.11,0.36,-9.88,-41.30,-7.27
7144,-9.30,-4.34,-2.32,-0.72,0.11,0.36,-9.88,-41.30,-7.27
7155,-8.44,-5.32,-1.61,-0.53,0.02,0.08,-9.88,-41.30,-7.27
7166,-8.44,-5.32,-1.61,-0.53,0.02,0.08,-9.88,-41.30,-7.27
7177,-8.45,-6.32,-1.80,-0.46,0.03,-0.01,-9.88,-41.30,-7.27
7188,-8.45,-6.32,-1.80,-0.46,0.03,-0.01,-9.88,-41.30,-7.27
7199,-8.61,-5.92,-1.60,0.13,-0.01,0.23,-11.89,-40.27,-10.31
7211,-8.61,-5.92,-1.60,0.13,-0.01,0.23,-11.89,-40.27,-10.31
7221,-8.03,-5.49,-1.45,0.43,0.03,0.40,-11.89,-40.27,-10.31
7232,-8.03,-5.49,-1.45,0.43,0.03,0.40,-11.89,-40.27,-10.31
7243,-8.26,-5.47,-1.80,0.16,-0.04,0.21,-11.89,-40.27,-10.31
7254,-7.79,-5.37,-0.83,-0.06,-0.04,-0.18,-11.89,-40.27,-10.31
7265,-7.79,-5.37,-0.83,-0.06,-0.04,-0.18,-11.89,-40.27,-10.31
7276,-6.43,-6.09,-2.24,-0.07,0.06,-0.38,-11.89,-40.27,-10.31
7287,-6.43,-6.09,-2.24,-0.07,0.06,-0.38,-11.89,-40.27,-10.31
7298,-6.70,-6.35,-1.76,0.16,-0.17,-0.21,-11.89,-40.27,-10.31
7309,-6.70,-6.35,-1.76,0.16,-0.17,-0.21,-11.89,-40.27,-10.31
7320,-6.65,-6.74,-0.94,0.34,-0.30,0.02,-11.72,-40.10,-9.74
7331,-6.65,-6.74,-0.94,0.34,-0.30,0.02,-11.72,-40.10,-9.74
7342,-7.06,-6.65,-0.66,0.14,-0.23,0.37,-11.72,-40.10,-9.74
7353,-10.34,-4.48,-0.81,-0.16,-0.05,0.52,-11.72,-40.10,-9.74
7364,-10.34,-4.48,-0.81,-0.16,-0.05,0.52,-11.72,-40.10,-9.74
7375,-8.59,-4.38,-1.99,-0.03,0.09,0.25,-11.72,-40.10,-9.74
7386,-8.59,-4.38,-1.99,-0.03,0.09,0.25,-11.72,-40.10,-9.74
7397,-8.08,-5.94,-1.61,0.22,0.02,0.10,-11.72,-40.10,-9.74
7408,-8.08,-5.94,-1.61,0.22,0.02,0.10,-11.72,-40.10,-9.74
7419,-7.81,-5.63,-1.22,0.20,-0.14,0.07,-11.72,-40.10,-9.74
7430,-7.81,-5.63,-1.22,0.20,-0.14,0.07,-11.72,-40.10,-9.74
7442,-7.96,-5.66,-1.64,0.11,-0.18,0.01,-13.57,-40.96,-8.79
7452,-7.96,-5.66,-1.64,0.11,-0.18,0.01,-13.57,-40.96,-8.79
7463,-7.94,-5.33,-1.11,0.09,-0.10,-0.03,-13.57,-40.96,-8.79
7474,-8.47,-5.53,-1.32,-0.20,0.02,-0.11,-13.57,-40.96,-8.79
7485,-8.47,-5.53,-1.32,-0.20,0.02,-0.11,-13.57,-40.96,-8.79
7496,-8.51,-5.74,-0.70,-0.29,0.17,-0.07,-13.57,-40.96,-8.79
7507,-8.51,-5.74,-0.70,-0.29,0.17,-0.07,-13.57,-40.96,-8.79
7518,-8.38,-5.79,-0.98,-0.24,0.34,0.07,-13.57,-40.96,-8.79
7529,-8.38,-5.79,-0.98,-0.24,0.34,0.07,-13.57,-40.96,-8.79
7540,-8.40,-5.89,-0.57,-0.16,0.28,0.17,-13.57,-40.96,-8.79
7551,-8.40,-5.89,-0.57,-0.16,0.28,0.17,-13.57,-40.96,-8.79
7562,-8.09,-5.71,-1.36,-0.12,0.18,0.27,-12.06,-39.76,-11.64
7573,-7.94,-5.53,-1.84,-0.10,0.01,0.26,-12.06,-39.76,-11.64
7584,-7.94,-5.53,-1.84,-0.10,0.01,0.26,-12.06,-39.76,-11.64
7595,-7.93,-5.07,-2.03,-0.07,-0.15,0.17,-12.06,-39.76,-11.64
7606,-7.93,-5.07,-2.03,-0.07,-0.15,0.17,-12.06,-39.76,-11.64
7617,-7.79,-5.41,-1.93,0.04,-0.30,-0.01,-12.06,-39.76,-11.64
7628,-7.79,-5.41,-1.93,0.04,-0.30,-0.01,-12.06,-39.76,-11.64
7639,-8.33,-5.58,-0.17,0.02,-0.29,-0.17,-12.06,-39.76,-11.64
7650,-8.33,-5.58,-0.17,0.02,-0.29,-0.17,-12.06,-39.76,-11.64
7661,-8.38,-5.43,-1.01,-0.26,-0.13,-0.34,-12.06,-39.76,-11.64
7673,-8.38,-5.43,-1.01,-0.26,-0.13,-0.34,-12.06,-39.76,-11.64
7683,-7.18,-5.80,-2.14,-0.20,-0.12,-0.40,-12.06,-39.76,-11.64
7694,-7.32,-6.50,-1.07,-0.01,-0.32,-0.24,-12.73,-40.10,-8.98
7705,-7.32,-6.50,-1.07,-0.01,-0.32,-0.24,-12.73,-40.10,-8.98
7716,-7.45,-6.14,-1.28,-0.02,-0.27,0.03,-12.73,-40.10,-8.98
7727,-7.45,-6.14,-1.28,-0.02,-0.27,0.03,-12.73,-40.10,-8.98
7738,-8.82,-5.18,-1.94,-0.02,-0.11,0.11,-12.73,-40.10,-8.98
7749,-8.82,-5.18,-1.94,-0.02,-0.11,0.11,-12.73,-40.10,-8.98
7765,-8.54,-5.33,-1.70,0.16,-0.02,0.02,-12.73,-40.10,-8.98
7771,-8.54,-5.33,-1.70,0.16,-0.02,0.02,-12.73,-40.10,-8.98
7782,-8.36,-5.77,-0.88,0.21,0.12,0.04,-12.73,-40.10,-8.98
7793,-8.42,-5.61,-1.18,0.21,0.28,0.14,-12.73,-40.10,-8.98
7804,-8.42,-5.61,-1.18,0.21,0.28,0.14,-12.73,-40.10,-8.98
7815,-8.24,-5.50,-1.39,0.21,0.27,0.19,-13.74,-40.79,-8.98
7826,-8.24,-5.50,-1.39,0.21,0.27,0.19,-13.74,-40.79,-8.98
7837,-8.21,-5.44,-0.89,0.13,0.10,0.20,-13.74,-40.79,-8.98
7848,-8.21,-5.44,-0.89,0.13,0.10,0.20,-13.74,-40.79,-8.98
7859,-8.18,-5.45,-0.59,-0.02,-0.01,0.17,-13.74,-40.79,-8.98
7870,-8.18,-5.45,-0.59,-0.02,-0.01,0.17,-13.74,-40.79,-8.98
7881,-7.82,-5.25,-1.72,-0.02,-0.10,0.09,-13.74,-40.79,-8.98
7892,-7.82,-5.25,-1.72,-0.02,-0.10,0.09,-13.74,-40.79,-8.98
7904,-7.73,-5.90,-1.47,0.14,-0.27,-0.04,-13.74,-40.79,-8.98
7914,-7.53,-5.76,-0.64,0.22,-0.35,-0.14,-13.74,-40.79,-8.98
7925,-7.53,-5.76,-0.64,0.22,-0.35,-0.14,-13.74,-40.79,-8.98
7936,-8.03,-6.04,-1.04,0.22,-0.28,-0.21,-14.41,-39.76,-8.22
7947,-8.03,-6.04,-1.04,0.22,-0.28,-0.21,-14.41,-39.76,-8.22
7958,-7.93,-6.23,-1.31,0.28,-0.11,-0.18,-14.41,-39.76,-8.22
7969,-7.93,-6.23,-1.31,0.28,-0.11,-0.18,-14.41,-39.76,-8.22
7980,-8.30,-5.79,-1.59,0.23,0.02,-0.07,-14.41,-39.76,-8.22
7991,-8.30,-5.79,-1.59,0.23,0.02,-0.07,-14.41,-39.76,-8.22
8002,-8.42,-5.40,-0.53,0.26,0.05,0.02,-14.41,-39.76,-8.22
8013,-8.42,-5.40,-0.53,0.26,0.05,0.02,-14.41,-39.76,-8.22
8024,-8.33,-5.71,-0.70,0.03,0.11,0.06,-14.41,-39.76,-8.22
8035,-8.48,-5.08,-0.55,-0.21,0.06,0.14,-14.41,-39.76,-8.22
8046,-8.48,-5.08,-0.55,-0.21,0.06,0.14,-14.41,-39.76,-8.22
8057,-8.47,-5.32,-0.85,-0.22,0.01,0.17,-14.41,-39.76,-8.22
8068,-8.47,-5.32,-0.85,-0.22,0.01,0.17,-14.41,-39.76,-8.22
8079,-7.90,-4.70,-1.87,-0.22,-0.12,0.16,-12.56,-39.93,-8.79
8090,-7.90,-4.70,-1.87,-0.22,-0.12,0.16,-12.56,-39.93,-8.79
8101,-7.65,-6.12,-1.63,0.05,-0.22,0.01,-12.56,-39.93,-8.79
8112,-7.65,-6.12,-1.63,0.05,-0.22,0.01,-12.56,-39.93,-8.79
8123,-7.85,-5.71,-0.21,0.22,-0.25,-0.05,-12.56,-39.93,-8.79
8134,-7.68,-6.33,-0.12,0.24,-0.18,-0.13,-12.56,-39.93,-8.79
8145,-7.68,-6.33,-0.12,0.24,-0.18,-0.13,-12.56,-39.93,-8.79
8156,-7.96,-6.15,-0.57,0.01,-0.11,-0.14,-12.56,-39.93,-8.79
8167,-7.96,-6.15,-0.57,0.01,-0.11,-0.14,-12.56,-39.93,-8.79
8178,-7.88,-5.85,-1.72,-0.08,0.03,-0.12,-12.56,-39.93,-8.79
8189,-7.88,-5.85,-1.72,-0.08,0.03,-0.12,-12.56,-39.93,-8.79
8200,-8.32,-5.63,-1.34,0.05,0.01,-0.06,-14.07,-40.10,-6.70
8211,-8.32,-5.63,-1.34,0.05,0.01,-0.06,-14.07,-40.10,-6.70
8222,-8.50,-5.30,-0.58,0.11,-0.01,-0.01,-14.07,-40.10,-6.70
8233,-8.50,-5.30,-0.58,0.11,-0.01,-0.01,-14.07,-40.10,-6.70
8244,-8.38,-5.49,0.23,0.01,0.02,0.03,-14.07,-40.10,-6.70
8255,-8.43,-5.71,-0.65,-0.21,0.09,0.09,-14.07,-40.10,-6.70
8266,-8.43,-5.71,-0.65,-0.21,0.09,0.09,-14.07,-40.10,-6.70
8277,-8.44,-5.33,-1.40,-0.30,0.03,0.18,-14.07,-40.10,-6.70
8288,-8.44,-5.33,-1.40,-0.30,0.03,0.18,-14.07,-40.10,-6.70
8299,-8.07,-5.03,-1.41,-0.27,-0.13,0.19,-14.07,-40.10,-6.70
8310,-8.07,-5.03,-1.41,-0.27,-0.13,0.19,-14.07,-40.10,-6.70
8326,-7.75,-5.75,-0.91,0.04,-0.20,0.11,-15.41,-39.08,-7.84
8332,-7.75,-5.75,-0.91,0.04,-0.20,0.11,-15.41,-39.08,-7.84
8343,-7.73,-5.79,-0.91,0.30,-0.15,0.03,-15.41,-39.08,-7.84
8354,-7.70,-5.58,-0.95,0.38,-0.14,-0.06,-15.41,-39.08,-7.84
8365,-7.70,-5.58,-0.95,0.38,-0.14,-0.06,-15.41,-39.08,-7.84
8376,-7.81,-6.06,-0.08,0.32,-0.19,-0.19,-15.41,-39.08,-7.84
8387,-7.81,-6.06,-0.08,0.32,-0.19,-0.19,-15.41,-39.08,-7.84
8398,-8.39,-6.01,-0.17,0.11,-0.03,-0.19,-15.41,-39.08,-7.84
8409,-8.39,-6.01,-0.17,0.11,-0.03,-0.19,-15.41,-39.08,-7.84
8420,-8.61,-5.28,-1.67,0.06,0.07,-0.06,-15.41,-39.08,-7.84
8431,-8.61,-5.28,-1.67,0.06,0.07,-0.06,-15.41,-39.08,-7.84
8442,-8.41,-4.97,-0.80,0.22,-0.03,0.02,-15.41,-39.08,-7.84
8453,-8.41,-4.97,-0.80,0.22,-0.03,0.02,-15.41,-39.08,-7.84
8464,-8.39,-6.22,0.08,0.10,-0.07,0.03,-13.91,-40.61,-6.89
8475,-8.34,-5.99,-0.02,-0.11,-0.03,0.16,-13.91,-40.61,-6.89
8486,-8.34,-5.99,-0.02,-0.11,-0.03,0.16,-13.91,-40.61,-6.89
8497,-8.07,-5.81,-0.88,-0.27,0.00,0.24,-13.91,-40.61,-6.89
8508,-8.07,-5.81,-0.88,-0.27,0.00,0.24,-13.91,-40.61,-6.89
8519,-7.99,-5.76,-0.46,-0.14,-0.06,0.23,-13.91,-40.61,-6.89
8530,-7.99,-5.76,-0.46,-0.14,-0.06,0.23,-13.91,-40.61,-6.89
8541,-8.40,-5.34,0.87,-0.06,-0.18,0.14,-13.91,-40.61,-6.89
8552,-8.40,-5.34,0.87,-0.06,-0.18,0.14,-13.91,-40.61,-6.89
8563,-9.58,-5.25,1.39,-0.45,-0.08,-0.16,-13.91,-40.61,-6.89
8574,-7.59,-5.27,-1.96,-0.64,0.22,-0.51,-12.40,-40.79,-7.46
8585,-7.59,-5.27,-1.96,-0.64,0.22,-0.51,-12.40,-40.79,-7.46
8596,-6.51,-6.59,-1.49,-0.18,0.10,-0.46,-12.40,-40.79,-7.46
8607,-6.51,-6.59,-1.49,-0.18,0.10,-0.46,-12.40,-40.79,-7.46
8618,-7.42,-5.78,-1.18,0.12,0.02,-0.05,-12.40,-40.79,-7.46
8629,-7.42,-5.78,-1.18,0.12,0.02,-0.05,-12.40,-40.79,-7.46
8640,-7.64,-5.94,-1.04,0.18,-0.01,0.12,-12.40,-40.79,-7.46
8651,-7.64,-5.94,-1.04,0.18,-0.01,0.12,-12.40,-40.79,-7.46
8662,-8.26,-5.66,-0.61,0.05,-0.05,0.22,-12.40,-40.79,-7.46
8673,-8.26,-5.66,-0.61,0.05,-0.05,0.22,-12.40,-40.79,-7.46
8684,-8.39,-5.09,-1.41,-0.08,0.01,0.22,-12.40,-40.79,-7.46
8695,-8.52,-4.65,-1.92,-0.07,0.04,0.20,-14.91,-40.61,-8.03
8706,-8.52,-4.65,-1.92,-0.07,0.04,0.20,-14.91,-40.61,-8.03
8717,-8.50,-3.86,-2.65,0.02,0.11,0.17,-14.91,-40.61,-8.03
8728,-8.50,-3.86,-2.65,0.02,0.11,0.17,-14.91,-40.61,-8.03
8739,-7.60,-6.24,-0.47,0.27,-0.03,0.01,-14.91,-40.61,-8.03
8750,-7.60,-6.24,-0.47,0.27,-0.03,0.01,-14.91,-40.61,-8.03
8761,-9.19,-6.06,0.28,0.14,-0.05,0.16,-14.91,-40.61,-8.03
8772,-9.19,-6.06,0.28,0.14,-0.05,0.16,-14.91,-40.61,-8.03
8783,-8.35,-6.17,-0.45,-0.01,0.03,0.13,-14.91,-40.61,-8.03
8794,-9.00,-5.15,0.26,-0.15,0.08,0.19,-14.91,-40.61,-8.03
8805,-9.00,-5.15,0.26,-0.15,0.08,0.19,-14.91,-40.61,-8.03
8816,-8.77,-5.43,-1.49,-0.14,0.14,0.22,-15.41,-39.42,-8.22
8827,-8.77,-5.43,-1.49,-0.14,0.14,0.22,-15.41,-39.42,-8.22
8838,-8.33,-4.91,-1.09,0.11,-0.05,0.31,-15.41,-39.42,-8.22
8849,-8.33,-4.91,-1.09,0.11,-0.05,0.31,-15.41,-39.42,-8.22
8860,-7.92,-5.21,-0.42,0.32,-0.19,0.24,-15.41,-39.42,-8.22
8871,-7.92,-5.21,-0.42,0.32,-0.19,0.24,-15.41,-39.42,-8.22
8883,-7.72,-5.50,-0.46,0.39,-0.18,0.08,-15.41,-39.42,-8.22
8893,-7.72,-5.50,-0.46,0.39,-0.18,0.08,-15.41,-39.42,-8.22
8904,-7.74,-5.48,-0.02,0.25,-0.17,-0.10,-15.41,-39.42,-8.22
8915,-8.23,-5.60,-1.04,0.01,-0.06,-0.21,-15.41,-39.42,-8.22
8926,-8.23,-5.60,-1.04,0.01,-0.06,-0.21,-15.41,-39.42,-8.22
8937,-8.31,-5.58,-0.67,-0.12,0.06,-0.23,-15.41,-39.42,-8.22
8948,-8.31,-5.58,-0.67,-0.12,0.06,-0.23,-15.41,-39.42,-8.22
8959,-8.72,-5.72,-1.40,-0.15,0.10,-0.17,-13.07,-39.42,-5.94
8970,-8.72,-5.72,-1.40,-0.15,0.10,-0.17,-13.07,-39.42,-5.94
8981,-8.91,-4.76,0.30,0.05,0.07,-0.04,-13.07,-39.42,-5.94
8992,-8.91,-4.76,0.30,0.05,0.07,-0.04,-13.07,-39.42,-5.94
9003,-8.73,-5.48,0.02,-0.00,0.19,-0.03,-13.07,-39.42,-5.94
9014,-7.81,-5.78,-1.07,-0.10,0.15,-0.01,-13.07,-39.42,-5.94
9025,-7.81,-5.78,-1.07,-0.10,0.15,-0.01,-13.07,-39.42,-5.94
9036,-7.13,-6.09,-1.28,-0.11,-0.06,0.14,-13.07,-39.42,-5.94
9047,-7.13,-6.09,-1.28,-0.11,-0.06,0.14,-13.07,-39.42,-5.94
9058,-8.32,-5.99,-0.82,-0.07,-0.16,0.24,-13.07,-39.42,-5.94
9069,-8.32,-5.99,-0.82,-0.07,-0.16,0.24,-13.07,-39.42,-5.94
9080,-8.34,-4.95,-0.40,-0.03,-0.15,0.23,-14.74,-39.42,-5.94
9091,-8.34,-4.95,-0.40,-0.03,-0.15,0.23,-14.74,-39.42,-5.94
9102,-8.28,-5.08,-1.07,-0.02,-0.08,0.13,-14.74,-39.42,-5.94
9113,-8.28,-5.08,-1.07,-0.02,-0.08,0.13,-14.74,-39.42,-5.94
9124,-8.13,-5.15,-0.69,0.10,-0.10,0.05,-14.74,-39.42,-5.94
9135,-8.04,-5.38,0.04,0.18,-0.16,-0.07,-14.74,-39.42,-5.94
9146,-8.04,-5.38,0.04,0.18,-0.16,-0.07,-14.74,-39.42,-5.94
9157,-8.09,-5.86,-0.40,0.15,-0.10,-0.16,-14.74,-39.42,-5.94
9168,-8.09,-5.86,-0.40,0.15,-0.10,-0.16,-14.74,-39.42,-5.94
9179,-8.64,-5.65,0.14,0.02,-0.03,-0.16,-14.74,-39.42,-5.94
9190,-8.64,-5.65,0.14,0.02,-0.03,-0.16,-14.74,-39.42,-5.94
9201,-8.49,-5.49,-2.17,-0.16,0.18,-0.12,-15.08,-40.79,-8.60
9212,-8.49,-5.49,-2.17,-0.16,0.18,-0.12,-15.08,-40.79,-8.60
9223,-8.61,-5.04,-1.33,0.03,0.15,-0.03,-15.08,-40.79,-8.60
9234,-8.61,-5.04,-1.33,0.03,0.15,-0.03,-15.08,-40.79,-8.60
9245,-8.39,-5.46,-0.74,0.14,0.11,0.01,-15.08,-40.79,-8.60
9256,-8.64,-5.60,0.01,0.10,-0.03,0.09,-15.08,-40.79,-8.60
9267,-8.64,-5.60,0.01,0.10,-0.03,0.09,-15.08,-40.79,-8.60
9278,-8.54,-5.80,0.29,0.02,-0.08,0.19,-15.08,-40.79,-8.60
9289,-8.54,-5.80,0.29,0.02,-0.08,0.19,-15.08,-40.79,-8.60
9300,-8.16,-5.09,-0.45,-0.15,-0.12,0.27,-15.08,-40.79,-8.60
9311,-8.16,-5.09,-0.45,-0.15,-0.12,0.27,-15.08,-40.79,-8.60
9322,-7.90,-5.39,-1.12,-0.13,-0.17,0.20,-15.08,-40.79,-8.60
9333,-7.90,-5.39,-1.12,-0.13,-0.17,0.20,-15.08,-40.79,-8.60
9344,-8.00,-5.75,-0.75,0.05,-0.22,0.04,-14.41,-40.10,-5.94
9355,-7.87,-5.46,-0.34,0.22,-0.21,-0.09,-14.41,-40.10,-5.94
9366,-7.87,-5.46,-0.34,0.22,-0.21,-0.09,-14.41,-40.10,-5.94
9377,-8.18,-5.75,-0.36,0.21,-0.17,-0.23,-14.41,-40.10,-5.94
9388,-8.18,-5.75,-0.36,0.21,-0.17,-0.23,-14.41,-40.10,-5.94
9399,-7.72,-5.88,-0.64,0.24,-0.06,-0.29,-14.41,-40.10,-5.94
9410,-7.72,-5.88,-0.64,0.24,-0.06,-0.29,-14.41,-40.10,-5.94
9421,-8.57,-5.91,-0.56,0.25,-0.04,-0.21,-14.41,-40.10,-5.94
9432,-8.57,-5.91,-0.56,0.25,-0.04,-0.21,-14.41,-40.10,-5.94
9443,-8.47,-5.39,-0.47,0.25,-0.05,-0.07,-14.41,-40.10,-5.94
9454,-8.47,-5.39,-0.47,0.25,-0.05,-0.07,-14.41,-40.10,-5.94
9465,-8.55,-5.47,-0.02,0.22,-0.11,0.02,-13.91,-39.93,-5.75
9476,-8.98,-5.32,0.92,0.10,-0.12,0.15,-13.91,-39.93,-5.75
9487,-8.98,-5.32,0.92,0.10,-0.12,0.15,-13.91,-39.93,-5.75
9498,-8.22,-5.73,-0.15,-0.02,-0.04,0.27,-13.91,-39.93,-5.75
9509,-8.22,-5.73,-0.15,-0.02,-0.04,0.27,-13.91,-39.93,-5.75
9520,-8.19,-5.24,-0.76,-0.19,-0.02,0.33,-13.91,-39.93,-5.75
9531,-8.19,-5.24,-0.76,-0.19,-0.02,0.33,-13.91,-39.93,-5.75
9542,-7.92,-4.63,-0.80,-0.03,-0.00,0.25,-13.91,-39.93,-5.75
9553,-7.92,-4.63,-0.80,-0.03,-0.00,0.25,-13.91,-39.93,-5.75
9564,-8.03,-5.94,-0.96,0.16,-0.00,0.03,-13.91,-39.93,-5.75
9575,-8.03,-4.69,0.54,0.27,-0.01,-0.02,-14.91,-40.27,-5.75
9586,-8.03,-4.69,0.54,0.27,-0.01,-0.02,-14.91,-40.27,-5.75
9597,-8.03,-5.74,0.18,0.08,0.09,-0.23,-14.91,-40.27,-5.75
9608,-8.03,-5.74,0.18,0.08,0.09,-0.23,-14.91,-40.27,-5.75
9619,-8.34,-5.72,-0.64,-0.13,0.08,-0.24,-14.91,-40.27,-5.75
9630,-8.34,-5.72,-0.64,-0.13,0.08,-0.24,-14.91,-40.27,-5.75
9641,-8.54,-5.25,-0.73,-0.03,-0.09,-0.11,-14.91,-40.27,-5.75
9652,-8.54,-5.25,-0.73,-0.03,-0.09,-0.11,-14.91,-40.27,-5.75
9663,-8.82,-5.11,0.40,-0.04,-0.17,-0.03,-14.91,-40.27,-5.75
9674,-8.82,-5.11,0.40,-0.04,-0.17,-0.03,-14.91,-40.27,-5.75
9685,-8.59,-6.01,0.48,-0.22,-0.11,0.08,-14.91,-40.27,-5.75
9696,-8.36,-5.23,0.53,-0.32,-0.08,0.24,-14.91,-40.27,-5.75
9707,-8.36,-5.23,0.53,-0.32,-0.08,0.24,-14.91,-40.27,-5.75
9718,-8.08,-5.62,-0.36,-0.50,0.01,0.26,-16.25,-39.25,-5.75
9729,-8.08,-5.62,-0.36,-0.50,0.01,0.26,-16.25,-39.25,-5.75
9740,-7.93,-4.74,-1.13,-0.51,0.04,0.20,-16.25,-39.25,-5.75
9751,-7.93,-4.74,-1.13,-0.51,0.04,0.20,-16.25,-39.25,-5.75
9762,-7.78,-5.45,-1.21,-0.16,-0.06,-0.01,-16.25,-39.25,-5.75
9773,-7.78,-5.45,-1.21,-0.16,-0.06,-0.01,-16.25,-39.25,-5.75
9784,-7.87,-5.53,-0.22,0.08,-0.25,-0.16,-16.25,-39.25,-5.75
9795,-8.37,-5.50,-0.24,0.13,-0.24,-0.23,-16.25,-39.25,-5.75
9806,-8.37,-5.50,-0.24,0.13,-0.24,-0.23,-16.25,-39.25,-5.75
9817,-8.47,-5.39,-1.02,0.15,-0.13,-0.25,-16.25,-39.25,-5.75
9828,-8.47,-5.39,-1.02,0.15,-0.13,-0.25,-16.25,-39.25,-5.75
9839,-8.82,-5.37,-0.09,0.19,-0.03,-0.18,-16.09,-40.44,-6.70
9850,-8.82,-5.37,-0.09,0.19,-0.03,-0.18,-16.09,-40.44,-6.70
9861,-8.71,-5.42,0.28,0.23,0.11,-0.05,-16.09,-40.44,-6.70
9872,-8.71,-5.42,0.28,0.23,0.11,-0.05,-16.09,-40.44,-6.70
9883,-8.49,-5.53,0.77,0.19,0.13,0.05,-16.09,-40.44,-6.70
9894,-8.49,-5.53,0.77,0.19,0.13,0.05,-16.09,-40.44,-6.70
9905,-8.68,-5.78,-0.51,-0.02,0.12,0.15,-16.09,-40.44,-6.70
9916,-8.31,-5.37,-0.75,-0.01,-0.05,0.28,-16.09,-40.44,-6.70
9927,-8.31,-5.37,-0.75,-0.01,-0.05,0.28,-16.09,-40.44,-6.70
9938,-8.06,-4.84,0.07,0.02,-0.19,0.28,-16.09,-40.44,-6.70
9949,-8.06,-4.84,0.07,0.02,-0.19,0.28,-16.09,-40.44,-6.70
9960,-7.99,-5.25,-0.56,0.14,-0.15,0.12,-14.91,-40.27,-6.51
9971,-7.99,-5.25,-0.56,0.14,-0.15,0.12,-14.91,-40.27,-6.51
9982,-7.89,-5.26,-0.45,0.36,-0.12,0.00,-14.91,-40.27,-6.51
9993,-7.89,-5.26,-0.45,0.36,-0.12,0.00,-14.91,-40.27,-6.51
10004,-7.93,-5.51,0.47,0.36,-0.16,-0.15,-14.91,-40.27,-6.51
10015,-8.30,-6.02,0.19,0.20,-0.09,-0.24,-14.91,-40.27,-6.51
10026,-8.30,-6.02,0.19,0.20,-0.09,-0.24,-14.91,-40.27,-6.51
10037,-8.38,-5.40,-0.82,0.11,-0.05,-0.16,-14.91,-40.27,-6.51
10048,-8.38,-5.40,-0.82,0.11,-0.05,-0.16,-14.91,-40.27,-6.51
10059,-8.69,-5.61,0.45,0.19,-0.14,-0.07,-14.91,-40.27,-6.51
10070,-8.69,-5.61,0.45,0.19,-0.14,-0.07,-14.91,-40.27,-6.51
10081,-8.57,-5.20,1.21,0.05,-0.05,0.01,-15.25,-41.30,-4.61
10092,-8.57,-5.20,1.21,0.05,-0.05,0.01,-15.25,-41.30,-4.61
10103,-8.68,-5.50,0.77,-0.27,0.10,0.06,-15.25,-41.30,-4.61
10114,-8.68,-5.50,0.77,-0.27,0.10,0.06,-15.25,-41.30,-4.61
10125,-8.43,-5.53,0.04,-0.41,0.16,0.19,-15.25,-41.30,-4.61
10136,-8.10,-5.04,-1.55,-0.53,0.07,0.26,-15.25,-41.30,-4.61
10147,-8.10,-5.04,-1.55,-0.53,0.07,0.26,-15.25,-41.30,-4.61
10158,-8.12,-4.70,-0.11,-0.14,-0.11,0.22,-15.25,-41.30,-4.61
10169,-8.12,-4.70,-0.11,-0.14,-0.11,0.22,-15.25,-41.30,-4.61
10180,-7.93,-5.84,-0.84,0.27,-0.11,0.06,-15.25,-41.30,-4.61
10192,-7.93,-5.84,-0.84,0.27,-0.11,0.06,-15.25,-41.30,-4.61
10202,-7.87,-5.09,0.17,0.52,-0.17,-0.01,-15.25,-41.30,-4.61
10213,-7.87,-5.09,0.17,0.52,-0.17,-0.01,-15.25,-41.30,-4.61
10224,-8.31,-5.43,0.21,0.45,-0.15,-0.18,-15.41,-39.42,-4.04
10235,-8.31,-5.43,0.21,0.45,-0.15,-0.18,-15.41,-39.42,-4.04
10246,-8.06,-5.38,0.95,0.22,-0.09,-0.24,-15.41,-39.42,-4.04
10257,-8.55,-5.51,0.29,-0.10,0.03,-0.21,-15.41,-39.42,-4.04
10268,-8.55,-5.51,0.29,-0.10,0.03,-0.21,-15.41,-39.42,-4.04
10279,-8.82,-5.50,0.38,-0.19,0.05,-0.10,-15.41,-39.42,-4.04
10290,-8.82,-5.50,0.38,-0.19,0.05,-0.10,-15.41,-39.42,-4.04
10301,-8.64,-5.11,0.66,-0.19,0.07,-0.00,-15.41,-39.42,-4.04
10312,-8.64,-5.11,0.66,-0.19,0.07,-0.00,-15.41,-39.42,-4.04
10323,-8.54,-5.77,-0.22,-0.27,0.06,0.08,-15.41,-39.42,-4.04
10334,-8.54,-5.77,-0.22,-0.27,0.06,0.08,-15.41,-39.42,-4.04
10345,-8.37,-5.41,-0.09,-0.17,-0.05,0.23,-14.74,-40.44,-3.28
10356,-8.20,-5.09,0.30,-0.03,-0.09,0.28,-14.74,-40.44,-3.28
10367,-8.20,-5.09,0.30,-0.03,-0.09,0.28,-14.74,-40.44,-3.28
10378,-7.96,-5.30,-0.25,0.10,-0.05,0.21,-14.74,-40.44,-3.28
10389,-7.96,-5.30,-0.25,0.10,-0.05,0.21,-14.74,-40.44,-3.28
10400,-8.06,-5.31,0.16,0.23,-0.09,0.08,-14.74,-40.44,-3.28
10411,-8.06,-5.31,0.16,0.23,-0.09,0.08,-14.74,-40.44,-3.28
10423,-8.16,-5.49,0.36,0.12,-0.12,-0.08,-14.74,-40.44,-3.28
10433,-8.16,-5.49,0.36,0.12,-0.12,-0.08,-14.74,-40.44,-3.28
10444,-8.10,-5.81,1.24,-0.03,-0.18,-0.20,-14.74,-40.44,-3.28
10455,-8.10,-5.81,1.24,-0.03,-0.18,-0.20,-14.74,-40.44,-3.28
10466,-7.74,-5.15,0.47,-0.17,-0.01,-0.31,-16.42,-40.44,-4.04
10477,-8.68,-5.49,1.18,-0.57,0.22,-0.43,-16.42,-40.44,-4.04
10488,-8.68,-5.49,1.18,-0.57,0.22,-0.43,-16.42,-40.44,-4.04
10499,-8.84,-5.55,-1.87,-0.79,0.30,-0.25,-16.42,-40.44,-4.04
10510,-8.84,-5.55,-1.87,-0.79,0.30,-0.25,-16.42,-40.44,-4.04
10521,-8.90,-4.64,-0.20,-0.36,0.05,-0.00,-16.42,-40.44,-4.04
10532,-8.90,-4.64,-0.20,-0.36,0.05,-0.00,-16.42,-40.44,-4.04
10543,-8.98,-6.31,0.58,-0.28,0.03,0.06,-16.42,-40.44,-4.04
10554,-8.98,-6.31,0.58,-0.28,0.03,0.06,-16.42,-40.44,-4.04
10565,-8.43,-5.75,-0.10,-0.31,0.11,0.32,-16.42,-40.44,-4.04
10576,-8.39,-5.39,-0.68,-0.23,0.04,0.47,-16.42,-40.44,-4.04
10587,-8.39,-5.39,-0.68,-0.23,0.04,0.47,-16.42,-40.44,-4.04
10598,-8.02,-5.62,-1.38,-0.06,-0.09,0.47,-16.09,-39.76,-7.46
10609,-8.02,-5.62,-1.38,-0.06,-0.09,0.47,-16.09,-39.76,-7.46
10620,-8.01,-4.51,0.08,0.26,-0.27,0.40,-16.09,-39.76,-7.46
10631,-8.01,-4.51,0.08,0.26,-0.27,0.40,-16.09,-39.76,-7.46
10642,-7.91,-5.45,-0.33,0.49,-0.25,0.16,-16.09,-39.76,-7.46
10653,-7.91,-5.45,-0.33,0.49,-0.25,0.16,-16.09,-39.76,-7.46
10664,-7.90,-4.75,0.43,0.49,-0.23,0.01,-16.09,-39.76,-7.46
10675,-7.90,-4.75,0.43,0.49,-0.23,0.01,-16.09,-39.76,-7.46
10686,-8.44,-5.22,0.23,0.15,-0.21,-0.19,-16.09,-39.76,-7.46
10697,-8.90,-4.88,0.90,-0.03,-0.12,-0.25,-16.09,-39.76,-7.46
10708,-8.90,-4.88,0.90,-0.03,-0.12,-0.25,-16.09,-39.76,-7.46
10719,-9.39,-5.32,-0.37,-0.14,0.07,-0.34,-15.41,-40.10,-3.66
10730,-9.39,-5.32,-0.37,-0.14,0.07,-0.34,-15.41,-40.10,-3.66
10741,-9.37,-4.70,-0.26,0.03,0.19,-0.42,-15.41,-40.10,-3.66
10752,-9.37,-4.70,-0.26,0.03,0.19,-0.42,-15.41,-40.10,-3.66
10763,-7.52,-5.97,-0.49,0.21,0.36,-0.52,-15.41,-40.10,-3.66
10774,-7.52,-5.97,-0.49,0.21,0.36,-0.52,-15.41,-40.10,-3.66
10790,-6.49,-6.57,0.60,0.17,0.47,-0.31,-15.41,-40.10,-3.66
10796,-5.75,-7.41,0.84,0.02,0.41,0.12,-15.41,-40.10,-3.66
10807,-5.75,-7.41,0.84,0.02,0.41,0.12,-15.41,-40.10,-3.66
10818,-8.48,-6.23,1.34,-0.08,0.24,0.68,-15.41,-40.10,-3.66
10829,-8.48,-6.23,1.34,-0.08,0.24,0.68,-15.41,-40.10,-3.66
10840,-9.06,-3.79,-1.66,-0.33,0.13,0.39,-15.58,-39.59,-4.99
10851,-9.06,-3.79,-1.66,-0.33,0.13,0.39,-15.58,-39.59,-4.99
10862,-9.00,-5.27,-2.00,-0.06,-0.16,-0.08,-15.58,-39.59,-4.99
10873,-9.00,-5.27,-2.00,-0.06,-0.16,-0.08,-15.58,-39.59,-4.99
10884,-8.51,-4.47,-0.68,0.19,-0.43,-0.09,-15.58,-39.59,-4.99
10895,-8.51,-4.47,-0.68,0.19,-0.43,-0.09,-15.58,-39.59,-4.99
10906,-8.36,-5.64,0.75,0.29,-0.42,-0.14,-15.58,-39.59,-4.99
10917,-9.53,-5.42,1.31,0.21,-0.21,-0.15,-15.58,-39.59,-4.99
10928,-9.53,-5.42,1.31,0.21,-0.21,-0.15,-15.58,-39.59,-4.99
10939,-10.41,-3.20,-0.13,0.01,0.14,-0.41,-15.58,-39.59,-4.99
10950,-10.41,-3.20,-0.13,0.01,0.14,-0.41,-15.58,-39.59,-4.99
10961,-7.36,-5.90,-2.22,0.17,0.41,-0.94,-15.58,-39.59,-4.99
10972,-7.36,-5.90,-2.22,0.17,0.41,-0.94,-15.58,-39.59,-4.99
10983,-6.55,-6.80,0.94,0.41,0.38,-0.65,-12.06,-41.81,-2.90
10994,-6.55,-6.80,0.94,0.41,0.38,-0.65,-12.06,-41.81,-2.90
11005,-5.11,-7.70,1.36,0.14,0.55,-0.15,-12.06,-41.81,-2.90
11016,-4.89,-7.72,0.95,0.01,0.62,0.56,-12.06,-41.81,-2.90
11027,-4.89,-7.72,0.95,0.01,0.62,0.56,-12.06,-41.81,-2.90
11038,-15.09,-2.89,0.80,-0.13,0.50,1.22,-12.06,-41.81,-2.90
11049,-15.09,-2.89,0.80,-0.13,0.50,1.22,-12.06,-41.81,-2.90
11060,-8.33,-4.91,-2.52,-0.00,0.35,0.35,-12.06,-41.81,-2.90
11071,-8.33,-4.91,-2.52,-0.00,0.35,0.35,-12.06,-41.81,-2.90
11082,-8.68,-4.05,-1.19,-0.16,-0.03,0.08,-12.06,-41.81,-2.90
11093,-8.68,-4.05,-1.19,-0.16,-0.03,0.08,-12.06,-41.81,-2.90
11104,-8.53,-5.77,0.44,-0.03,-0.16,-0.12,-14.41,-40.44,-4.80
11115,-8.53,-5.77,0.44,-0.03,-0.16,-0.12,-14.41,-40.44,-4.80
11126,-9.84,-6.86,0.20,-0.01,-0.19,-0.17,-14.41,-40.44,-4.80
11138,-13.58,-0.98,-0.18,-0.37,-0.33,-0.39,-14.41,-40.44,-4.80
11148,-13.58,-0.98,-0.18,-0.37,-0.33,-0.39,-14.41,-40.44,-4.80
11159,-6.63,-4.76,-4.23,-0.13,-0.04,-1.49,-14.41,-40.44,-4.80
11170,-6.63,-4.76,-4.23,-0.13,-0.04,-1.49,-14.41,-40.44,-4.80
11181,-7.09,-6.86,-1.23,0.57,-0.33,-1.27,-14.41,-40.44,-4.80
11192,-7.09,-6.86,-1.23,0.57,-0.33,-1.27,-14.41,-40.44,-4.80
11203,-6.28,-6.10,1.95,0.72,-0.35,-0.86,-14.41,-40.44,-4.80
11214,-6.28,-6.10,1.95,0.72,-0.35,-0.86,-14.41,-40.44,-4.80
11225,-5.25,-8.13,0.61,0.50,-0.10,-0.71,-13.07,-43.18,-5.18
11236,-5.25,-8.13,0.61,0.50,-0.10,-0.71,-13.07,-43.18,-5.18
11247,-6.01,-7.44,1.97,0.49,-0.32,-0.24,-13.07,-43.18,-5.18
11258,-7.09,-6.91,0.96,0.23,-0.14,0.06,-13.07,-43.18,-5.18
11269,-7.09,-6.91,0.96,0.23,-0.14,0.06,-13.07,-43.18,-5.18
11280,-7.72,-6.33,0.13,0.09,0.03,0.21,-13.07,-43.18,-5.18
11291,-7.72,-6.33,0.13,0.09,0.03,0.21,-13.07,-43.18,-5.18
11302,-8.10,-5.92,0.00,0.09,0.02,0.20,-13.07,-43.18,-5.18
11313,-8.10,-5.92,0.00,0.09,0.02,0.20,-13.07,-43.18,-5.18
11324,-7.93,-6.22,0.25,0.16,-0.03,0.11,-13.07,-43.18,-5.18
11335,-7.93,-6.22,0.25,0.16,-0.03,0.11,-13.07,-43.18,-5.18
11346,-7.72,-6.29,0.91,0.15,-0.08,0.07,-12.06,-42.84,-1.38
11357,-7.66,-5.87,0.93,0.05,-0.08,0.06,-12.06,-42.84,-1.38
11368,-7.66,-5.87,0.93,0.05,-0.08,0.06,-12.06,-42.84,-1.38
11379,-7.52,-6.34,1.38,0.08,-0.19,0.00,-12.06,-42.84,-1.38
11390,-7.52,-6.34,1.38,0.08,-0.19,0.00,-12.06,-42.84,-1.38
11401,-7.55,-6.02,2.22,0.23,-0.31,-0.00,-12.06,-42.84,-1.38
11412,-7.55,-6.02,2.22,0.23,-0.31,-0.00,-12.06,-42.84,-1.38
11423,-7.17,-5.80,1.23,0.39,-0.28,-0.02,-12.06,-42.84,-1.38
11434,-7.17,-5.80,1.23,0.39,-0.28,-0.02,-12.06,-42.84,-1.38
11445,-7.93,-5.57,0.42,0.69,-0.32,0.01,-12.06,-42.84,-1.38
11456,-7.93,-5.57,0.42,0.69,-0.32,0.01,-12.06,-42.84,-1.38
11467,-8.51,-5.10,1.31,1.18,-0.54,-0.10,-12.06,-42.84,-1.38
11478,-7.17,-5.58,1.35,1.41,-0.75,-0.43,-12.06,-42.84,0.52
11489,-7.17,-5.58,1.35,1.41,-0.75,-0.43,-12.06,-42.84,0.52
11500,-7.96,-5.15,1.69,0.97,-0.52,-0.57,-12.06,-42.84,0.52
11511,-7.96,-5.15,1.69,0.97,-0.52,-0.57,-12.06,-42.84,0.52
11522,-8.61,-5.93,0.47,0.78,0.00,-0.58,-12.06,-42.84,0.52
11533,-8.61,-5.93,0.47,0.78,0.00,-0.58,-12.06,-42.84,0.52
11544,-9.59,-5.96,0.22,0.27,0.33,-0.49,-12.06,-42.84,0.52
11555,-9.59,-5.96,0.22,0.27,0.33,-0.49,-12.06,-42.84,0.52
11566,-8.82,-6.35,-0.68,0.02,0.57,-0.46,-12.06,-42.84,0.52
11577,-7.82,-6.55,0.51,0.15,0.57,-0.45,-12.06,-42.84,0.52
11588,-7.82,-6.55,0.51,0.15,0.57,-0.45,-12.06,-42.84,0.52
11599,-6.11,-7.61,0.66,0.25,0.58,-0.36,-9.88,-45.06,5.65
11610,-6.11,-7.61,0.66,0.25,0.58,-0.36,-9.88,-45.06,5.65
11621,-5.68,-7.56,1.67,0.24,0.51,0.01,-9.88,-45.06,5.65
11632,-5.68,-7.56,1.67,0.24,0.51,0.01,-9.88,-45.06,5.65
11643,-6.40,-7.51,2.95,-0.12,0.61,0.40,-9.88,-45.06,5.65
11654,-6.40,-7.51,2.95,-0.12,0.61,0.40,-9.88,-45.06,5.65
11665,-7.11,-7.41,3.05,-0.90,0.67,0.43,-9.88,-45.06,5.65
11676,-7.11,-7.41,3.05,-0.90,0.67,0.43,-9.88,-45.06,5.65
11687,-6.13,-7.88,2.09,-1.27,0.63,0.27,-9.88,-45.06,5.65
11699,-5.78,-7.94,1.56,-1.32,0.46,0.35,-9.88,-45.06,5.65
11709,-5.78,-7.94,1.56,-1.32,0.46,0.35,-9.88,-45.06,5.65
11720,-7.14,-6.73,1.30,-1.28,0.32,0.55,-11.22,-43.69,-1.95
11731,-7.14,-6.73,1.30,-1.28,0.32,0.55,-11.22,-43.69,-1.95
11742,-8.59,-5.19,-0.10,-1.24,0.45,0.59,-11.22,-43.69,-1.95
11753,-8.59,-5.19,-0.10,-1.24,0.45,0.59,-11.22,-43.69,-1.95
11764,-7.82,-5.94,-0.57,-0.99,0.50,0.43,-11.22,-43.69,-1.95
11775,-7.82,-5.94,-0.57,-0.99,0.50,0.43,-11.22,-43.69,-1.95
11786,-7.79,-5.68,-0.29,-0.92,0.42,0.44,-11.22,-43.69,-1.95
11797,-7.93,-5.94,-0.37,-0.89,0.44,0.48,-11.22,-43.69,-1.95
11808,-7.93,-5.94,-0.37,-0.89,0.44,0.48,-11.22,-43.69,-1.95
11819,-8.22,-5.46,-1.16,-0.96,0.53,0.54,-11.22,-43.69,-1.95
11830,-8.22,-5.46,-1.16,-0.96,0.53,0.54,-11.22,-43.69,-1.95
11841,-8.05,-5.08,-1.88,-0.93,0.56,0.47,-11.22,-43.69,-1.95
11852,-8.05,-5.08,-1.88,-0.93,0.56,0.47,-11.22,-43.69,-1.95
11863,-7.91,-5.19,-2.46,-0.84,0.49,0.30,-12.56,-40.27,-8.79
11874,-7.91,-5.19,-2.46,-0.84,0.49,0.30,-12.56,-40.27,-8.79
11885,-7.92,-5.47,-2.14,-0.69,0.39,0.18,-12.56,-40.27,-8.79
11896,-7.92,-5.47,-2.14,-0.69,0.39,0.18,-12.56,-40.27,-8.79
11907,-7.91,-5.64,-2.02,-0.56,0.33,0.07,-12.56,-40.27,-8.79
11918,-8.18,-5.45,-1.68,-0.36,0.29,-0.03,-12.56,-40.27,-8.79
11929,-8.18,-5.45,-1.68,-0.36,0.29,-0.03,-12.56,-40.27,-8.79
11940,-7.85,-5.83,-1.53,-0.25,0.26,-0.13,-12.56,-40.27,-8.79
11951,-7.85,-5.83,-1.53,-0.25,0.26,-0.13,-12.56,-40.27,-8.79
11962,-7.56,-6.10,-1.66,-0.32,0.09,-0.21,-12.56,-40.27,-8.79
11974,-7.56,-6.10,-1.66,-0.32,0.09,-0.21,-12.56,-40.27,-8.79
11984,-7.88,-6.09,-1.09,-0.26,-0.08,-0.11,-11.72,-40.44,-10.88
12000,-7.88,-6.09,-1.09,-0.26,-0.08,-0.11,-11.72,-40.44,-10.88
12006,-8.86,-5.54,-1.15,-0.25,0.00,0.07,-11.72,-40.44,-10.88
12017,-8.95,-5.04,-1.68,-0.21,0.27,0.17,-11.72,-40.44,-10.88
12028,-8.95,-5.04,-1.68,-0.21,0.27,0.17,-11.72,-40.44,-10.88
12039,-8.56,-4.55,-2.87,-0.17,0.45,0.14,-11.72,-40.44,-10.88
12050,-8.56,-4.55,-2.87,-0.17,0.45,0.14,-11.72,-40.44,-10.88
12061,-7.31,-5.65,-2.62,-0.06,0.30,-0.00,-11.72,-40.44,-10.88
12072,-7.31,-5.65,-2.62,-0.06,0.30,-0.00,-11.72,-40.44,-10.88
12083,-6.96,-6.28,-1.67,-0.06,0.04,0.04,-11.72,-40.44,-10.88
12094,-6.96,-6.28,-1.67,-0.06,0.04,0.04,-11.72,-40.44,-10.88
12105,-6.61,-6.60,-1.33,-0.16,-0.11,0.21,-13.07,-39.42,-12.40
12116,-6.61,-6.60,-1.33,-0.16,-0.11,0.21,-13.07,-39.42,-12.40
12127,-7.97,-5.93,-1.62,-0.27,-0.14,0.43,-13.07,-39.42,-12.40
12138,-8.75,-5.86,-2.05,-0.26,0.06,0.21,-13.07,-39.42,-12.40
12149,-8.75,-5.86,-2.05,-0.26,0.06,0.21,-13.07,-39.42,-12.40
12160,-8.83,-4.24,-3.47,-0.16,0.18,0.04,-13.07,-39.42,-12.40
12171,-8.83,-4.24,-3.47,-0.16,0.18,0.04,-13.07,-39.42,-12.40
12182,-8.43,-4.88,-2.33,0.16,0.07,0.02,-13.07,-39.42,-12.40
12193,-8.43,-4.88,-2.33,0.16,0.07,0.02,-13.07,-39.42,-12.40
12204,-8.63,-5.21,-1.40,0.21,0.26,0.09,-13.07,-39.42,-12.40
12215,-8.63,-5.21,-1.40,0.21,0.26,0.09,-13.07,-39.42,-12.40
12226,-8.20,-5.56,-1.79,0.13,0.28,0.10,-13.07,-39.42,-12.40
12237,-7.87,-5.84,-0.82,0.09,0.05,0.05,-13.07,-39.42,-12.40
12248,-7.87,-5.84,-0.82,0.09,0.05,0.05,-10.55,-39.93,-12.97
12259,-8.11,-5.46,-2.03,-0.10,-0.07,-0.02,-10.55,-39.93,-12.97
12270,-8.11,-5.46,-2.03,-0.10,-0.07,-0.02,-10.55,-39.93,-12.97
12281,-8.09,-5.78,-2.42,-0.07,-0.30,-0.07,-10.55,-39.93,-12.97
12292,-8.09,-5.78,-2.42,-0.07,-0.30,-0.07,-10.55,-39.93,-12.97
12303,-8.05,-5.70,-2.51,0.07,-0.43,-0.04,-10.55,-39.93,-12.97
12314,-8.05,-5.70,-2.51,0.07,-0.43,-0.04,-10.55,-39.93,-12.97
12325,-8.31,-5.42,-3.34,0.17,-0.36,0.03,-10.55,-39.93,-12.97
12336,-8.31,-5.42,-3.34,0.17,-0.36,0.03,-10.55,-39.93,-12.97
12347,-8.23,-5.56,-2.04,0.40,-0.36,0.12,-10.55,-39.93,-12.97
12358,-7.99,-5.45,-0.20,0.50,-0.16,0.21,-12.90,-39.59,-11.83
12369,-7.99,-5.45,-0.20,0.50,-0.16,0.21,-12.90,-39.59,-11.83
12380,-8.17,-4.91,-0.94,0.27,0.24,0.14,-12.90,-39.59,-11.83
12391,-8.17,-4.91,-0.94,0.27,0.24,0.14,-12.90,-39.59,-11.83
12402,-8.23,-5.57,-1.64,0.02,0.24,-0.15,-12.90,-39.59,-11.83
12413,-8.23,-5.57,-1.64,0.02,0.24,-0.15,-12.90,-39.59,-11.83
12424,-7.82,-5.87,-1.40,0.06,0.08,-0.43,-12.90,-39.59,-11.83
12435,-7.82,-5.87,-1.40,0.06,0.08,-0.43,-12.90,-39.59,-11.83
12446,-6.58,-6.25,-2.39,0.41,-0.02,-0.48,-12.90,-39.59,-11.83
12457,-6.58,-6.25,-2.39,0.41,-0.02,-0.48,-12.90,-39.59,-11.83
12468,-7.95,-5.81,-1.51,0.42,-0.35,-0.20,-12.90,-39.59,-11.83
12479,-7.77,-5.81,-1.56,0.22,-0.34,0.03,-12.73,-38.74,-10.50
12490,-7.77,-5.81,-1.56,0.22,-0.34,0.03,-12.73,-38.74,-10.50
12501,-9.77,-4.88,-0.78,0.06,-0.26,0.24,-12.73,-38.74,-10.50
12512,-9.77,-4.88,-0.78,0.06,-0.26,0.24,-12.73,-38.74,-10.50
12523,-8.34,-5.69,-1.42,-0.13,-0.08,0.17,-12.73,-38.74,-10.50
12534,-8.34,-5.69,-1.42,-0.13,-0.08,0.17,-12.73,-38.74,-10.50
12545,-8.68,-5.61,-0.85,-0.25,0.00,0.22,-12.73,-38.74,-10.50
12556,-8.68,-5.61,-0.85,-0.25,0.00,0.22,-12.73,-38.74,-10.50
12567,-8.38,-5.44,-1.51,-0.29,0.04,0.27,-12.73,-38.74,-10.50
12578,-7.78,-4.99,-1.89,-0.17,-0.03,0.26,-12.73,-38.74,-10.50
12589,-7.78,-4.99,-1.89,-0.17,-0.03,0.26,-12.73,-38.74,-10.50
12600,-7.80,-5.37,-2.03,0.01,-0.10,0.08,-14.07,-39.42,-10.88
12611,-7.80,-5.37,-2.03,0.01,-0.10,0.08,-14.07,-39.42,-10.88
12622,-7.74,-5.48,-2.10,0.23,-0.18,-0.04,-14.07,-39.42,-10.88
12633,-7.74,-5.48,-2.10,0.23,-0.18,-0.04,-14.07,-39.42,-10.88
12644,-7.71,-5.78,-1.41,0.55,-0.26,-0.14,-14.07,-39.42,-10.88
12655,-7.71,-5.78,-1.41,0.55,-0.26,-0.14,-14.07,-39.42,-10.88
12666,-8.03,-5.62,-1.02,0.68,-0.25,-0.20,-14.07,-39.42,-10.88
12677,-8.03,-5.62,-1.02,0.68,-0.25,-0.20,-14.07,-39.42,-10.88
12688,-8.36,-5.78,-0.92,0.62,-0.05,-0.19,-14.07,-39.42,-10.88
12699,-8.46,-5.62,-1.50,0.27,0.02,-0.10,-14.07,-39.42,-10.88
12710,-8.46,-5.62,-1.50,0.27,0.02,-0.10,-14.07,-39.42,-10.88
12721,-8.44,-5.52,-0.15,0.17,-0.02,-0.01,-14.07,-39.42,-10.88
12732,-8.44,-5.52,-0.15,0.17,-0.02,-0.01,-14.07,-39.42,-10.88
12743,-8.78,-5.71,0.07,-0.19,0.01,0.03,-12.40,-39.42,-8.22
12754,-8.78,-5.71,0.07,-0.19,0.01,0.03,-12.40,-39.42,-8.22
12765,-8.44,-5.73,-1.08,-0.30,0.02,0.16,-12.40,-39.42,-8.22
12776,-8.44,-5.73,-1.08,-0.30,0.02,0.16,-12.40,-39.42,-8.22
12787,-8.09,-5.74,-0.56,-0.17,-0.09,0.25,-12.40,-39.42,-8.22
12798,-7.64,-5.70,-1.67,-0.27,-0.03,0.22,-12.40,-39.42,-8.22
12809,-7.64,-5.70,-1.67,-0.27,-0.03,0.22,-12.40,-39.42,-8.22
12820,-7.82,-5.47,-1.63,-0.07,-0.04,0.12,-12.40,-39.42,-8.22
12831,-7.82,-5.47,-1.63,-0.07,-0.04,0.12,-12.40,-39.42,-8.22
12842,-7.72,-5.54,-2.01,0.20,-0.06,0.01,-12.40,-39.42,-8.22
12853,-7.72,-5.54,-2.01,0.20,-0.06,0.01,-12.40,-39.42,-8.22
12864,-7.99,-5.70,-0.25,0.29,-0.16,-0.13,-13.07,-40.79,-8.98
12875,-7.99,-5.70,-0.25,0.29,-0.16,-0.13,-13.07,-40.79,-8.98
12887,-8.43,-5.85,-0.51,0.25,-0.00,-0.18,-13.07,-40.79,-8.98
12897,-8.43,-5.85,-0.51,0.25,-0.00,-0.18,-13.07,-40.79,-8.98
12908,-8.55,-5.28,-1.01,0.09,0.06,-0.09,-13.07,-40.79,-8.98
12919,-8.66,-5.15,-0.56,0.03,0.02,-0.02,-13.07,-40.79,-8.98
12930,-8.66,-5.15,-0.56,0.03,0.02,-0.02,-13.07,-40.79,-8.98
12941,-8.36,-6.18,-1.08,-0.21,0.01,0.02,-13.07,-40.79,-8.98
12952,-8.36,-6.18,-1.08,-0.21,0.01,0.02,-13.07,-40.79,-8.98
12963,-8.11,-6.02,-0.26,-0.26,-0.05,0.18,-13.07,-40.79,-8.98
12974,-8.11,-6.02,-0.26,-0.26,-0.05,0.18,-13.07,-40.79,-8.98
12985,-8.04,-6.12,-1.68,-0.52,0.00,0.23,-14.41,-37.71,-10.12
12996,-8.04,-6.12,-1.68,-0.52,0.00,0.23,-14.41,-37.71,-10.12
13007,-8.01,-4.98,-1.50,-0.48,-0.04,0.27,-14.41,-37.71,-10.12
13018,-8.86,-4.86,-1.54,-0.19,-0.06,0.13,-14.41,-37.71,-10.12
13029,-8.86,-4.86,-1.54,-0.19,-0.06,0.13,-14.41,-37.71,-10.12
13040,-9.29,-4.13,-0.51,-0.02,-0.11,-0.22,-14.41,-37.71,-10.12
13051,-9.29,-4.13,-0.51,-0.02,-0.11,-0.22,-14.41,-37.71,-10.12
13062,-7.04,-6.70,-0.55,0.17,-0.01,-0.72,-14.41,-37.71,-10.12
13073,-7.04,-6.70,-0.55,0.17,-0.01,-0.72,-14.41,-37.71,-10.12
13084,-6.24,-7.34,-0.52,0.24,-0.04,-0.60,-14.41,-37.71,-10.12
13095,-6.24,-7.34,-0.52,0.24,-0.04,-0.60,-14.41,-37.71,-10.12
13106,-7.46,-6.06,-0.68,0.31,-0.18,-0.12,-14.41,-37.71,-10.12
13117,-7.46,-6.06,-0.68,0.31,-0.18,-0.12,-14.41,-37.71,-10.12
13128,-8.57,-5.42,-1.08,0.22,-0.19,0.07,-13.07,-39.76,-8.98
13139,-8.39,-5.03,-1.31,0.07,-0.04,0.08,-13.07,-39.76,-8.98
13150,-8.39,-5.03,-1.31,0.07,-0.04,0.08,-13.07,-39.76,-8.98
13161,-8.01,-4.95,-1.75,-0.09,0.16,0.09,-13.07,-39.76,-8.98
13172,-8.01,-4.95,-1.75,-0.09,0.16,0.09,-13.07,-39.76,-8.98
13183,-7.94,-3.80,-2.94,0.00,0.34,0.03,-13.07,-39.76,-8.98
13194,-7.94,-3.80,-2.94,0.00,0.34,0.03,-13.07,-39.76,-8.98
13205,-7.52,-6.25,-0.63,0.67,0.25,-0.21,-13.07,-39.76,-8.98
13216,-7.52,-6.25,-0.63,0.67,0.25,-0.21,-13.07,-39.76,-8.98
13227,-10.04,-5.50,-0.61,0.38,0.11,0.01,-13.07,-39.76,-8.98
13238,-8.18,-6.01,-1.40,-0.07,0.07,0.03,-13.74,-40.44,-8.98
13249,-8.18,-6.01,-1.40,-0.07,0.07,0.03,-13.74,-40.44,-7.46
13260,-8.90,-5.18,-0.12,-0.37,0.01,0.07,-13.74,-40.44,-7.46
13271,-8.90,-5.18,-0.12,-0.37,0.01,0.07,-13.74,-40.44,-7.46
13282,-9.06,-6.37,-2.18,-0.51,0.07,0.12,-13.74,-40.44,-7.46
13293,-9.06,-6.37,-2.18,-0.51,0.07,0.12,-13.74,-40.44,-7.46
13304,-8.49,-5.32,-1.26,-0.25,-0.12,0.44,-13.74,-40.44,-7.46
13315,-8.49,-5.32,-1.26,-0.25,-0.12,0.44,-13.74,-40.44,-7.46
13326,-7.51,-6.08,-1.71,-0.10,-0.21,0.51,-13.74,-40.44,-7.46
13338,-7.51,-6.08,-1.71,-0.10,-0.21,0.51,-13.74,-40.44,-7.46
13348,-7.60,-5.19,-0.98,-0.04,-0.27,0.49,-13.74,-40.44,-7.46
13359,-7.56,-4.87,-1.01,0.14,-0.23,0.28,-13.57,-38.56,-9.93
13370,-7.56,-4.87,-1.01,0.14,-0.23,0.28,-13.57,-38.56,-9.93
13381,-7.76,-5.26,-1.24,0.34,-0.21,0.03,-13.57,-38.56,-9.93
13392,-7.76,-5.26,-1.24,0.34,-0.21,0.03,-13.57,-38.56,-9.93
13403,-7.81,-5.71,-0.68,0.60,-0.27,-0.17,-13.57,-38.56,-9.93
13414,-7.81,-5.71,-0.68,0.60,-0.27,-0.17,-13.57,-38.56,-9.93
13425,-7.93,-5.62,-0.35,0.65,-0.25,-0.31,-13.57,-38.56,-9.93
13436,-7.93,-5.62,-0.35,0.65,-0.25,-0.31,-13.57,-38.56,-9.93
13447,-8.67,-5.91,-0.54,0.43,-0.01,-0.35,-13.57,-38.56,-9.93
13458,-8.67,-5.91,-0.54,0.43,-0.01,-0.35,-13.57,-38.56,-9.93
13469,-8.82,-5.36,-1.22,0.23,0.08,-0.17,-13.57,-38.56,-9.93
13480,-8.75,-5.54,-0.22,0.25,0.03,-0.00,-13.57,-38.56,-9.93
13491,-8.75,-5.54,-0.22,0.25,0.03,-0.00,-13.57,-38.56,-9.93
13502,-8.51,-5.88,-0.16,0.10,0.00,0.14,-15.41,-40.44,-6.32
13513,-8.51,-5.88,-0.16,0.10,0.00,0.14,-15.41,-40.44,-6.32
13524,-7.89,-5.72,0.11,-0.11,-0.04,0.30,-15.41,-40.44,-6.32
13535,-7.89,-5.72,0.11,-0.11,-0.04,0.30,-15.41,-40.44,-6.32
13546,-7.86,-5.95,-0.57,-0.48,-0.03,0.31,-15.41,-40.44,-6.32
13557,-7.86,-5.95,-0.57,-0.48,-0.03,0.31,-15.41,-40.44,-6.32
13568,-7.93,-4.94,-0.89,-0.55,0.03,0.23,-15.41,-40.44,-6.32
13579,-7.81,-5.23,-0.98,-0.22,-0.02,0.03,-15.41,-40.44,-6.32
13591,-7.81,-5.23,-0.98,-0.22,-0.02,0.03,-15.41,-40.44,-6.32
13601,-7.89,-5.55,-0.70,-0.04,-0.13,-0.14,-15.41,-40.44,-6.32
13612,-7.89,-5.55,-0.70,-0.04,-0.13,-0.14,-15.41,-40.44,-6.32
13623,-8.25,-5.81,0.02,-0.01,-0.04,-0.24,-15.25,-38.91,-7.27
13634,-8.25,-5.81,0.02,-0.01,-0.04,-0.24,-15.25,-38.91,-7.27
13645,-8.56,-5.82,-1.15,-0.21,0.17,-0.20,-15.25,-38.91,-7.27
13656,-8.56,-5.82,-1.15,-0.21,0.17,-0.20,-15.25,-38.91,-7.27
13667,-8.52,-5.23,-1.68,-0.11,0.13,-0.06,-15.25,-38.91,-7.27
13678,-8.52,-5.23,-1.68,-0.11,0.13,-0.06,-15.25,-38.91,-7.27
13689,-8.73,-5.39,-1.78,0.03,-0.03,-0.00,-15.25,-38.91,-7.27
13700,-8.38,-6.03,-0.11,0.24,-0.22,0.12,-15.25,-38.91,-7.27
13711,-8.38,-6.03,-0.11,0.24,-0.22,0.12,-15.25,-38.91,-7.27
13722,-8.28,-5.98,0.10,0.14,-0.13,0.27,-15.25,-38.91,-7.27
13733,-8.28,-5.98,0.10,0.14,-0.13,0.27,-15.25,-38.91,-7.27
13744,-8.18,-5.14,-0.71,-0.01,0.12,0.31,-13.40,-39.42,-7.46
13755,-8.18,-5.14,-0.71,-0.01,0.12,0.31,-13.40,-39.42,-7.46
13766,-8.23,-5.49,-0.76,-0.07,0.23,0.20,-13.40,-39.42,-7.46
13777,-8.23,-5.49,-0.76,-0.07,0.23,0.20,-13.40,-39.42,-7.46
13788,-8.42,-5.48,-0.40,-0.19,0.30,0.08,-13.40,-39.42,-7.46
13799,-8.89,-5.01,-0.30,-0.39,0.28,-0.10,-13.40,-39.42,-7.46
13810,-8.89,-5.01,-0.30,-0.39,0.28,-0.10,-13.40,-39.42,-7.46
13821,-6.97,-5.97,-1.63,-0.21,0.11,-0.29,-13.40,-39.42,-7.46
13832,-6.97,-5.97,-1.63,-0.21,0.11,-0.29,-13.40,-39.42,-7.46
13843,-7.31,-6.45,0.30,0.15,-0.35,-0.20,-13.40,-39.42,-7.46
13854,-7.31,-6.45,0.30,0.15,-0.35,-0.20,-13.40,-39.42,-7.46
13865,-8.42,-5.69,-0.17,0.10,-0.38,-0.09,-14.91,-39.25,-8.41
13876,-8.42,-5.69,-0.17,0.10,-0.38,-0.09,-14.91,-39.25,-8.41
13887,-8.35,-5.38,-0.72,0.05,-0.20,-0.12,-14.91,-39.25,-8.41
13898,-8.35,-5.38,-0.72,0.05,-0.20,-0.12,-14.91,-39.25,-8.41
13909,-8.13,-5.36,-1.39,0.01,-0.03,-0.12,-14.91,-39.25,-8.41
13920,-7.97,-5.40,-1.50,-0.02,0.08,-0.04,-14.91,-39.25,-8.41
13931,-7.97,-5.40,-1.50,-0.02,0.08,-0.04,-14.91,-39.25,-8.41
13942,-7.94,-5.00,-1.61,-0.08,0.19,0.09,-14.91,-39.25,-8.41
13953,-7.94,-5.00,-1.61,-0.08,0.19,0.09,-14.91,-39.25,-8.41
13964,-7.66,-5.79,-1.63,-0.04,0.14,0.12,-14.91,-39.25,-8.41
13976,-7.66,-5.79,-1.63,-0.04,0.14,0.12,-14.91,-39.25,-8.41
13986,-9.11,-5.82,-0.55,-0.03,0.01,0.05,-14.91,-39.25,-8.41
13997,-9.11,-5.82,-0.55,-0.03,0.01,0.05,-14.91,-39.25,-8.41
14008,-8.58,-5.08,-1.30,-0.00,0.03,0.01,-14.58,-38.91,-8.03
14019,-8.86,-5.56,-0.20,-0.00,-0.02,0.03,-14.58,-38.91,-8.03
14030,-8.86,-5.56,-0.20,-0.00,-0.02,0.03,-14.58,-38.91,-8.03
14041,-8.76,-6.13,-0.79,-0.11,0.04,0.18,-14.58,-38.91,-8.03
14052,-8.76,-6.13,-0.79,-0.11,0.04,0.18,-14.58,-38.91,-8.03
14063,-8.34,-5.82,-1.16,-0.25,-0.04,0.42,-14.58,-38.91,-8.03
14074,-8.34,-5.82,-1.16,-0.25,-0.04,0.42,-14.58,-38.91,-8.03
14085,-8.24,-4.27,-0.85,-0.47,-0.10,0.47,-14.58,-38.91,-8.03
14096,-8.24,-4.27,-0.85,-0.47,-0.10,0.47,-14.58,-38.91,-8.03
14107,-7.71,-5.29,-1.59,-0.12,-0.11,0.24,-14.58,-38.91,-8.03
14118,-7.71,-5.29,-1.59,-0.12,-0.11,0.24,-14.58,-38.91,-8.03
14129,-7.87,-5.12,-0.70,0.19,-0.15,0.04,-15.41,-39.76,-7.84
14140,-7.80,-5.51,-0.30,0.34,-0.16,-0.15,-15.41,-39.76,-7.84
14151,-7.80,-5.51,-0.30,0.34,-0.16,-0.15,-15.41,-39.76,-7.84
14162,-8.45,-5.68,-0.45,0.25,-0.15,-0.28,-15.41,-39.76,-7.84
14173,-8.45,-5.68,-0.45,0.25,-0.15,-0.28,-15.41,-39.76,-7.84
14184,-8.64,-5.09,-1.60,-0.01,0.02,-0.24,-15.41,-39.76,-7.84
14195,-8.64,-5.09,-1.60,-0.01,0.02,-0.24,-15.41,-39.76,-7.84
14206,-8.89,-5.38,-1.32,0.12,-0.07,-0.12,-15.41,-39.76,-7.84
14217,-8.89,-5.38,-1.32,0.12,-0.07,-0.12,-15.41,-39.76,-7.84
14228,-8.62,-5.20,0.27,0.16,-0.11,0.01,-15.41,-39.76,-7.84
14239,-8.63,-5.93,0.10,-0.09,-0.01,0.09,-15.25,-39.93,-8.03
14250,-8.63,-5.93,0.10,-0.09,-0.01,0.09,-15.25,-39.93,-8.03
14261,-8.47,-5.40,0.25,-0.26,0.03,0.25,-15.25,-39.93,-8.03
14277,-8.47,-5.40,0.25,-0.26,0.03,0.25,-15.25,-39.93,-8.03
14283,-8.10,-5.67,-0.98,-0.57,0.11,0.28,-15.25,-39.93,-8.03
14294,-8.10,-5.67,-0.98,-0.57,0.11,0.28,-15.25,-39.93,-8.03
14305,-8.12,-4.33,-1.76,-0.67,0.11,0.24,-15.25,-39.93,-8.03
14316,-8.12,-4.33,-1.76,-0.67,0.11,0.24,-15.25,-39.93,-8.03
14327,-7.90,-4.58,-2.63,-0.20,-0.01,0.04,-15.25,-39.93,-8.03
14338,-7.90,-4.58,-2.63,-0.20,-0.01,0.04,-15.25,-39.93,-8.03
14349,-7.86,-5.35,-0.92,0.15,-0.25,-0.17,-15.25,-39.93,-8.03
14360,-8.43,-5.49,-0.34,0.19,-0.26,-0.29,-15.25,-39.93,-8.03
14371,-8.43,-5.49,-0.34,0.19,-0.26,-0.29,-15.25,-39.93,-8.03
14382,-8.67,-5.11,-1.22,-0.05,-0.02,-0.29,-15.75,-40.10,-8.22
14393,-8.67,-5.11,-1.22,-0.05,-0.02,-0.29,-15.75,-40.10,-8.22
14404,-8.88,-5.29,-1.16,-0.12,0.13,-0.21,-15.75,-40.10,-8.22
14415,-8.88,-5.29,-1.16,-0.12,0.13,-0.21,-15.75,-40.10,-8.22
14426,-8.79,-5.52,-0.50,-0.10,0.32,-0.06,-15.75,-40.10,-8.22
14437,-8.79,-5.52,-0.50,-0.10,0.32,-0.06,-15.75,-40.10,-8.22
14448,-8.59,-5.50,-0.96,-0.14,0.36,0.09,-15.75,-40.10,-8.22
14459,-8.23,-5.55,-1.06,-0.12,0.13,0.18,-15.75,-40.10,-8.22
14470,-8.23,-5.55,-1.06,-0.12,0.13,0.18,-15.75,-40.10,-8.22
14481,-8.02,-5.02,-1.56,-0.07,-0.08,0.17,-15.75,-40.10,-8.22
14492,-8.02,-5.02,-1.56,-0.07,-0.08,0.17,-15.75,-40.10,-8.22
14503,-8.25,-4.97,-1.41,0.02,-0.28,0.00,-14.58,-39.59,-9.93
14514,-8.25,-4.97,-1.41,0.02,-0.28,0.00,-14.58,-39.59,-9.93
14525,-8.46,-5.03,-0.62,0.18,-0.34,-0.15,-14.58,-39.59,-9.93
14536,-8.46,-5.03,-0.62,0.18,-0.34,-0.15,-14.58,-39.59,-9.93
14547,-7.94,-5.54,-0.91,0.23,-0.26,-0.37,-14.58,-39.59,-9.93
14558,-7.94,-5.54,-0.91,0.23,-0.26,-0.37,-14.58,-39.59,-9.93
14569,-7.26,-5.61,-1.40,0.30,-0.31,-0.49,-14.58,-39.59,-9.93
14580,-7.63,-6.06,0.21,0.67,-0.35,-0.48,-14.58,-39.59,-9.93
14591,-7.63,-6.06,0.21,0.67,-0.35,-0.48,-14.58,-39.59,-9.93
14602,-7.03,-6.89,0.24,0.69,-0.08,-0.32,-14.58,-39.59,-9.93
14613,-7.03,-6.89,0.24,0.69,-0.08,-0.32,-14.58,-39.59,-9.93
14624,-8.10,-6.09,-0.18,0.11,0.00,0.11,-15.25,-40.27,-6.89
14635,-8.10,-6.09,-0.18,0.11,0.00,0.11,-15.25,-40.27,-6.89
14646,-9.31,-5.56,-0.80,-0.28,0.07,0.16,-15.25,-40.27,-6.89
14657,-9.31,-5.56,-0.80,-0.28,0.07,0.16,-15.25,-40.27,-6.89
14669,-8.66,-5.09,-0.84,-0.25,-0.00,0.07,-15.25,-40.27,-6.89
14679,-8.66,-5.09,-0.84,-0.25,-0.00,0.07,-15.25,-40.27,-6.89
14690,-8.97,-5.47,0.52,-0.32,-0.10,0.11,-15.25,-40.27,-6.89
14701,-8.47,-6.19,-0.53,-0.38,0.00,0.23,-15.25,-40.27,-6.89
14712,-8.47,-6.19,-0.53,-0.38,0.00,0.23,-15.25,-40.27,-6.89
14723,-8.61,-5.38,0.39,-0.41,-0.02,0.39,-15.25,-40.27,-6.89
14734,-8.61,-5.38,0.39,-0.41,-0.02,0.39,-15.25,-40.27,-6.89
14745,-8.08,-5.52,-1.16,-0.38,0.02,0.44,-15.25,-40.27,-6.89
14756,-8.08,-5.52,-1.16,-0.38,0.02,0.44,-15.25,-40.27,-6.89
14767,-7.88,-4.03,-0.92,-0.14,-0.06,0.41,-15.41,-38.74,-9.36
14778,-7.88,-4.03,-0.92,-0.14,-0.06,0.41,-15.41,-38.74,-9.36
14789,-7.82,-5.58,-1.96,0.07,-0.08,0.10,-15.41,-38.74,-9.36
14800,-7.68,-5.04,-0.72,0.35,-0.22,-0.06,-15.41,-38.74,-9.36
14811,-7.68,-5.04,-0.72,0.35,-0.22,-0.06,-15.41,-38.74,-9.36
14827,-8.03,-5.49,-0.70,0.36,-0.25,-0.28,-15.41,-38.74,-9.36
14833,-8.03,-5.49,-0.70,0.36,-0.25,-0.28,-15.41,-38.74,-9.36
14844,-8.44,-5.69,0.72,0.36,-0.16,-0.37,-15.41,-38.74,-9.36
14855,-8.44,-5.69,0.72,0.36,-0.16,-0.37,-15.41,-38.74,-9.36
14866,-9.00,-6.07,-0.42,-0.03,0.06,-0.34,-15.41,-38.74,-9.36
14877,-9.00,-6.07,-0.42,-0.03,0.06,-0.34,-15.41,-38.74,-9.36
14888,-8.75,-5.19,-1.29,0.02,0.06,-0.10,-14.07,-40.44,-7.46
14899,-8.75,-5.19,-1.29,0.02,0.06,-0.10,-14.07,-40.44,-7.46
14910,-8.89,-5.89,-0.25,0.10,-0.06,0.04,-14.07,-40.44,-7.46
14921,-8.53,-5.80,-0.03,-0.01,-0.06,0.25,-14.07,-40.44,-7.46
14932,-8.53,-5.80,-0.03,-0.01,-0.06,0.25,-14.07,-40.44,-7.46
14943,-8.04,-5.25,0.18,-0.20,-0.03,0.34,-14.07,-40.44,-7.46
14954,-8.04,-5.25,0.18,-0.20,-0.03,0.34,-14.07,-40.44,-7.46
14965,-7.91,-5.49,-0.56,-0.43,0.05,0.22,-14.07,-40.44,-7.46
14976,-7.91,-5.49,-0.56,-0.43,0.05,0.22,-14.07,-40.44,-7.46
14987,-7.88,-5.14,-0.90,-0.30,0.04,0.11,-14.07,-40.44,-7.46
14998,-7.88,-5.14,-0.90,-0.30,0.04,0.11,-14.07,-40.44,-7.46
15009,-7.65,-5.12,-0.10,-0.16,-0.07,-0.06,-14.74,-39.08,-6.70
15020,-8.49,-5.79,0.39,-0.23,-0.06,-0.18,-14.74,-39.08,-6.70
15032,-8.49,-5.79,0.39,-0.23,-0.06,-0.18,-14.74,-39.08,-6.70
15042,-8.63,-5.02,-1.71,-0.27,0.09,-0.07,-14.74,-39.08,-6.70
15053,-8.63,-5.02,-1.71,-0.27,0.09,-0.07,-14.74,-39.08,-6.70
15064,-8.82,-5.44,-2.32,-0.00,-0.05,0.04,-14.74,-39.08,-6.70
15075,-8.82,-5.44,-2.32,-0.00,-0.05,0.04,-14.74,-39.08,-6.70
15086,-8.60,-4.82,-1.26,0.23,-0.19,0.20,-14.74,-39.08,-6.70
15097,-8.60,-4.82,-1.26,0.23,-0.19,0.20,-14.74,-39.08,-6.70
15108,-8.42,-4.93,-0.81,0.32,-0.14,0.21,-14.74,-39.08,-6.70
15119,-8.42,-4.93,-0.81,0.32,-0.14,0.21,-14.74,-39.08,-6.70
15130,-8.57,-5.16,-0.30,0.36,-0.03,0.16,-15.75,-40.10,-6.32
15141,-8.57,-4.66,0.30,0.21,0.25,0.03,-15.75,-40.10,-6.32
15152,-8.57,-4.66,0.30,0.21,0.25,0.03,-15.75,-40.10,-6.32
15163,-9.03,-4.88,-0.45,-0.28,0.37,-0.42,-15.75,-40.10,-6.32
15174,-9.03,-4.88,-0.45,-0.28,0.37,-0.42,-15.75,-40.10,-6.32
15185,-6.92,-5.36,-0.66,-0.49,0.43,-0.81,-15.75,-40.10,-6.32
15196,-6.92,-5.36,-0.66,-0.49,0.43,-0.81,-15.75,-40.10,-6.32
15207,-5.93,-7.18,-1.23,-0.55,0.47,-0.67,-15.75,-40.10,-6.32
15218,-5.93,-7.18,-1.23,-0.55,0.47,-0.67,-15.75,-40.10,-6.32
15229,-6.08,-6.99,-1.43,-0.29,0.11,0.06,-15.75,-40.10,-6.32
15240,-12.41,-3.13,0.47,-0.24,-0.22,0.54,-15.75,-40.10,-6.32
15251,-12.41,-3.13,0.47,-0.24,-0.22,0.54,-15.75,-40.10,-6.32
15262,-8.29,-4.90,-2.36,-0.32,0.10,0.01,-14.58,-38.56,-9.17
15273,-8.29,-4.90,-2.36,-0.32,0.10,0.01,-14.58,-38.56,-9.17
15284,-8.19,-7.27,0.46,-0.33,-0.06,-0.11,-14.58,-38.56,-9.17
15295,-8.19,-7.27,0.46,-0.33,-0.06,-0.11,-14.58,-38.56,-9.17
15306,-8.43,-4.23,-1.80,-0.55,-0.04,-0.03,-14.58,-38.56,-9.17
15317,-8.43,-4.23,-1.80,-0.55,-0.04,-0.03,-14.58,-38.56,-9.17
15328,-8.83,-5.66,-1.09,0.04,-0.15,-0.23,-14.58,-38.56,-9.17
15339,-8.83,-5.66,-1.09,0.04,-0.15,-0.23,-14.58,-38.56,-9.17
15351,-9.85,-5.98,-1.86,0.33,-0.18,-0.08,-14.58,-38.56,-9.17
15361,-10.93,-3.20,0.98,0.57,-0.15,-0.03,-14.58,-38.56,-9.17
15372,-10.93,-3.20,0.98,0.57,-0.15,-0.03,-14.58,-38.56,-9.17
15383,-6.75,-5.55,-2.26,0.27,0.39,-0.52,-13.74,-40.44,-8.98
15394,-6.75,-5.55,-2.26,0.27,0.39,-0.52,-13.74,-40.44,-8.98
15405,-6.96,-6.27,-1.42,0.32,0.33,-0.34,-13.74,-40.44,-8.98
15416,-6.96,-6.27,-1.42,0.32,0.33,-0.34,-13.74,-40.44,-8.98
15427,-6.40,-6.49,-0.06,0.30,0.19,-0.12,-13.74,-40.44,-8.98
15438,-6.40,-6.49,-0.06,0.30,0.19,-0.12,-13.74,-40.44,-8.98
15449,-5.66,-6.94,-0.94,0.11,0.14,0.13,-13.74,-40.44,-8.98
15460,-6.24,-6.71,-0.76,0.04,-0.11,0.56,-13.74,-40.44,-8.98
15471,-6.24,-6.71,-0.76,0.04,-0.11,0.56,-13.74,-40.44,-8.98
15482,-12.28,-4.75,-0.10,-0.14,-0.15,0.98,-13.74,-40.44,-8.98
15493,-12.28,-4.75,-0.10,-0.14,-0.15,0.98,-13.74,-40.44,-8.98
15504,-9.31,-6.63,0.52,-0.18,0.09,0.46,-13.57,-39.25,-9.55
15515,-9.31,-6.63,0.52,-0.18,0.09,0.46,-13.57,-39.25,-9.55
15526,-8.94,-5.34,-0.57,-0.07,0.31,0.22,-13.57,-39.25,-9.55
15537,-8.94,-5.34,-0.57,-0.07,0.31,0.22,-13.57,-39.25,-9.55
15548,-9.24,-3.89,-1.56,0.04,0.40,0.15,-13.57,-39.25,-9.55
15559,-9.24,-3.89,-1.56,0.04,0.40,0.15,-13.57,-39.25,-9.55
15570,-10.69,-3.35,-2.25,0.18,0.27,-0.24,-13.57,-39.25,-9.55
15582,-6.82,-5.52,-1.72,0.44,-0.02,-0.85,-13.57,-39.25,-9.55
15592,-6.82,-5.52,-1.72,0.44,-0.02,-0.85,-13.57,-39.25,-9.55
15603,-7.10,-6.34,-0.77,0.49,-0.06,-0.72,-13.57,-39.25,-9.55
15614,-7.10,-6.34,-0.77,0.49,-0.06,-0.72,-13.57,-39.25,-9.55
15625,-6.11,-6.84,-0.34,0.49,0.05,-0.47,-13.57,-39.25,-9.55
15636,-6.11,-6.84,-0.34,0.49,0.05,-0.47,-13.57,-39.25,-9.55
15652,-6.77,-6.99,-0.13,0.54,0.11,-0.09,-12.73,-39.08,-8.98
15658,-6.77,-6.99,-0.13,0.54,0.11,-0.09,-12.73,-39.08,-8.98
15669,-6.71,-6.60,-0.13,0.37,-0.02,0.21,-12.73,-39.08,-8.98
15680,-6.71,-6.60,-0.13,0.37,-0.02,0.21,-12.73,-39.08,-8.98
15691,-8.12,-5.90,-0.52,0.17,-0.11,0.45,-12.73,-39.08,-8.98
15702,-8.56,-5.50,-0.31,0.06,-0.10,0.50,-12.73,-39.08,-8.98
15713,-8.56,-5.50,-0.31,0.06,-0.10,0.50,-12.73,-39.08,-8.98
15724,-11.03,-3.64,-0.45,-0.03,-0.02,0.51,-12.73,-39.08,-8.98
15735,-11.03,-3.64,-0.45,-0.03,-0.02,0.51,-12.73,-39.08,-8.98
15746,-8.65,-4.98,-1.01,-0.01,0.04,0.21,-12.73,-39.08,-8.98
15757,-8.65,-4.98,-1.01,-0.01,0.04,0.21,-12.73,-39.08,-8.98
15768,-8.13,-6.33,-0.99,0.04,0.06,0.11,-14.24,-39.25,-7.27
15779,-8.13,-6.33,-0.99,0.04,0.06,0.11,-14.24,-39.25,-7.27
15790,-8.28,-5.25,-0.93,0.11,0.03,0.15,-14.24,-39.25,-7.27
15801,-8.03,-4.64,-0.16,0.07,0.02,0.08,-14.24,-39.25,-7.27
15812,-8.03,-4.64,-0.16,0.07,0.02,0.08,-14.24,-39.25,-7.27
15823,-8.02,-5.57,-0.76,-0.25,0.06,-0.17,-14.24,-39.25,-7.27
15834,-8.02,-5.57,-0.76,-0.25,0.06,-0.17,-14.24,-39.25,-7.27
15845,-8.28,-5.55,-0.85,-0.31,-0.04,-0.28,-14.24,-39.25,-7.27
15856,-8.28,-5.55,-0.85,-0.31,-0.04,-0.28,-14.24,-39.25,-7.27
15867,-8.50,-5.73,-1.18,-0.16,-0.21,-0.22,-14.24,-39.25,-7.27
15878,-8.50,-5.73,-1.18,-0.16,-0.21,-0.22,-14.24,-39.25,-7.27
15889,-8.65,-5.55,-0.55,-0.08,-0.34,-0.09,-15.08,-40.10,-7.46
15900,-8.65,-5.55,-0.55,-0.08,-0.34,-0.09,-15.08,-40.10,-7.46
15911,-8.29,-5.95,-0.29,-0.08,-0.24,0.01,-15.08,-40.10,-7.46
15922,-8.61,-6.09,-0.16,-0.01,-0.11,0.07,-15.08,-40.10,-7.46
15933,-8.61,-6.09,-0.16,-0.01,-0.11,0.07,-15.08,-40.10,-7.46
15944,-10.42,-4.57,0.73,-0.07,-0.06,0.02,-15.08,-40.10,-7.46
15955,-10.42,-4.57,0.73,-0.07,-0.06,0.02,-15.08,-40.10,-7.46
15966,-8.46,-5.17,-0.35,-0.26,0.05,-0.44,-15.08,-40.10,-7.46
15977,-8.46,-5.17,-0.35,-0.26,0.05,-0.44,-15.08,-40.10,-7.46
15988,-6.69,-5.84,-1.65,-0.21,-0.13,-0.54,-15.08,-40.10,-7.46
15999,-6.69,-5.84,-1.65,-0.21,-0.13,-0.54,-15.08,-40.10,-7.46
16010,-6.84,-6.55,0.82,0.08,-0.56,-0.30,-15.08,-40.10,-7.46
16021,-6.88,-6.36,0.44,-0.05,-0.47,0.03,-14.24,-41.30,-6.89
16032,-6.88,-6.36,0.44,-0.05,-0.47,0.03,-14.24,-41.30,-6.89
16043,-7.97,-5.72,-1.47,-0.17,-0.27,0.23,-14.24,-41.30,-6.89
16054,-7.97,-5.72,-1.47,-0.17,-0.27,0.23,-14.24,-41.30,-6.89
16065,-8.26,-5.44,-1.95,-0.03,-0.16,0.23,-14.24,-41.30,-6.89
16076,-8.26,-5.44,-1.95,-0.03,-0.16,0.23,-14.24,-41.30,-6.89
16087,-8.19,-5.59,-1.87,0.08,-0.06,0.18,-14.24,-41.30,-6.89
16098,-8.19,-5.59,-1.87,0.08,-0.06,0.18,-14.24,-41.30,-6.89
16109,-7.90,-5.58,-1.48,0.13,-0.02,0.13,-14.24,-41.30,-6.89
16120,-7.90,-5.58,-1.48,0.13,-0.02,0.13,-14.24,-41.30,-6.89
16131,-8.39,-5.67,0.62,0.16,-0.11,0.10,-14.24,-41.30,-6.89
16142,-8.03,-5.63,0.18,0.03,-0.03,0.08,-14.74,-40.10,-7.46
16153,-8.03,-5.63,0.18,0.03,-0.03,0.08,-14.74,-40.10,-7.46
16164,-8.45,-5.34,-0.22,-0.03,-0.02,0.13,-14.74,-40.10,-7.46
16175,-8.45,-5.34,-0.22,-0.03,-0.02,0.13,-14.74,-40.10,-7.46
16186,-8.59,-5.25,-0.64,-0.03,-0.00,0.11,-14.74,-40.10,-7.46
16197,-8.59,-5.25,-0.64,-0.03,-0.00,0.11,-14.74,-40.10,-7.46
16208,-8.56,-5.34,-0.64,0.03,-0.03,0.03,-14.74,-40.10,-7.46
16219,-8.56,-5.34,-0.64,0.03,-0.03,0.03,-14.74,-40.10,-7.46
16230,-8.36,-5.42,-0.76,0.07,-0.02,-0.03,-14.74,-40.10,-7.46
16241,-8.24,-5.49,-0.38,0.13,-0.04,-0.05,-14.74,-40.10,-7.46
16252,-8.24,-5.49,-0.38,0.13,-0.04,-0.05,-14.74,-40.10,-7.46
16263,-7.81,-5.92,-0.16,0.17,-0.06,-0.05,-14.07,-40.79,-5.18
16274,-7.81,-5.92,-0.16,0.17,-0.06,-0.05,-14.07,-40.79,-5.18
16285,-7.48,-6.05,-0.02,0.18,-0.07,0.04,-14.07,-40.79,-5.18
16296,-7.48,-6.05,-0.02,0.18,-0.07,0.04,-14.07,-40.79,-5.18
16307,-7.02,-6.26,0.05,0.11,-0.04,0.23,-14.07,-40.79,-5.18
16318,-7.02,-6.26,0.05,0.11,-0.04,0.23,-14.07,-40.79,-5.18
16329,-10.34,-4.57,1.32,-0.09,0.02,0.40,-14.07,-40.79,-5.18
16340,-10.34,-4.57,1.32,-0.09,0.02,0.40,-14.07,-40.79,-5.18
16351,-8.61,-4.64,-0.65,-0.36,0.24,0.18,-14.07,-40.79,-5.18
16362,-8.62,-5.92,-1.06,-0.46,0.22,0.12,-14.07,-40.79,-5.18
16373,-8.62,-5.92,-1.06,-0.46,0.22,0.12,-14.07,-40.79,-5.18
16384,-8.47,-5.66,-0.04,-0.35,0.17,0.31,-14.07,-40.79,-5.18
16395,-8.47,-5.66,-0.04,-0.35,0.17,0.31,-14.07,-40.79,-5.18
16406,-8.19,-4.47,-1.11,-0.29,0.24,0.41,-13.57,-38.91,-8.79
16417,-8.19,-4.47,-1.11,-0.29,0.24,0.41,-13.57,-38.91,-8.79
16428,-8.29,-4.52,-2.32,-0.16,0.17,0.20,-13.57,-38.91,-8.79
16439,-8.29,-4.52,-2.32,-0.16,0.17,0.20,-13.57,-38.91,-8.79
16450,-8.58,-4.34,-2.24,0.08,-0.05,0.01,-13.57,-38.91,-8.79
16461,-11.58,-3.11,-2.08,0.19,-0.36,-0.46,-13.57,-38.91,-8.79
16472,-11.58,-3.11,-2.08,0.19,-0.36,-0.46,-13.57,-38.91,-8.79
16483,-8.01,-5.23,0.48,0.37,-0.60,-1.30,-13.57,-38.91,-8.79
16494,-8.01,-5.23,0.48,0.37,-0.60,-1.30,-13.57,-38.91,-8.79
16505,-5.28,-8.42,0.81,0.34,-0.39,-1.28,-13.57,-38.91,-8.79
16516,-5.28,-8.42,0.81,0.34,-0.39,-1.28,-13.57,-38.91,-8.79
16527,-7.18,-7.30,2.52,0.26,-0.36,-0.53,-12.73,-41.81,-4.80
16538,-7.18,-7.30,2.52,0.26,-0.36,-0.53,-12.73,-41.81,-4.80
16549,-6.07,-7.21,0.34,0.09,-0.12,-0.22,-12.73,-41.81,-4.80
16560,-6.07,-7.21,0.34,0.09,-0.12,-0.22,-12.73,-41.81,-4.80
16571,-7.52,-6.53,1.47,0.12,-0.20,0.04,-12.73,-41.81,-4.80
16582,-7.50,-6.18,0.28,0.12,-0.06,0.14,-12.73,-41.81,-4.80
16593,-7.50,-6.18,0.28,0.12,-0.06,0.14,-12.73,-41.81,-4.80
16604,-7.63,-5.77,-0.22,0.30,0.08,0.26,-12.73,-41.81,-4.80
16615,-7.63,-5.77,-0.22,0.30,0.08,0.26,-12.73,-41.81,-4.80
16626,-9.50,-4.79,-0.79,0.45,0.20,0.38,-12.73,-41.81,-4.80
16637,-9.50,-4.79,-0.79,0.45,0.20,0.38,-12.73,-41.81,-4.80
16648,-9.17,-5.05,-0.18,0.46,0.14,0.06,-13.57,-40.96,-5.75
16659,-9.17,-5.05,-0.18,0.46,0.14,0.06,-13.57,-40.96,-5.75
16670,-8.08,-5.45,-0.68,0.39,0.22,-0.10,-13.57,-40.96,-5.75
16681,-8.08,-5.45,-0.68,0.39,0.22,-0.10,-13.57,-40.96,-5.75
16692,-7.98,-5.71,-0.09,0.21,0.25,-0.03,-13.57,-40.96,-5.75
16703,-8.31,-5.67,-0.34,-0.01,0.35,0.10,-13.57,-40.96,-5.75
16714,-8.31,-5.67,-0.34,-0.01,0.35,0.10,-13.57,-40.96,-5.75
16725,-8.32,-5.35,-0.70,-0.16,0.31,0.09,-13.57,-40.96,-5.75
16736,-8.32,-5.35,-0.70,-0.16,0.31,0.09,-13.57,-40.96,-5.75
16747,-8.36,-5.32,-0.48,-0.17,0.18,-0.01,-13.57,-40.96,-5.75
16758,-8.36,-5.32,-0.48,-0.17,0.18,-0.01,-13.57,-40.96,-5.75
16769,-8.33,-5.55,-0.50,-0.17,0.10,-0.09,-12.40,-41.47,-7.84
16780,-8.33,-5.55,-0.50,-0.17,0.10,-0.09,-12.40,-41.47,-7.84
16791,-8.06,-5.76,-0.37,-0.14,0.09,-0.11,-12.40,-41.47,-7.84
16802,-7.97,-5.88,-0.32,-0.11,0.07,-0.10,-12.40,-41.47,-7.84
16813,-7.97,-5.88,-0.32,-0.11,0.07,-0.10,-12.40,-41.47,-7.84
16824,-8.17,-5.89,-0.01,-0.08,0.06,-0.08,-12.40,-41.47,-7.84
16835,-8.17,-5.89,-0.01,-0.08,0.06,-0.08,-12.40,-41.47,-7.84
16846,-7.95,-6.00,0.00,-0.09,0.11,-0.06,-12.40,-41.47,-7.84
16857,-7.95,-6.00,0.00,-0.09,0.11,-0.06,-12.40,-41.47,-7.84
16869,-8.12,-5.84,-0.30,-0.14,0.15,-0.02,-12.40,-41.47,-7.84
16879,-8.12,-5.84,-0.30,-0.14,0.15,-0.02,-12.40,-41.47,-7.84
16890,-8.09,-5.69,-0.61,-0.12,0.18,-0.02,-12.40,-41.47,-7.84
16901,-8.09,-5.69,-0.61,-0.12,0.18,-0.02,-12.40,-41.47,-7.84
16912,-7.94,-5.79,-0.52,-0.09,0.16,-0.04,-12.73,-40.44,-6.70
16923,-8.02,-5.71,-0.71,-0.15,0.17,-0.01,-12.73,-40.44,-6.70
16934,-8.02,-5.71,-0.71,-0.15,0.17,-0.01,-12.73,-40.44,-6.70
16945,-8.36,-5.62,-0.79,-0.13,0.15,0.00,-12.73,-40.44,-6.70
16956,-8.36,-5.62,-0.79,-0.13,0.15,0.00,-12.73,-40.44,-6.70
16967,-8.21,-5.62,-1.01,0.00,0.13,-0.03,-12.73,-40.44,-6.70
16984,-8.21,-5.62,-1.01,0.00,0.13,-0.03,-12.73,-40.44,-6.70
16989,-8.12,-5.59,-1.13,0.09,0.08,-0.05,-12.73,-40.44,-6.70
17000,-8.12,-5.59,-1.13,0.09,0.08,-0.05,-12.73,-40.44,-6.70
17011,-8.14,-5.70,-0.51,0.20,0.08,-0.02,-12.73,-40.44,-6.70
17022,-7.67,-5.98,-0.55,0.16,0.13,-0.01,-12.90,-40.27,-8.79
17033,-7.67,-5.98,-0.55,0.16,0.13,-0.01,-12.90,-40.27,-8.79
17044,-7.45,-6.09,-0.58,0.10,0.09,0.02,-12.90,-40.27,-8.79
17055,-7.45,-6.09,-0.58,0.10,0.09,0.02,-12.90,-40.27,-8.79
17066,-8.13,-5.82,-0.14,0.01,0.03,0.08,-12.90,-40.27,-8.79
17077,-8.13,-5.82,-0.14,0.01,0.03,0.08,-12.90,-40.27,-8.79
17088,-8.45,-5.85,-0.30,-0.00,0.11,0.07,-12.90,-40.27,-8.79
17099,-8.45,-5.85,-0.30,-0.00,0.11,0.07,-12.90,-40.27,-8.79
17110,-8.27,-5.63,-0.57,0.03,0.23,0.03,-12.90,-40.27,-8.79
17121,-8.27,-5.63,-0.57,0.03,0.23,0.03,-12.90,-40.27,-8.79
17132,-7.86,-5.86,-1.10,0.12,0.30,-0.02,-12.90,-40.27,-8.79
17143,-7.49,-5.87,-0.86,0.24,0.15,-0.06,-13.40,-41.47,-5.18
17154,-7.49,-5.87,-0.86,0.24,0.15,-0.06,-13.40,-41.47,-5.18
17165,-7.31,-6.37,-0.19,0.29,-0.05,-0.08,-13.40,-41.47,-5.18
17176,-7.31,-6.37,-0.19,0.29,-0.05,-0.08,-13.40,-41.47,-5.18
17187,-7.61,-6.71,0.88,0.20,-0.15,0.02,-13.40,-41.47,-5.18
17198,-7.61,-6.71,0.88,0.20,-0.15,0.02,-13.40,-41.47,-5.18
17209,-7.65,-6.48,0.11,0.03,-0.12,0.14,-13.40,-41.47,-5.18
17220,-7.65,-6.48,0.11,0.03,-0.12,0.14,-13.40,-41.47,-5.18
17231,-7.58,-6.34,-0.22,-0.00,-0.16,0.21,-13.40,-41.47,-5.18
17242,-8.86,-5.88,-0.12,0.09,-0.13,0.36,-13.40,-41.47,-5.18
17253,-8.86,-5.88,-0.12,0.09,-0.13,0.36,-13.40,-41.47,-5.18
17264,-7.89,-5.97,0.37,0.20,0.05,0.36,-13.40,-41.47,-5.18
17275,-7.89,-5.97,0.37,0.20,0.05,0.36,-13.40,-41.47,-5.18
17286,-7.36,-6.04,0.73,-0.07,0.17,0.34,-15.08,-41.13,-7.08
17297,-7.36,-6.04,0.73,-0.07,0.17,0.34,-15.08,-41.13,-7.08
17308,-7.96,-5.93,0.26,-0.46,0.33,0.40,-15.08,-41.13,-7.08
17319,-7.96,-5.93,0.26,-0.46,0.33,0.40,-15.08,-41.13,-7.08
17330,-8.45,-4.41,-1.67,-0.73,0.50,0.39,-15.08,-41.13,-7.08
17341,-8.45,-4.41,-1.67,-0.73,0.50,0.39,-15.08,-41.13,-7.08
17352,-8.34,-4.55,-2.53,-0.63,0.39,0.18,-15.08,-41.13,-7.08
17363,-8.75,-4.62,-1.80,-0.44,0.18,0.02,-15.08,-41.13,-7.08
17374,-8.75,-4.62,-1.80,-0.44,0.18,0.02,-15.08,-41.13,-7.08
17385,-8.36,-4.96,-1.69,-0.30,0.11,-0.13,-15.08,-41.13,-7.08
17401,-8.36,-4.96,-1.69,-0.30,0.11,-0.13,-15.08,-41.13,-7.08
17407,-8.33,-5.61,-1.07,-0.16,-0.01,-0.17,-14.41,-39.08,-8.22
17418,-8.33,-5.61,-1.07,-0.16,-0.01,-0.17,-14.41,-39.08,-8.22
17429,-8.48,-5.76,-0.60,-0.14,-0.07,-0.08,-14.41,-39.08,-8.22
17440,-8.48,-5.76,-0.60,-0.14,-0.07,-0.08,-14.41,-39.08,-8.22
17451,-8.30,-5.68,-0.60,-0.14,0.07,0.02,-14.41,-39.08,-8.22
17462,-8.33,-5.44,-1.40,-0.17,0.15,0.02,-14.41,-39.08,-8.22
17473,-8.33,-5.44,-1.40,-0.17,0.15,0.02,-14.41,-39.08,-8.22
17484,-8.51,-5.23,-1.50,-0.17,0.11,-0.05,-14.41,-39.08,-8.22
17495,-8.51,-5.23,-1.50,-0.17,0.11,-0.05,-14.41,-39.08,-8.22
17506,-8.26,-5.36,-1.39,-0.18,0.07,-0.13,-14.41,-39.08,-8.22
17517,-8.26,-5.36,-1.39,-0.18,0.07,-0.13,-14.41,-39.08,-8.22
17528,-8.09,-5.44,-1.41,-0.17,0.05,-0.12,-13.74,-38.74,-9.36
17539,-8.09,-5.44,-1.41,-0.17,0.05,-0.12,-13.74,-38.74,-9.36
17550,-8.14,-5.50,-1.56,-0.08,0.03,-0.08,-13.74,-38.74,-9.36
17562,-8.14,-5.50,-1.56,-0.08,0.03,-0.08,-13.74,-38.74,-9.36
17572,-7.99,-5.55,-1.51,0.03,-0.01,0.00,-13.74,-38.74,-9.36
17583,-7.79,-5.82,-0.81,0.08,-0.09,0.08,-13.74,-38.74,-9.36
17594,-7.79,-5.82,-0.81,0.08,-0.09,0.08,-13.74,-38.74,-9.36
17605,-7.35,-5.82,-1.27,0.03,-0.09,0.20,-13.74,-38.74,-9.36
17616,-7.35,-5.82,-1.27,0.03,-0.09,0.20,-13.74,-38.74,-9.36
17627,-9.72,-4.24,-0.74,-0.02,-0.12,0.29,-13.74,-38.74,-9.36
17638,-9.72,-4.24,-0.74,-0.02,-0.12,0.29,-13.74,-38.74,-9.36
17649,-8.13,-5.23,-1.84,-0.02,0.06,0.07,-13.74,-38.74,-9.36
17660,-8.13,-5.23,-1.84,-0.02,0.06,0.07,-13.74,-38.74,-9.36
17671,-8.38,-5.24,-1.44,0.04,0.05,0.01,-12.40,-40.10,-10.88
17682,-8.42,-5.17,-1.78,0.11,0.04,-0.05,-12.40,-40.10,-10.88
17693,-8.42,-5.17,-1.78,0.11,0.04,-0.05,-12.40,-40.10,-10.88
17704,-8.39,-5.28,-1.15,0.21,0.01,-0.06,-12.40,-40.10,-10.88
17720,-8.39,-5.28,-1.15,0.21,0.01,-0.06,-12.40,-40.10,-10.88
17726,-8.45,-5.55,-0.73,0.21,0.07,-0.02,-12.40,-40.10,-10.88
17737,-8.45,-5.55,-0.73,0.21,0.07,-0.02,-12.40,-40.10,-10.88
17748,-8.50,-5.57,-0.94,0.12,0.20,0.06,-12.40,-40.10,-10.88
17759,-8.50,-5.57,-0.94,0.12,0.20,0.06,-12.40,-40.10,-10.88
17770,-8.66,-5.45,-1.02,-0.05,0.15,0.14,-12.40,-40.10,-10.88
17781,-8.66,-5.45,-1.02,-0.05,0.15,0.14,-12.40,-40.10,-10.88
17793,-8.28,-5.81,-1.42,0.06,0.01,0.27,-14.58,-39.59,-10.69
17803,-7.96,-5.54,-1.30,0.13,-0.14,0.33,-14.58,-39.59,-10.69
17814,-7.96,-5.54,-1.30,0.13,-0.14,0.33,-14.58,-39.59,-10.69
17825,-7.90,-4.84,-1.14,0.03,-0.21,0.23,-14.58,-39.59,-10.69
17836,-7.90,-4.84,-1.14,0.03,-0.21,0.23,-14.58,-39.59,-10.69
17847,-7.99,-5.36,-1.42,0.07,-0.22,0.05,-14.58,-39.59,-10.69
17858,-7.99,-5.36,-1.42,0.07,-0.22,0.05,-14.58,-39.59,-10.69
17869,-7.93,-5.10,-0.97,0.21,-0.27,-0.05,-14.58,-39.59,-10.69
17880,-7.93,-5.10,-0.97,0.21,-0.27,-0.05,-14.58,-39.59,-10.69
17891,-8.16,-5.40,-0.95,0.25,-0.24,-0.20,-14.58,-39.59,-10.69
17902,-8.16,-5.40,-0.95,0.25,-0.24,-0.20,-14.58,-39.59,-10.69
17913,-8.44,-5.33,-0.96,0.33,-0.10,-0.25,-14.07,-40.10,-7.84
17924,-8.48,-5.85,-0.39,0.24,0.03,-0.24,-14.07,-40.10,-7.84
17935,-8.48,-5.85,-0.39,0.24,0.03,-0.24,-14.07,-40.10,-7.84
17946,-8.45,-5.59,-0.93,0.15,0.07,-0.07,-14.07,-40.10,-7.84
17957,-8.45,-5.59,-0.93,0.15,0.07,-0.07,-14.07,-40.10,-7.84
17968,-8.52,-5.44,-0.20,0.05,-0.03,0.06,-14.07,-40.10,-7.84
17979,-8.52,-5.44,-0.20,0.05,-0.03,0.06,-14.07,-40.10,-7.84
17990,-8.62,-5.81,-0.51,-0.19,-0.02,0.14,-14.07,-40.10,-7.84
18001,-8.62,-5.81,-0.51,-0.19,-0.02,0.14,-14.07,-40.10,-7.84
18012,-8.32,-5.61,-0.11,-0.26,-0.06,0.27,-14.07,-40.10,-7.84
18023,-8.18,-4.80,-1.66,-0.51,0.05,0.29,-14.07,-40.10,-7.84
18039,-8.18,-4.80,-1.66,-0.51,0.05,0.29,-14.07,-40.10,-7.84
18045,-8.01,-4.91,-1.62,-0.13,0.01,0.16,-14.07,-40.10,-7.84
18056,-8.01,-4.91,-1.62,-0.13,0.01,0.16,-14.07,-40.10,-7.84
18067,-7.99,-5.18,-1.95,0.24,-0.11,0.01,-14.07,-40.10,-7.84
18078,-7.99,-5.18,-1.95,0.24,-0.11,0.01,-14.07,-40.10,-7.84
18089,-8.29,-5.19,-0.55,0.49,-0.31,-0.15,-14.07,-40.10,-7.84
18100,-8.29,-5.19,-0.55,0.49,-0.31,-0.15,-14.07,-40.10,-7.84
18111,-8.09,-5.80,-0.25,0.52,-0.26,-0.30,-14.07,-40.10,-7.84
18122,-8.09,-5.80,-0.25,0.52,-0.26,-0.30,-14.07,-40.10,-7.84
18133,-8.14,-5.95,0.07,0.37,-0.06,-0.29,-14.07,-40.10,-7.84
18144,-8.66,-5.54,-0.97,0.18,0.03,-0.10,-14.07,-40.10,-7.84
18155,-8.66,-5.54,-0.97,0.18,0.03,-0.10,-14.07,-40.10,-7.84
18166,-8.23,-5.25,-1.18,0.17,-0.01,0.03,-14.07,-39.76,-8.98
18177,-8.23,-5.25,-1.18,0.17,-0.01,0.03,-14.07,-39.76,-8.98
18188,-8.59,-5.60,-0.29,0.02,-0.07,0.07,-14.07,-39.76,-8.98
18199,-8.59,-5.60,-0.29,0.02,-0.07,0.07,-14.07,-39.76,-8.98
18210,-9.06,-5.00,0.94,-0.18,-0.10,0.14,-14.07,-39.76,-8.98
18221,-9.06,-5.00,0.94,-0.18,-0.10,0.14,-14.07,-39.76,-8.98
18232,-8.63,-5.72,-0.20,-0.24,-0.01,0.23,-14.07,-39.76,-8.98
18243,-8.28,-5.20,-0.07,-0.17,-0.03,0.35,-14.07,-39.76,-8.98
18254,-8.28,-5.20,-0.07,-0.17,-0.03,0.35,-14.07,-39.76,-8.98
18265,-8.12,-4.47,-0.65,-0.13,0.01,0.31,-14.07,-39.76,-8.98
18276,-8.12,-4.47,-0.65,-0.13,0.01,0.31,-14.07,-39.76,-8.98
18287,-7.93,-5.58,-2.14,0.05,0.02,0.10,-14.91,-38.91,-8.79
18298,-7.93,-5.58,-2.14,0.05,0.02,0.10,-14.91,-38.91,-8.79
18309,-7.75,-4.86,-0.91,0.19,-0.13,-0.05,-14.91,-38.91,-8.79
18320,-7.75,-4.86,-0.91,0.19,-0.13,-0.05,-14.91,-38.91,-8.79
18331,-8.01,-5.95,0.17,0.06,-0.14,-0.26,-14.91,-38.91,-8.79
18342,-8.01,-5.95,0.17,0.06,-0.14,-0.26,-14.91,-38.91,-8.79
18353,-8.50,-5.57,0.78,-0.26,0.03,-0.26,-14.91,-38.91,-8.79
18364,-8.78,-5.26,-1.16,-0.53,0.22,-0.17,-14.91,-38.91,-8.79
18375,-8.78,-5.26,-1.16,-0.53,0.22,-0.17,-14.91,-38.91,-8.79
18386,-8.81,-4.53,-1.42,-0.36,0.13,-0.04,-14.91,-38.91,-8.79
18397,-8.81,-4.53,-1.42,-0.36,0.13,-0.04,-14.91,-38.91,-8.79
18408,-9.00,-5.94,-0.99,-0.14,0.02,-0.02,-14.74,-40.10,-7.84
18419,-9.00,-5.94,-0.99,-0.14,0.02,-0.02,-14.74,-40.10,-7.84
18430,-8.50,-5.79,0.19,0.04,-0.07,0.12,-14.74,-40.10,-7.84
18441,-8.50,-5.79,0.19,0.04,-0.07,0.12,-14.74,-40.10,-7.84
18452,-8.11,-5.21,0.35,-0.16,0.02,0.11,-14.74,-40.10,-7.84
18463,-6.80,-5.72,-1.79,-0.44,0.17,0.00,-14.74,-40.10,-7.84
18474,-6.80,-5.72,-1.79,-0.44,0.17,0.00,-14.74,-40.10,-7.84
18485,-8.60,-5.58,-1.25,-0.31,-0.05,0.12,-14.74,-40.10,-7.84
18496,-8.60,-5.58,-1.25,-0.31,-0.05,0.12,-14.74,-40.10,-7.84
18507,-8.23,-5.26,-1.42,-0.17,-0.14,0.05,-14.74,-40.10,-7.84
18518,-8.23,-5.26,-1.42,-0.17,-0.14,0.05,-14.74,-40.10,-7.84
18529,-9.00,-4.73,-1.06,0.02,-0.12,-0.04,-14.74,-40.10,-7.84
18540,-9.00,-4.73,-1.06,0.02,-0.12,-0.04,-14.74,-40.10,-7.84
18551,-8.80,-5.02,-2.14,0.13,-0.09,-0.10,-15.08,-40.44,-8.98
18562,-8.80,-5.02,-2.14,0.13,-0.09,-0.10,-15.08,-40.44,-8.98
18573,-8.92,-4.90,0.34,0.30,-0.14,-0.04,-15.08,-40.44,-8.98
18584,-8.68,-5.40,-0.37,0.22,0.10,0.03,-15.08,-40.44,-8.98
18595,-8.68,-5.40,-0.37,0.22,0.10,0.03,-15.08,-40.44,-8.98
18606,-8.67,-5.75,-0.12,0.05,0.20,0.18,-15.08,-40.44,-8.98
18617,-8.67,-5.75,-0.12,0.05,0.20,0.18,-15.08,-40.44,-8.98
18628,-8.19,-5.38,-0.70,-0.18,0.15,0.31,-15.08,-40.44,-8.98
18639,-8.19,-5.38,-0.70,-0.18,0.15,0.31,-15.08,-40.44,-8.98
18650,-7.90,-5.42,-0.96,-0.26,0.08,0.31,-15.08,-40.44,-8.98
18662,-7.90,-5.42,-0.96,-0.26,0.08,0.31,-15.08,-40.44,-8.98
18672,-8.05,-5.09,-1.59,-0.34,0.02,0.18,-14.58,-38.91,-8.03
18683,-8.01,-4.93,-1.14,-0.11,-0.15,0.01,-14.58,-38.91,-8.03
18694,-8.01,-4.93,-1.14,-0.11,-0.15,0.01,-14.58,-38.91,-8.03
18705,-8.45,-5.27,-0.34,0.02,-0.25,-0.19,-14.58,-38.91,-8.03
18716,-8.45,-5.27,-0.34,0.02,-0.25,-0.19,-14.58,-38.91,-8.03
18727,-8.40,-5.04,-1.13,0.05,-0.19,-0.29,-14.58,-38.91,-8.03
18738,-8.40,-5.04,-1.13,0.05,-0.19,-0.29,-14.58,-38.91,-8.03
18749,-8.12,-5.46,-0.92,0.06,-0.17,-0.34,-14.58,-38.91,-8.03
18760,-8.12,-5.46,-0.92,0.06,-0.17,-0.34,-14.58,-38.91,-8.03
18771,-7.80,-5.82,-1.01,0.10,-0.11,-0.16,-14.58,-38.91,-8.03
18782,-7.80,-5.82,-1.01,0.10,-0.11,-0.16,-14.58,-38.91,-8.03
18793,-8.64,-5.39,-0.94,0.06,-0.03,0.02,-15.41,-38.74,-7.84
18804,-8.70,-5.59,-0.13,-0.02,0.01,0.03,-15.41,-38.74,-7.84
18815,-8.70,-5.59,-0.13,-0.02,0.01,0.03,-15.41,-38.74,-7.84
18826,-8.84,-5.18,-0.01,-0.24,0.10,0.14,-15.41,-38.74,-7.84
18837,-8.84,-5.18,-0.01,-0.24,0.10,0.14,-15.41,-38.74,-7.84
18848,-8.32,-5.82,-0.91,-0.37,0.18,0.23,-15.41,-38.74,-7.84
18859,-8.32,-5.82,-0.91,-0.37,0.18,0.23,-15.41,-38.74,-7.84
18870,-8.20,-5.41,-0.06,-0.43,0.13,0.32,-15.41,-38.74,-7.84
18881,-8.20,-5.41,-0.06,-0.43,0.13,0.32,-15.41,-38.74,-7.84
18892,-8.20,-5.16,-1.22,-0.74,0.20,0.25,-15.41,-38.74,-7.84
18903,-8.20,-5.16,-1.22,-0.74,0.20,0.25,-15.41,-38.74,-7.84
18914,-7.76,-4.59,-2.66,-0.44,0.06,0.15,-15.41,-38.74,-7.84
18925,-8.33,-5.14,-0.38,-0.21,-0.36,-0.12,-16.25,-37.88,-11.45
18937,-8.33,-5.14,-0.38,-0.21,-0.36,-0.12,-16.25,-37.88,-11.45
18947,-9.09,-6.19,0.85,-0.47,-0.28,-0.23,-16.25,-37.88,-11.45
18958,-9.09,-6.19,0.85,-0.47,-0.28,-0.23,-16.25,-37.88,-11.45
18969,-9.70,-4.27,0.53,-0.63,0.10,-0.23,-16.25,-37.88,-11.45
18980,-9.70,-4.27,0.53,-0.63,0.10,-0.23,-16.25,-37.88,-11.45
18991,-6.89,-4.58,-3.48,-0.17,0.43,-0.37,-16.25,-37.88,-11.45
19002,-6.89,-4.58,-3.48,-0.17,0.43,-0.37,-16.25,-37.88,-11.45
19013,-7.10,-6.34,-1.14,0.54,0.11,-0.16,-16.25,-37.88,-11.45
19024,-7.85,-5.09,-1.08,0.51,0.17,0.18,-16.25,-37.88,-11.45
19035,-7.85,-5.09,-1.08,0.51,0.17,0.18,-16.25,-37.88,-11.45
19046,-8.44,-5.24,-2.25,0.38,0.29,0.21,-14.24,-37.20,-11.83
19057,-8.44,-5.24,-2.25,0.38,0.29,0.21,-14.24,-37.20,-11.83
19068,-9.08,-4.76,-1.26,0.29,0.12,0.10,-14.24,-37.20,-11.83
19079,-9.08,-4.76,-1.26,0.29,0.12,0.10,-14.24,-37.20,-11.83
19090,-7.92,-4.98,-2.64,0.16,0.21,-0.07,-14.24,-37.20,-11.83
19101,-7.92,-4.98,-2.64,0.16,0.21,-0.07,-14.24,-37.20,-11.83
19112,-8.06,-4.64,-2.58,0.28,0.11,-0.06,-14.24,-37.20,-11.83
19123,-8.06,-4.64,-2.58,0.28,0.11,-0.06,-14.24,-37.20,-11.83
19139,-8.05,-5.17,-1.52,0.49,-0.14,-0.13,-14.24,-37.20,-11.83
19145,-7.98,-5.60,0.14,0.63,-0.28,-0.14,-14.24,-37.20,-11.83
19156,-7.98,-5.60,0.14,0.63,-0.28,-0.14,-14.24,-37.20,-11.83
19167,-8.15,-5.88,0.02,0.40,-0.20,-0.04,-13.74,-39.42,-9.36
19178,-8.15,-5.88,0.02,0.40,-0.20,-0.04,-13.74,-39.42,-9.36
19189,-10.05,-4.35,-0.76,0.17,-0.09,0.11,-13.74,-39.42,-9.36
19200,-10.05,-4.35,-0.76,0.17,-0.09,0.11,-13.74,-39.42,-9.36
19212,-8.65,-5.21,-1.18,0.11,0.02,0.04,-13.74,-39.42,-9.36
19222,-8.65,-5.21,-1.18,0.11,0.02,0.04,-13.74,-39.42,-9.36
19233,-9.28,-5.39,0.42,-0.06,-0.03,0.10,-13.74,-39.42,-9.36
19244,-8.46,-5.97,-0.74,-0.28,0.09,0.24,-13.74,-39.42,-9.36
19255,-8.46,-5.97,-0.74,-0.28,0.09,0.24,-13.74,-39.42,-9.36
19266,-8.34,-4.87,-0.88,-0.54,0.06,0.37,-13.74,-39.42,-9.36
19277,-8.34,-4.87,-0.88,-0.54,0.06,0.37,-13.74,-39.42,-9.36
19288,-8.08,-4.46,-1.64,-0.42,0.04,0.29,-13.74,-39.42,-9.36
19299,-8.08,-4.46,-1.64,-0.42,0.04,0.29,-13.74,-39.42,-9.36
19310,-8.11,-4.80,-2.14,-0.08,-0.04,0.07,-14.74,-38.74,-10.50
19321,-8.11,-4.80,-2.14,-0.08,-0.04,0.07,-14.74,-38.74,-10.50
19332,-7.97,-5.20,-2.38,0.33,-0.13,-0.08,-14.74,-38.74,-10.50
19343,-7.97,-5.20,-2.38,0.33,-0.13,-0.08,-14.74,-38.74,-10.50
19354,-7.96,-5.55,-0.30,0.61,-0.38,-0.24,-14.74,-38.74,-10.50
19365,-8.04,-5.70,-0.16,0.65,-0.30,-0.36,-14.74,-38.74,-10.50
19376,-8.04,-5.70,-0.16,0.65,-0.30,-0.36,-14.74,-38.74,-10.50
19387,-8.70,-6.44,0.18,0.56,-0.12,-0.34,-14.74,-38.74,-10.50
19398,-8.70,-6.44,0.18,0.56,-0.12,-0.34,-14.74,-38.74,-10.50
19409,-8.76,-5.20,-0.31,0.25,-0.03,-0.08,-14.74,-38.74,-10.50
19420,-8.76,-5.20,-0.31,0.25,-0.03,-0.08,-14.74,-38.74,-10.50
19431,-8.70,-5.18,-0.32,-0.03,0.01,0.04,-14.41,-40.44,-8.98
19442,-8.70,-5.18,-0.32,-0.03,0.01,0.04,-14.41,-40.44,-8.98
19453,-9.23,-4.98,0.31,-0.39,-0.00,0.15,-14.41,-40.44,-8.98
19464,-8.43,-5.00,-0.53,-0.60,0.03,0.26,-14.41,-40.44,-8.98
19475,-8.43,-5.00,-0.53,-0.60,0.03,0.26,-14.41,-40.44,-8.98
19486,-8.28,-4.96,-1.63,-0.57,-0.01,0.26,-14.41,-40.44,-8.98
19497,-8.28,-4.96,-1.63,-0.57,-0.01,0.26,-14.41,-40.44,-8.98
19508,-8.17,-4.75,-0.69,-0.14,-0.10,0.15,-14.41,-40.44,-8.98
19519,-8.17,-4.75,-0.69,-0.14,-0.10,0.15,-14.41,-40.44,-8.98
19530,-8.13,-5.01,-1.97,0.16,-0.08,-0.02,-14.41,-40.44,-8.98
19541,-8.13,-5.01,-1.97,0.16,-0.08,-0.02,-14.41,-40.44,-8.98
19552,-8.05,-4.94,-1.29,0.53,-0.26,-0.15,-15.08,-38.39,-8.60
19563,-8.05,-4.94,-1.29,0.53,-0.26,-0.15,-15.08,-38.39,-8.60
19575,-8.32,-5.54,-0.32,0.67,-0.35,-0.29,-15.08,-38.39,-8.60
19585,-8.12,-6.01,0.28,0.69,-0.19,-0.33,-15.08,-38.39,-8.60
19596,-8.12,-6.01,0.28,0.69,-0.19,-0.33,-15.08,-38.39,-8.60
19607,-8.51,-5.73,0.03,0.47,-0.07,-0.20,-15.08,-38.39,-8.60
19618,-8.51,-5.73,0.03,0.47,-0.07,-0.20,-15.08,-38.39,-8.60
19629,-8.73,-5.22,-0.08,0.25,-0.00,-0.05,-15.08,-38.39,-8.60
19640,-8.73,-5.22,-0.08,0.25,-0.00,-0.05,-15.08,-38.39,-8.60
19651,-8.59,-5.10,-0.20,0.11,0.00,0.04,-15.08,-38.39,-8.60
19662,-8.59,-5.10,-0.20,0.11,0.00,0.04,-15.08,-38.39,-8.60
19673,-9.07,-5.19,0.13,-0.07,-0.08,0.15,-14.91,-40.61,-7.27
19684,-8.32,-5.48,0.62,-0.19,-0.06,0.28,-14.91,-40.61,-7.27
19695,-8.32,-5.48,0.62,-0.19,-0.06,0.28,-14.91,-40.61,-7.27
19706,-8.18,-5.21,-0.45,-0.44,0.05,0.30,-14.91,-40.61,-7.27
19717,-8.18,-5.21,-0.45,-0.44,0.05,0.30,-14.91,-40.61,-7.27
19733,-7.91,-5.19,-1.47,-0.29,0.13,0.20,-14.91,-40.61,-7.27
19739,-7.91,-5.19,-1.47,-0.29,0.13,0.20,-14.91,-40.61,-7.27
19750,-8.17,-5.26,-1.32,0.03,0.05,0.06,-14.91,-40.61,-7.27
19761,-8.17,-5.26,-1.32,0.03,0.05,0.06,-14.91,-40.61,-7.27
19772,-8.16,-4.58,-0.18,0.25,-0.04,-0.04,-14.91,-40.61,-7.27
19783,-8.16,-4.58,-0.18,0.25,-0.04,-0.04,-14.91,-40.61,-7.27
19794,-7.96,-5.57,-0.50,0.24,-0.01,-0.24,-14.91,-40.61,-7.27
19805,-8.63,-5.81,0.20,0.24,-0.05,-0.27,-15.25,-38.56,-6.13
19816,-8.63,-5.81,0.20,0.24,-0.05,-0.27,-15.25,-38.56,-6.13
19827,-8.59,-5.34,-0.57,0.18,-0.13,-0.15,-15.25,-38.56,-6.13
19838,-8.59,-5.34,-0.57,0.18,-0.13,-0.15,-15.25,-38.56,-6.13
19849,-8.84,-5.05,0.24,0.20,-0.19,-0.03,-15.25,-38.56,-6.13
19860,-8.84,-5.05,0.24,0.20,-0.19,-0.03,-15.25,-38.56,-6.13
19871,-8.79,-5.41,0.16,-0.03,-0.14,0.04,-15.25,-38.56,-6.13
19882,-8.79,-5.41,0.16,-0.03,-0.14,0.04,-15.25,-38.56,-6.13
19893,-8.54,-5.44,0.68,-0.22,-0.11,0.17,-15.25,-38.56,-6.13
19904,-8.39,-5.58,0.54,-0.44,0.01,0.23,-15.25,-38.56,-6.13
19915,-8.39,-5.58,0.54,-0.44,0.01,0.23,-15.25,-38.56,-6.13
19926,-8.15,-4.85,-0.52,-0.54,0.11,0.23,-16.76,-38.74,-7.46
19937,-8.15,-4.85,-0.52,-0.54,0.11,0.23,-16.76,-38.74,-7.46
19948,-8.14,-5.13,-1.52,-0.24,0.07,0.12,-16.76,-38.74,-7.46
19959,-8.14,-5.13,-1.52,-0.24,0.07,0.12,-16.76,-38.74,-7.46
19970,-7.86,-4.74,-0.83,0.14,-0.07,0.01,-16.76,-38.74,-7.46
19981,-7.86,-4.74,-0.83,0.14,-0.07,0.01,-16.76,-38.74,-7.46
19992,-8.18,-5.31,-0.39,0.21,-0.19,-0.18,-16.76,-38.74,-7.46
20003,-8.18,-5.31,-0.39,0.21,-0.19,-0.18,-16.76,-38.74,-7.46
20014,-8.39,-4.87,0.34,0.18,-0.16,-0.25,-16.76,-38.74,-7.46
20025,-9.26,-5.20,0.70,-0.12,0.04,-0.28,-16.76,-38.74,-7.46
20036,-9.26,-5.20,0.70,-0.12,0.04,-0.28,-16.76,-38.74,-7.46
20047,-8.79,-5.21,-1.27,-0.20,0.24,-0.15,-16.59,-39.59,-6.89
20058,-8.79,-5.21,-1.27,-0.20,0.24,-0.15,-16.59,-39.59,-6.89
20069,-8.86,-5.70,0.16,-0.05,0.05,0.03,-16.59,-39.59,-6.89
20080,-8.86,-5.70,0.16,-0.05,0.05,0.03,-16.59,-39.59,-6.89
20091,-8.17,-6.16,-0.43,-0.16,-0.02,0.21,-16.59,-39.59,-6.89
20102,-8.17,-6.16,-0.43,-0.16,-0.02,0.21,-16.59,-39.59,-6.89
20113,-8.22,-5.40,-0.01,-0.29,-0.15,0.36,-16.59,-39.59,-6.89
20124,-8.22,-5.40,-0.01,-0.29,-0.15,0.36,-16.59,-39.59,-6.89
20135,-8.06,-5.35,-0.58,-0.43,-0.12,0.29,-16.59,-39.59,-6.89
20146,-8.40,-4.90,0.56,-0.19,-0.15,0.17,-16.59,-39.59,-6.89
20157,-8.40,-4.90,0.56,-0.19,-0.15,0.17,-16.59,-39.59,-6.89
20168,-8.72,-5.18,0.69,-0.09,-0.01,-0.05,-16.59,-39.59,-6.89
20179,-8.72,-5.18,0.69,-0.09,-0.01,-0.05,-16.59,-39.59,-6.89
20190,-9.70,-4.17,0.02,-0.10,0.19,-0.27,-15.92,-39.25,-8.41
20201,-9.70,-4.17,0.02,-0.10,0.19,-0.27,-15.92,-39.25,-8.41
20212,-7.76,-5.56,-0.64,-0.04,0.35,-0.57,-15.92,-39.25,-8.41
20223,-7.76,-5.56,-0.64,-0.04,0.35,-0.57,-15.92,-39.25,-8.41
20234,-7.31,-6.12,-0.58,0.12,0.20,-0.48,-15.92,-39.25,-8.41
20245,-7.80,-5.86,-0.02,0.28,0.00,-0.21,-15.92,-39.25,-8.41
20256,-7.80,-5.86,-0.02,0.28,0.00,-0.21,-15.92,-39.25,-8.41
20267,-7.25,-6.15,-0.57,0.21,-0.05,-0.02,-15.92,-39.25,-8.41
20278,-7.25,-6.15,-0.57,0.21,-0.05,-0.02,-15.92,-39.25,-8.41
20289,-7.63,-5.79,-1.05,0.08,-0.13,0.26,-15.92,-39.25,-8.41
20300,-7.63,-5.79,-1.05,0.08,-0.13,0.26,-15.92,-39.25,-8.41
20311,-8.15,-5.21,-1.06,-0.06,-0.09,0.48,-15.41,-39.08,-7.46
20322,-8.15,-5.21,-1.06,-0.06,-0.09,0.48,-15.41,-39.08,-7.46
20333,-9.95,-4.62,-1.59,-0.20,-0.01,0.49,-15.41,-39.08,-7.46
20344,-9.95,-4.62,-1.59,-0.20,-0.01,0.49,-15.41,-39.08,-7.46
20356,-8.60,-6.32,-0.32,-0.15,-0.09,0.08,-15.41,-39.08,-7.46
20366,-8.32,-4.43,0.11,-0.15,-0.02,-0.06,-15.41,-39.08,-7.46
20377,-8.32,-4.43,0.11,-0.15,-0.02,-0.06,-15.41,-39.08,-7.46
20388,-8.78,-5.29,-0.40,-0.02,0.10,-0.25,-15.41,-39.08,-7.46
20399,-8.78,-5.29,-0.40,-0.02,0.10,-0.25,-15.41,-39.08,-7.46
20410,-9.21,-5.06,-0.44,-0.16,0.20,-0.19,-15.41,-39.08,-7.46
20421,-9.21,-5.06,-0.44,-0.16,0.20,-0.19,-15.41,-39.08,-7.46
20432,-9.21,-5.05,0.05,-0.16,0.20,-0.01,-13.91,-39.25,-9.93
20443,-9.21,-5.05,0.05,-0.16,0.20,-0.01,-13.91,-39.25,-9.93
20454,-8.67,-5.90,-1.16,-0.21,0.18,0.20,-13.91,-39.25,-9.93
20465,-7.98,-5.07,-0.44,-0.19,-0.01,0.39,-13.91,-39.25,-9.93
20476,-7.98,-5.07,-0.44,-0.19,-0.01,0.39,-13.91,-39.25,-9.93
20487,-7.88,-5.57,-0.59,-0.38,-0.07,0.29,-13.91,-39.25,-9.93
20498,-7.88,-5.57,-0.59,-0.38,-0.07,0.29,-13.91,-39.25,-9.93
20509,-8.00,-5.05,-0.55,-0.28,-0.05,0.16,-13.91,-39.25,-9.93
20520,-8.00,-5.05,-0.55,-0.28,-0.05,0.16,-13.91,-39.25,-9.93
20531,-8.02,-5.06,-0.58,-0.09,-0.04,-0.01,-13.91,-39.25,-9.93
20542,-8.02,-5.06,-0.58,-0.09,-0.04,-0.01,-13.91,-39.25,-9.93
20553,-8.19,-5.49,-0.48,-0.09,-0.08,-0.18,-13.91,-39.25,-9.93
20564,-8.19,-5.49,-0.48,-0.09,-0.08,-0.18,-13.91,-39.25,-9.93
20575,-8.63,-5.13,-0.20,-0.15,0.00,-0.19,-14.91,-38.22,-9.17
20586,-8.99,-5.06,-1.52,-0.17,0.06,-0.06,-14.91,-38.22,-9.17
20597,-8.99,-5.06,-1.52,-0.17,0.06,-0.06,-14.91,-38.22,-9.17
20608,-8.97,-5.57,-1.69,0.12,-0.22,0.10,-14.91,-38.22,-9.17
20619,-8.97,-5.57,-1.69,0.12,-0.22,0.10,-14.91,-38.22,-9.17
20630,-8.38,-5.81,-0.04,0.47,-0.45,0.35,-14.91,-38.22,-9.17
20641,-8.38,-5.81,-0.04,0.47,-0.45,0.35,-14.91,-38.22,-9.17
20652,-8.52,-4.77,-0.18,0.35,-0.25,0.50,-14.91,-38.22,-9.17
20663,-8.52,-4.77,-0.18,0.35,-0.25,0.50,-14.91,-38.22,-9.17
20674,-8.40,-4.81,-1.11,0.31,0.06,0.44,-14.91,-38.22,-9.17
20685,-8.33,-4.41,-0.42,0.46,0.22,0.30,-16.42,-38.05,-8.22
20697,-8.33,-4.41,-0.42,0.46,0.22,0.30,-16.42,-38.05,-8.22
20707,-8.26,-4.48,-0.30,0.22,0.33,0.04,-16.42,-38.05,-8.22
20718,-8.26,-4.48,-0.30,0.22,0.33,0.04,-16.42,-38.05,-8.22
20729,-7.90,-4.49,0.04,-0.12,0.24,-0.27,-16.42,-38.05,-8.22
20740,-7.90,-4.49,0.04,-0.12,0.24,-0.27,-16.42,-38.05,-8.22
20751,-9.29,-4.43,0.01,-0.45,0.15,-0.70,-16.42,-38.05,-8.22
20762,-9.29,-4.43,0.01,-0.45,0.15,-0.70,-16.42,-38.05,-8.22
20773,-6.70,-6.29,-1.78,-0.27,0.14,-0.86,-16.42,-38.05,-8.22
20784,-6.70,-6.29,-1.78,-0.27,0.14,-0.86,-16.42,-38.05,-8.22
20795,-7.80,-6.19,-1.03,0.03,-0.33,-0.40,-16.42,-38.05,-8.22
20806,-8.88,-5.45,0.59,0.17,-0.40,-0.02,-16.92,-38.56,-7.65
20817,-8.88,-5.45,0.59,0.17,-0.40,-0.02,-16.92,-38.56,-7.65
20828,-10.01,-4.27,-0.52,0.10,-0.16,0.23,-16.92,-38.56,-7.65
20839,-10.01,-4.27,-0.52,0.10,-0.16,0.23,-16.92,-38.56,-7.65
20850,-9.15,-5.43,-0.37,0.20,-0.19,0.26,-16.92,-38.56,-7.65
20861,-9.15,-5.43,-0.37,0.20,-0.19,0.26,-16.92,-38.56,-7.65
20872,-8.55,-5.14,0.03,0.14,-0.09,0.34,-16.92,-38.56,-7.65
20883,-8.55,-5.14,0.03,0.14,-0.09,0.34,-16.92,-38.56,-7.65
20894,-8.30,-4.72,-0.58,0.02,0.10,0.28,-16.92,-38.56,-7.65
20905,-8.28,-4.84,-0.43,0.04,0.17,0.13,-16.92,-38.56,-7.65
20916,-8.28,-4.84,-0.43,0.04,0.17,0.13,-16.92,-38.56,-7.65
20927,-7.92,-5.08,0.40,-0.09,0.28,-0.03,-16.92,-38.56,-7.65
20938,-7.92,-5.08,0.40,-0.09,0.28,-0.03,-16.92,-38.56,-7.65
20950,-7.93,-5.22,-0.91,-0.42,0.37,-0.21,-15.41,-38.39,-6.32
20960,-7.93,-5.22,-0.91,-0.42,0.37,-0.21,-15.41,-38.39,-6.32
20971,-8.34,-5.47,-1.29,-0.41,0.25,-0.26,-15.41,-38.39,-6.32
20982,-8.34,-5.47,-1.29,-0.41,0.25,-0.26,-15.41,-38.39,-6.32
20993,-8.58,-5.18,-1.43,-0.09,-0.04,-0.14,-15.41,-38.39,-6.32
21004,-8.58,-5.18,-1.43,-0.09,-0.04,-0.14,-15.41,-38.39,-6.32
21015,-8.85,-5.29,-0.11,0.20,-0.28,-0.06,-15.41,-38.39,-6.32
21026,-8.43,-5.27,-0.33,0.29,-0.30,0.00,-15.41,-38.39,-6.32
21037,-8.43,-5.27,-0.33,0.29,-0.30,0.00,-15.41,-38.39,-6.32
21048,-8.47,-5.14,-0.01,0.24,-0.29,0.01,-15.41,-38.39,-6.32
21059,-8.47,-5.14,-0.01,0.24,-0.29,0.01,-15.41,-38.39,-6.32
21070,-8.43,-4.88,-0.72,0.07,-0.17,-0.06,-14.91,-38.91,-7.65
21081,-8.43,-4.88,-0.72,0.07,-0.17,-0.06,-14.91,-38.91,-7.65
21092,-8.31,-5.48,-1.42,0.07,-0.06,-0.18,-14.91,-38.91,-7.65
21103,-8.31,-5.48,-1.42,0.07,-0.06,-0.18,-14.91,-38.91,-7.65
21114,-8.74,-5.21,-0.15,0.13,-0.01,-0.11,-14.91,-38.91,-7.65
21125,-8.74,-5.21,-0.15,0.13,-0.01,-0.11,-14.91,-38.91,-7.65
21136,-8.61,-5.63,-0.11,0.05,0.08,-0.01,-14.91,-38.91,-7.65
21147,-8.75,-5.42,0.58,-0.21,0.02,0.15,-14.91,-38.91,-7.65
21158,-8.75,-5.42,0.58,-0.21,0.02,0.15,-14.91,-38.91,-7.65
21169,-8.57,-5.64,-0.29,-0.42,0.06,0.29,-14.91,-38.91,-7.65
21180,-8.57,-5.64,-0.29,-0.42,0.06,0.29,-14.91,-38.91,-7.65
21191,-8.31,-5.29,-0.35,-0.61,0.04,0.39,-15.08,-38.74,-7.84
21202,-8.31,-5.29,-0.35,-0.61,0.04,0.39,-15.08,-38.74,-7.84
21213,-8.10,-4.80,-0.41,-0.41,0.01,0.34,-15.08,-38.74,-7.84
21225,-8.10,-4.80,-0.41,-0.41,0.01,0.34,-15.08,-38.74,-7.84
21235,-8.27,-4.68,-1.22,0.01,-0.01,0.13,-15.08,-38.74,-7.84
21246,-8.18,-4.64,-0.73,0.33,-0.17,-0.09,-15.08,-38.74,-7.84
21257,-8.18,-4.64,-0.73,0.33,-0.17,-0.09,-15.08,-38.74,-7.84
21268,-8.17,-5.27,-0.32,0.42,-0.32,-0.32,-15.08,-38.74,-7.84
21279,-8.17,-5.27,-0.32,0.42,-0.32,-0.32,-15.08,-38.74,-7.84
21290,-8.39,-5.46,0.41,0.51,-0.24,-0.39,-15.08,-38.74,-7.84
21301,-8.39,-5.46,0.41,0.51,-0.24,-0.39,-15.08,-38.74,-7.84
21312,-8.61,-5.76,-0.31,0.29,-0.02,-0.31,-15.92,-38.22,-7.65
21323,-8.61,-5.76,-0.31,0.29,-0.02,-0.31,-15.92,-38.22,-7.65
21334,-8.61,-5.64,-0.31,0.13,0.03,-0.11,-15.92,-38.22,-7.65
21345,-8.61,-5.64,-0.31,0.13,0.03,-0.11,-15.92,-38.22,-7.65
21356,-8.70,-5.38,0.37,-0.06,0.01,0.06,-15.92,-38.22,-7.65
21367,-9.21,-5.42,1.19,-0.35,0.03,0.19,-15.92,-38.22,-7.65
21378,-9.21,-5.42,1.19,-0.35,0.03,0.19,-15.92,-38.22,-7.65
21389,-8.34,-5.42,0.16,-0.58,0.10,0.36,-15.92,-38.22,-7.65
21400,-8.34,-5.42,0.16,-0.58,0.10,0.36,-15.92,-38.22,-7.65
21411,-8.35,-4.98,-1.02,-0.76,0.11,0.36,-15.92,-38.22,-7.65
21422,-8.35,-4.98,-1.02,-0.76,0.11,0.36,-15.92,-38.22,-7.65
21433,-8.18,-4.12,-1.65,-0.25,0.04,0.24,-15.92,-38.22,-7.65
21444,-8.18,-4.12,-1.65,-0.25,0.04,0.24,-15.92,-38.22,-7.65
21455,-8.27,-4.87,-0.98,0.19,-0.08,0.00,-15.58,-37.54,-10.69
21466,-8.10,-5.23,-0.76,0.31,-0.17,-0.23,-15.58,-37.54,-10.69
21478,-8.10,-5.23,-0.76,0.31,-0.17,-0.23,-15.58,-37.54,-10.69
21488,-8.25,-5.62,0.50,0.50,-0.27,-0.42,-15.58,-37.54,-10.69
21499,-8.25,-5.62,0.50,0.50,-0.27,-0.42,-15.58,-37.54,-10.69
21510,-7.81,-6.05,0.27,0.40,-0.02,-0.39,-15.58,-37.54,-10.69
21521,-7.81,-6.05,0.27,0.40,-0.02,-0.39,-15.58,-37.54,-10.69
21532,-8.97,-5.28,-1.17,0.15,0.13,-0.13,-15.58,-37.54,-10.69
21543,-8.97,-5.28,-1.17,0.15,0.13,-0.13,-15.58,-37.54,-10.69
21554,-9.00,-4.87,-0.21,0.17,-0.02,0.02,-15.58,-37.54,-10.69
21565,-9.00,-4.87,-0.21,0.17,-0.02,0.02,-15.58,-37.54,-10.69
21576,-8.73,-5.48,0.82,0.00,-0.07,0.09,-15.58,-38.91,-7.65
21587,-8.51,-5.73,0.33,-0.17,0.04,0.23,-15.58,-38.91,-7.65
21598,-8.51,-5.73,0.33,-0.17,0.04,0.23,-15.58,-38.91,-7.65
21609,-8.38,-5.48,0.12,-0.24,0.09,0.33,-15.58,-38.91,-7.65
21620,-8.38,-5.48,0.12,-0.24,0.09,0.33,-15.58,-38.91,-7.65
21631,-8.17,-4.96,-1.06,-0.26,0.12,0.31,-15.58,-38.91,-7.65
21642,-8.17,-4.96,-1.06,-0.26,0.12,0.31,-15.58,-38.91,-7.65
21653,-8.17,-4.80,-1.36,-0.07,0.07,0.15,-15.58,-38.91,-7.65
21664,-8.17,-4.80,-1.36,-0.07,0.07,0.15,-15.58,-38.91,-7.65
21675,-8.21,-4.97,-0.68,0.14,-0.01,0.00,-15.58,-38.91,-7.65
21686,-7.99,-5.05,-0.30,0.17,-0.07,-0.13,-15.58,-37.20,-7.27
21697,-7.99,-5.05,-0.30,0.17,-0.07,-0.13,-15.58,-37.20,-7.27
21708,-8.59,-5.78,0.66,0.05,-0.12,-0.27,-15.58,-37.20,-7.27
21719,-8.59,-5.78,0.66,0.05,-0.12,-0.27,-15.58,-37.20,-7.27
21730,-8.58,-5.55,-0.09,-0.10,-0.13,-0.21,-15.58,-37.20,-7.27
21741,-8.58,-5.55,-0.09,-0.10,-0.13,-0.21,-15.58,-37.20,-7.27
21752,-8.91,-5.57,0.06,-0.08,-0.22,-0.08,-15.58,-37.20,-7.27
21763,-8.91,-5.57,0.06,-0.08,-0.22,-0.08,-15.58,-37.20,-7.27
21774,-8.93,-4.93,0.13,-0.19,-0.16,0.05,-15.58,-37.20,-7.27
21785,-8.93,-4.93,0.13,-0.19,-0.16,0.05,-15.58,-37.20,-7.27
21796,-8.67,-5.51,-0.31,-0.39,-0.06,0.14,-15.58,-37.20,-7.27
21807,-8.34,-4.97,0.08,-0.37,-0.02,0.25,-15.58,-37.20,-7.27
21818,-8.34,-4.97,0.08,-0.37,-0.02,0.25,-15.58,-37.20,-7.27
21829,-8.17,-4.97,-0.36,-0.50,0.07,0.19,-15.58,-38.91,-7.27
21840,-8.17,-4.97,-0.36,-0.50,0.07,0.19,-15.58,-38.91,-7.27
21851,-8.11,-4.71,-1.65,-0.36,0.07,0.04,-15.58,-38.91,-7.27
21862,-8.11,-4.71,-1.65,-0.36,0.07,0.04,-15.58,-38.91,-7.27
21873,-7.96,-4.94,-0.24,-0.04,-0.18,-0.12,-15.58,-38.91,-7.27
21884,-7.96,-4.94,-0.24,-0.04,-0.18,-0.12,-15.58,-38.91,-7.27
21895,-8.17,-5.61,-0.44,-0.00,-0.30,-0.22,-15.58,-38.91,-7.27
21906,-8.44,-5.26,-0.91,0.08,-0.26,-0.23,-15.58,-38.91,-7.27
21917,-8.44,-5.26,-0.91,0.08,-0.26,-0.23,-15.58,-38.91,-7.27
21928,-9.08,-5.41,-0.28,0.18,-0.17,-0.24,-15.58,-38.91,-7.27
21939,-9.08,-5.41,-0.28,0.18,-0.17,-0.24,-15.58,-38.91,-7.27
21950,-8.97,-5.18,0.40,0.21,0.03,-0.15,-16.76,-38.39,-6.32
21961,-8.97,-5.18,0.40,0.21,0.03,-0.15,-16.76,-38.39,-6.32
21972,-8.68,-5.40,-0.07,0.17,0.21,-0.02,-16.76,-38.39,-6.32
21983,-8.68,-5.40,-0.07,0.17,0.21,-0.02,-16.76,-38.39,-6.32
21994,-8.57,-5.47,0.27,0.14,0.17,0.14,-16.76,-38.39,-6.32
22005,-8.57,-5.47,0.27,0.14,0.17,0.14,-16.76,-38.39,-6.32
22016,-8.56,-5.59,-0.39,-0.00,0.11,0.30,-16.76,-38.39,-6.32
22027,-8.18,-5.18,-0.37,0.01,-0.05,0.38,-16.76,-38.39,-6.32
22038,-8.18,-5.18,-0.37,0.01,-0.05,0.38,-16.76,-38.39,-6.32
22049,-8.17,-4.40,0.03,0.02,-0.14,0.32,-16.76,-38.39,-6.32
22060,-8.17,-4.40,0.03,0.02,-0.14,0.32,-16.76,-38.39,-6.32
22071,-8.18,-5.18,-0.80,0.09,-0.07,0.10,-17.59,-38.91,-8.79
22082,-8.18,-5.18,-0.80,0.09,-0.07,0.10,-17.59,-38.91,-8.79
22093,-7.96,-4.65,-0.10,0.14,-0.14,-0.05,-17.59,-38.91,-8.79
22104,-7.96,-4.65,-0.10,0.14,-0.14,-0.05,-17.59,-38.91,-8.79
22115,-8.01,-5.48,-0.42,-0.04,-0.14,-0.28,-17.59,-38.91,-8.79
22126,-8.01,-5.48,-0.42,-0.04,-0.14,-0.28,-17.59,-38.91,-8.79
22137,-7.76,-4.68,-0.19,-0.00,-0.03,-0.42,-17.59,-38.91,-8.79
22148,-8.43,-5.87,0.69,0.41,0.18,-0.61,-17.59,-38.91,-8.79
22159,-8.43,-5.87,0.69,0.41,0.18,-0.61,-17.59,-38.91,-8.79
22170,-8.81,-5.95,-0.34,0.20,0.28,-0.38,-17.59,-38.91,-8.79
22181,-8.81,-5.95,-0.34,0.20,0.28,-0.38,-17.59,-38.91,-8.79
22192,-8.82,-5.27,-0.78,-0.08,0.08,-0.03,-17.59,-38.91,-8.79
22203,-8.82,-5.27,-0.78,-0.08,0.08,-0.03,-17.59,-38.91,-8.79
22214,-9.42,-5.14,0.06,-0.18,-0.12,0.13,-15.08,-38.05,-7.46
22225,-9.42,-5.14,0.06,-0.18,-0.12,0.13,-15.08,-38.05,-7.46
22236,-8.49,-5.43,0.46,-0.20,-0.18,0.38,-15.08,-38.05,-7.46
22247,-8.16,-5.33,-0.38,-0.27,-0.21,0.53,-15.08,-38.05,-7.46
22258,-8.16,-5.33,-0.38,-0.27,-0.21,0.53,-15.08,-38.05,-7.46
22269,-8.31,-4.50,0.07,-0.03,-0.19,0.52,-15.08,-38.05,-7.46
22280,-8.31,-4.50,0.07,-0.03,-0.19,0.52,-15.08,-38.05,-7.46
22291,-8.02,-4.24,-0.20,0.19,-0.11,0.35,-15.08,-38.05,-7.46
22302,-8.02,-4.24,-0.20,0.19,-0.11,0.35,-15.08,-38.05,-7.46
22313,-8.13,-4.74,-0.69,0.28,-0.04,0.05,-15.08,-38.05,-7.46
22324,-8.13,-4.74,-0.69,0.28,-0.04,0.05,-15.08,-38.05,-7.46
22335,-8.21,-4.81,-0.28,0.25,-0.11,-0.18,-16.76,-37.71,-7.46
22346,-8.21,-4.81,-0.28,0.25,-0.11,-0.18,-16.76,-37.71,-7.46
22357,-7.99,-5.07,-0.06,0.20,-0.13,-0.39,-16.76,-37.71,-7.46
22368,-8.88,-5.28,0.96,-0.16,0.02,-0.50,-16.76,-37.71,-7.46
22379,-8.88,-5.28,0.96,-0.16,0.02,-0.50,-16.76,-37.71,-7.46
22390,-8.91,-5.81,-1.14,-0.29,0.24,-0.31,-16.76,-37.71,-7.46
22401,-8.91,-5.81,-1.14,-0.29,0.24,-0.31,-16.76,-37.71,-7.46
22412,-8.67,-5.40,0.31,-0.05,0.09,-0.02,-16.76,-37.71,-7.46
22423,-8.67,-5.40,0.31,-0.05,0.09,-0.02,-16.76,-37.71,-7.46
22434,-8.79,-5.67,0.09,-0.14,0.01,0.19,-16.76,-37.71,-7.46
22445,-8.79,-5.67,0.09,-0.14,0.01,0.19,-16.76,-37.71,-7.46
22456,-8.18,-5.31,0.03,-0.13,-0.13,0.38,-16.92,-38.22,-9.55
22467,-8.25,-5.63,0.82,-0.19,-0.18,0.36,-16.92,-38.22,-9.55
22478,-8.25,-5.63,0.82,-0.19,-0.18,0.36,-16.92,-38.22,-9.55
22489,-8.50,-4.14,1.08,-0.30,-0.07,0.25,-16.92,-38.22,-9.55
22500,-8.50,-4.14,1.08,-0.30,-0.07,0.25,-16.92,-38.22,-9.55
22511,-8.92,-5.52,0.71,-0.23,0.02,-0.12,-16.92,-38.22,-9.55
22522,-8.92,-5.52,0.71,-0.23,0.02,-0.12,-16.92,-38.22,-9.55
22533,-8.91,-4.72,-0.28,-0.13,0.09,-0.41,-16.92,-38.22,-9.55
22544,-8.91,-4.72,-0.28,-0.13,0.09,-0.41,-16.92,-38.22,-9.55
22555,-7.19,-6.03,-0.18,0.14,0.12,-0.68,-16.92,-38.22,-9.55
22566,-7.19,-6.03,-0.18,0.14,0.12,-0.68,-16.92,-38.22,-9.55
22577,-7.23,-6.51,-0.01,0.31,0.03,-0.40,-17.09,-39.42,-8.22
22588,-8.44,-5.27,-0.19,0.44,0.08,0.04,-17.09,-39.42,-8.22
22599,-8.44,-5.27,-0.19,0.44,0.08,0.04,-17.09,-39.42,-8.22
22610,-9.06,-5.03,-0.56,0.50,0.28,0.15,-17.09,-39.42,-8.22
22621,-9.06,-5.03,-0.56,0.50,0.28,0.15,-17.09,-39.42,-8.22
22632,-8.41,-5.18,-0.51,0.24,0.33,0.10,-17.09,-39.42,-8.22
22643,-8.41,-5.18,-0.51,0.24,0.33,0.10,-17.09,-39.42,-8.22
22654,-8.28,-5.05,-1.01,-0.12,0.34,0.11,-17.09,-39.42,-8.22
