time,ax,ay,az,gx,gy,gz,mx,my,mz
402,-0.50,6.36,-8.06,0.01,0.00,0.00,-9.38,20.37,-32.17
412,-0.50,6.36,-8.06,0.01,0.00,0.00,-9.38,20.37,-32.17
423,-0.53,6.33,-8.09,0.00,-0.00,0.00,-9.38,20.37,-32.17
434,-0.53,6.33,-8.09,0.00,-0.00,0.00,-9.38,20.37,-32.17
445,-0.49,6.29,-8.09,0.01,0.00,0.00,-9.38,20.37,-32.17
456,-0.45,6.31,-8.12,0.01,0.00,0.00,-9.38,20.37,-32.17
467,-0.45,6.31,-8.12,0.01,0.00,0.00,-9.38,20.37,-32.17
478,-0.48,6.34,-8.10,0.00,0.00,0.00,-9.38,20.37,-32.17
489,-0.48,6.34,-8.10,0.00,0.00,0.00,-9.38,20.37,-32.17
500,-0.52,6.34,-8.06,0.00,0.00,0.00,-9.71,22.07,-31.41
511,-0.52,6.34,-8.06,0.00,0.00,0.00,-9.71,22.07,-31.41
522,-0.53,6.32,-8.10,0.00,0.00,0.00,-9.71,22.07,-31.41
533,-0.53,6.32,-8.10,0.00,0.00,0.00,-9.71,22.07,-31.41
544,-0.49,6.29,-8.13,0.01,0.00,0.01,-9.71,22.07,-31.41
555,-0.47,6.31,-8.10,0.00,0.00,0.00,-9.71,22.07,-31.41
566,-0.47,6.31,-8.10,0.00,0.00,0.00,-9.71,22.07,-31.41
577,-0.50,6.34,-8.07,0.00,0.00,0.00,-9.71,22.07,-31.41
588,-0.50,6.34,-8.07,0.00,0.00,0.00,-9.71,22.07,-31.41
599,-0.52,6.35,-8.06,0.00,0.00,0.00,-9.71,22.07,-31.41
610,-0.52,6.35,-8.06,0.00,0.00,0.00,-9.71,22.07,-31.41
621,-0.52,6.32,-8.09,0.01,0.00,0.00,-8.71,21.05,-30.65
632,-0.52,6.32,-8.09,0.01,0.00,0.00,-8.71,21.05,-30.65
643,-0.51,6.31,-8.13,0.01,0.00,0.00,-8.71,21.05,-30.65
654,-0.51,6.31,-8.13,0.01,0.00,0.00,-8.71,21.05,-30.65
665,-0.47,6.30,-8.05,0.00,0.00,0.00,-8.71,21.05,-30.65
676,-0.48,6.34,-8.08,0.00,-0.00,0.00,-8.71,21.05,-30.65
687,-0.48,6.34,-8.08,0.00,-0.00,0.00,-8.71,21.05,-30.65
698,-0.50,6.34,-8.07,0.00,0.00,0.00,-8.71,21.05,-30.65
709,-0.50,6.34,-8.07,0.00,0.00,0.00,-8.71,21.05,-30.65
720,-0.51,6.32,-8.08,0.00,0.00,0.00,-8.71,21.05,-30.65
731,-0.51,6.32,-8.08,0.00,0.00,0.00,-8.71,21.05,-30.65
742,-0.50,6.30,-8.09,0.01,0.00,0.00,-8.71,21.05,-30.65
753,-0.50,6.30,-8.09,0.01,0.00,0.00,-8.71,21.05,-30.65
764,-0.49,6.31,-8.11,0.00,0.00,0.00,-8.54,20.88,-30.84
775,-0.48,6.34,-8.11,0.00,0.00,0.00,-8.54,20.88,-30.84
786,-0.48,6.34,-8.11,0.00,0.00,0.00,-8.54,20.88,-30.84
797,-0.51,6.34,-8.07,0.00,0.00,0.00,-8.54,20.88,-30.84
808,-0.51,6.34,-8.07,0.00,0.00,0.00,-8.54,20.88,-30.84
819,-0.51,6.33,-8.09,0.00,0.00,0.00,-8.54,20.88,-30.84
830,-0.51,6.33,-8.09,0.00,0.00,0.00,-8.54,20.88,-30.84
841,-0.49,6.30,-8.09,0.00,0.00,0.01,-8.54,20.88,-30.84
852,-0.49,6.30,-8.09,0.00,0.00,0.01,-8.54,20.88,-30.84
863,-0.48,6.32,-8.10,0.00,0.00,0.00,-8.54,20.88,-30.84
874,-0.48,6.32,-8.10,0.00,0.00,0.00,-8.54,20.88,-30.84
885,-0.50,6.33,-8.12,0.00,0.00,0.00,-9.54,21.22,-30.46
896,-0.51,6.34,-8.09,0.00,0.00,0.00,-9.54,21.22,-30.46
907,-0.51,6.34,-8.09,0.00,0.00,0.00,-9.54,21.22,-30.46
918,-0.52,6.32,-8.09,0.00,0.00,0.00,-9.54,21.22,-30.46
929,-0.52,6.32,-8.09,0.00,0.00,0.00,-9.54,21.22,-30.46
940,-0.50,6.30,-8.09,0.00,0.00,0.00,-9.54,21.22,-30.46
951,-0.50,6.30,-8.09,0.00,0.00,0.00,-9.54,21.22,-30.46
962,-0.49,6.31,-8.08,0.00,0.00,0.00,-9.54,21.22,-30.46
973,-0.49,6.31,-8.08,0.00,0.00,0.00,-9.54,21.22,-30.46
984,-0.50,6.33,-8.10,0.00,0.00,0.00,-9.54,21.22,-30.46
995,-0.50,6.33,-8.10,0.00,0.00,0.00,-9.54,21.22,-30.46
1006,-0.52,6.32,-8.11,0.00,0.00,0.00,-8.87,20.54,-30.84
1017,-0.52,6.32,-8.12,0.00,0.00,0.00,-8.87,20.54,-30.84
1028,-0.52,6.32,-8.12,0.00,0.00,0.00,-8.87,20.54,-30.84
1039,-0.49,6.31,-8.11,0.00,0.00,0.00,-8.87,20.54,-30.84
1050,-0.49,6.31,-8.11,0.00,0.00,0.00,-8.87,20.54,-30.84
1061,-0.48,6.31,-8.12,0.00,0.00,0.00,-8.87,20.54,-30.84
1072,-0.48,6.31,-8.12,0.00,0.00,0.00,-8.87,20.54,-30.84
1083,-0.49,6.33,-8.11,0.00,0.00,0.00,-8.87,20.54,-30.84
1094,-0.49,6.33,-8.11,0.00,0.00,0.00,-8.87,20.54,-30.84
1105,-0.51,6.33,-8.08,0.00,0.00,0.00,-8.87,20.54,-30.84
1116,-0.51,6.31,-8.09,0.00,0.00,0.00,-8.87,21.22,-31.22
1127,-0.51,6.31,-8.09,0.00,0.00,0.00,-8.87,21.22,-31.22
1138,-0.50,6.30,-8.11,0.00,0.00,0.00,-8.87,21.22,-31.22
1149,-0.50,6.30,-8.11,0.00,0.00,0.00,-8.87,21.22,-31.22
1160,-0.50,6.29,-8.09,0.00,0.00,0.00,-8.87,21.22,-31.22
1171,-0.50,6.29,-8.09,0.00,0.00,0.00,-8.87,21.22,-31.22
1182,-0.49,6.30,-8.08,0.00,0.00,0.00,-8.87,21.22,-31.22
1193,-0.49,6.30,-8.08,0.00,0.00,0.00,-8.87,21.22,-31.22
1204,-0.50,6.31,-8.11,0.00,0.00,0.00,-8.87,21.22,-31.22
1215,-0.50,6.31,-8.11,0.00,0.00,0.00,-8.87,21.22,-31.22
1226,-0.51,6.29,-8.09,0.00,0.00,0.00,-8.87,21.22,-31.22
1237,-0.49,6.29,-8.09,0.00,0.00,0.00,-8.87,21.22,-31.22
1248,-0.49,6.29,-8.09,0.00,0.00,0.00,-8.87,21.22,-31.22
1259,-0.49,6.31,-8.12,0.00,0.00,0.00,-9.38,22.07,-32.93
1270,-0.49,6.31,-8.12,0.00,0.00,0.00,-9.38,22.07,-32.93
1281,-0.50,6.31,-8.09,0.00,0.00,0.00,-9.38,22.07,-32.93
1292,-0.50,6.31,-8.09,0.00,0.00,0.00,-9.38,22.07,-32.93
1303,-0.52,6.32,-8.10,-0.00,0.00,0.00,-9.38,22.07,-32.93
1314,-0.52,6.32,-8.10,-0.00,0.00,0.00,-9.38,22.07,-32.93
1325,-0.51,6.31,-8.07,0.00,0.00,0.00,-9.38,22.07,-32.93
1336,-0.50,6.30,-8.09,0.00,0.00,0.00,-9.38,22.07,-32.93
1347,-0.50,6.30,-8.09,0.00,0.00,0.00,-9.38,22.07,-32.93
1358,-0.49,6.31,-8.13,0.00,0.00,0.00,-9.38,22.07,-32.93
1369,-0.49,6.31,-8.13,0.00,0.00,0.00,-9.38,22.07,-32.93
1380,-0.50,6.32,-8.11,-0.00,0.00,0.00,-9.21,20.54,-30.84
1391,-0.50,6.32,-8.11,-0.00,0.00,0.00,-9.21,20.54,-30.84
1402,-0.51,6.33,-8.09,0.00,0.00,0.00,-9.21,20.54,-30.84
1413,-0.51,6.33,-8.09,0.00,0.00,0.00,-9.21,20.54,-30.84
1424,-0.51,6.30,-8.12,0.00,0.00,0.00,-9.21,20.54,-30.84
1435,-0.51,6.30,-8.12,0.00,0.00,0.00,-9.21,20.54,-30.84
1446,-0.50,6.28,-8.08,0.00,0.00,0.00,-9.21,20.54,-30.84
1457,-0.49,6.29,-8.10,0.00,0.00,0.00,-9.21,20.54,-30.84
1468,-0.49,6.29,-8.10,0.00,0.00,0.00,-9.21,20.54,-30.84
1479,-0.50,6.30,-8.10,0.00,0.00,0.00,-9.21,20.54,-30.84
1490,-0.50,6.30,-8.10,0.00,0.00,0.00,-9.21,20.54,-30.84
1501,-0.51,6.32,-8.10,0.00,0.00,0.00,-9.88,20.88,-31.22
1512,-0.51,6.32,-8.10,0.00,0.00,0.00,-9.88,20.88,-31.22
1523,-0.51,6.32,-8.12,0.00,0.00,0.00,-9.88,20.88,-31.22
1534,-0.51,6.32,-8.12,0.00,0.00,0.00,-9.88,20.88,-31.22
1545,-0.50,6.31,-8.10,0.00,0.00,0.00,-9.88,20.88,-31.22
1556,-0.49,6.29,-8.10,0.00,0.00,0.00,-9.88,20.88,-31.22
1567,-0.49,6.29,-8.10,0.00,0.00,0.00,-9.88,20.88,-31.22
1578,-0.50,6.31,-8.10,0.00,0.00,0.00,-9.88,20.88,-31.22
1589,-0.50,6.31,-8.10,0.00,0.00,0.00,-9.88,20.88,-31.22
1600,-0.51,6.32,-8.10,0.00,0.00,0.00,-9.88,20.88,-31.22
1611,-0.51,6.32,-8.10,0.00,0.00,0.00,-9.88,20.88,-31.22
1622,-0.49,6.32,-8.10,0.00,0.00,0.00,-9.88,20.88,-31.22
1633,-0.49,6.32,-8.10,0.00,0.00,0.00,-9.88,20.88,-31.22
1644,-0.50,6.31,-8.13,0.00,0.00,0.00,-10.89,21.56,-30.84
1655,-0.50,6.31,-8.13,0.00,0.00,0.00,-10.89,21.56,-30.84
1666,-0.51,6.31,-8.10,0.00,0.00,0.00,-10.89,21.56,-30.84
1677,-0.50,6.33,-8.11,0.00,0.00,0.00,-10.89,21.56,-30.84
1688,-0.50,6.33,-8.11,0.00,0.00,0.00,-10.89,21.56,-30.84
1699,-0.51,6.32,-8.08,0.00,0.00,0.00,-10.89,21.56,-30.84
1710,-0.51,6.32,-8.08,0.00,0.00,0.00,-10.89,21.56,-30.84
1721,-0.50,6.31,-8.10,0.00,0.00,0.00,-10.89,21.56,-30.84
1732,-0.50,6.31,-8.10,0.00,0.00,0.00,-10.89,21.56,-30.84
1743,-0.51,6.29,-8.10,0.00,0.00,0.00,-10.89,21.56,-30.84
1754,-0.51,6.29,-8.10,0.00,0.00,0.00,-10.89,21.56,-30.84
1765,-0.50,6.30,-8.12,0.00,0.00,0.00,-10.05,22.07,-32.17
1776,-0.50,6.31,-8.11,0.00,0.00,0.00,-10.05,22.07,-32.17
1787,-0.50,6.31,-8.11,0.00,0.00,0.00,-10.05,22.07,-32.17
1798,-0.51,6.32,-8.10,0.00,0.00,0.00,-10.05,22.07,-32.17
1813,-0.51,6.32,-8.10,0.00,0.00,0.00,-10.05,22.07,-32.17
1820,-0.50,6.31,-8.09,0.00,0.00,0.00,-10.05,22.07,-32.17
1831,-0.50,6.31,-8.09,0.00,0.00,0.00,-10.05,22.07,-32.17
1842,-0.51,6.30,-8.11,0.00,0.00,0.00,-10.05,22.07,-32.17
1853,-0.51,6.30,-8.11,0.00,0.00,0.00,-10.05,22.07,-32.17
1864,-0.48,6.30,-8.09,0.00,0.00,0.00,-10.05,22.07,-32.17
1875,-0.48,6.30,-8.09,0.00,0.00,0.00,-10.05,22.07,-32.17
1886,-0.50,6.32,-8.09,0.00,0.00,0.00,-9.71,20.37,-29.89
1897,-0.51,6.30,-8.08,0.00,0.00,0.00,-9.71,20.37,-29.89
1908,-0.51,6.30,-8.08,0.00,0.00,0.00,-9.71,20.37,-29.89
1919,-0.50,6.30,-8.09,0.00,0.00,0.00,-9.71,20.37,-29.89
1930,-0.50,6.30,-8.09,0.00,0.00,0.00,-9.71,20.37,-29.89
1941,-0.50,6.29,-8.12,0.00,0.00,0.00,-9.71,20.37,-29.89
1952,-0.50,6.29,-8.12,0.00,0.00,0.00,-9.71,20.37,-29.89
1963,-0.50,6.29,-8.08,0.00,0.00,0.00,-9.71,20.37,-29.89
1974,-0.50,6.29,-8.08,0.00,0.00,0.00,-9.71,20.37,-29.89
1985,-0.51,6.29,-8.10,0.00,0.00,0.00,-9.71,20.37,-29.89
1996,-0.51,6.32,-8.09,0.00,0.00,0.00,-9.71,20.37,-29.89
2007,-0.51,6.32,-8.09,0.00,0.00,0.00,-9.71,20.37,-29.89
2018,-0.50,6.31,-8.11,0.00,0.00,0.00,-10.55,21.56,-30.84
2029,-0.50,6.31,-8.11,0.00,0.00,0.00,-10.55,21.56,-30.84
2040,-0.50,6.29,-8.11,0.00,0.00,0.00,-10.55,21.56,-30.84
2051,-0.50,6.29,-8.11,0.00,0.00,0.00,-10.55,21.56,-30.84
2062,-0.50,6.30,-8.10,0.00,0.00,0.00,-10.55,21.56,-30.84
2073,-0.50,6.30,-8.10,0.00,0.00,0.00,-10.55,21.56,-30.84
2084,-0.50,6.32,-8.10,0.00,0.00,0.00,-10.55,21.56,-30.84
2095,-0.50,6.32,-8.10,0.00,0.00,0.00,-10.55,21.56,-30.84
2106,-0.51,6.31,-8.08,-0.00,0.00,0.00,-10.55,21.56,-30.84
2117,-0.51,6.31,-8.12,0.00,0.00,0.00,-10.55,21.56,-30.84
2128,-0.51,6.31,-8.12,0.00,0.00,0.00,-10.55,21.56,-30.84
2139,-0.51,6.30,-8.09,0.00,0.00,0.00,-8.04,23.44,-31.03
2150,-0.51,6.30,-8.09,0.00,0.00,0.00,-8.04,23.44,-31.03
2161,-0.50,6.31,-8.09,0.00,0.00,0.00,-8.04,23.44,-31.03
2172,-0.50,6.31,-8.09,0.00,0.00,0.00,-8.04,23.44,-31.03
2183,-0.49,6.32,-8.10,0.00,0.00,0.00,-8.04,23.44,-31.03
2194,-0.49,6.32,-8.10,0.00,0.00,0.00,-8.04,23.44,-31.03
2205,-0.50,6.31,-8.10,-0.00,0.00,0.00,-8.04,23.44,-31.03
2216,-0.50,6.31,-8.10,-0.00,0.00,0.00,-8.04,23.44,-31.03
2227,-0.51,6.32,-8.07,0.00,0.00,0.00,-8.04,23.44,-31.03
2238,-0.50,6.29,-8.10,0.00,0.00,0.00,-8.04,23.44,-31.03
2249,-0.50,6.29,-8.10,0.00,0.00,0.00,-8.04,23.44,-31.03
2260,-0.50,6.30,-8.13,0.00,0.00,0.00,-9.04,20.71,-30.27
2271,-0.50,6.30,-8.13,0.00,0.00,0.00,-9.04,20.71,-30.27
2282,-0.49,6.31,-8.10,-0.00,0.00,0.00,-9.04,20.71,-30.27
2293,-0.49,6.31,-8.10,-0.00,0.00,0.00,-9.04,20.71,-30.27
2304,-0.50,6.31,-8.11,0.00,0.00,0.00,-9.04,20.71,-30.27
2315,-0.50,6.31,-8.11,0.00,0.00,0.00,-9.04,20.71,-30.27
2326,-0.51,6.31,-8.13,0.00,0.00,0.01,-9.04,20.71,-30.27
2337,-0.51,6.31,-8.12,0.00,0.00,0.00,-9.04,20.71,-30.27
2352,-0.51,6.31,-8.12,0.00,0.00,0.00,-9.04,20.71,-30.27
2359,-0.50,6.30,-8.11,0.00,0.00,0.00,-9.04,20.71,-30.27
2370,-0.50,6.30,-8.11,0.00,0.00,0.00,-9.04,20.71,-30.27
2381,-0.50,6.31,-8.09,0.00,0.00,0.00,-9.88,21.90,-30.46
2392,-0.50,6.31,-8.09,0.00,0.00,0.00,-9.88,21.90,-30.46
2403,-0.50,6.32,-8.10,0.00,0.00,0.00,-9.88,21.90,-30.46
2414,-0.50,6.32,-8.10,0.00,0.00,0.00,-9.88,21.90,-30.46
2425,-0.50,6.30,-8.11,0.00,0.00,0.00,-9.88,21.90,-30.46
2436,-0.50,6.30,-8.11,0.00,0.00,0.00,-9.88,21.90,-30.46
2447,-0.49,6.29,-8.11,0.00,0.00,0.00,-9.88,21.90,-30.46
2458,-0.51,6.30,-8.10,0.00,0.00,0.00,-9.88,21.90,-30.46
2469,-0.51,6.30,-8.10,0.00,0.00,0.00,-9.88,21.90,-30.46
2480,-0.50,6.31,-8.10,-0.00,0.00,0.00,-9.88,21.90,-30.46
2491,-0.50,6.31,-8.10,-0.00,0.00,0.00,-9.88,21.90,-30.46
2502,-0.50,6.31,-8.11,0.00,0.00,0.00,-9.88,21.90,-30.46
2513,-0.50,6.31,-8.11,0.00,0.00,0.00,-9.88,21.90,-30.46
2524,-0.51,6.30,-8.14,-0.00,0.00,0.01,-8.54,20.54,-31.98
2535,-0.51,6.30,-8.14,-0.00,0.00,0.01,-8.54,20.54,-31.98
2546,-0.51,6.29,-8.10,0.00,0.00,0.00,-8.54,20.54,-31.98
2557,-0.51,6.30,-8.11,0.00,0.00,0.00,-8.54,20.54,-31.98
2568,-0.51,6.30,-8.11,0.00,0.00,0.00,-8.54,20.54,-31.98
2579,-0.50,6.31,-8.10,0.00,0.00,0.00,-8.54,20.54,-31.98
2590,-0.50,6.31,-8.10,0.00,0.00,0.00,-8.54,20.54,-31.98
2601,-0.51,6.29,-8.09,0.00,0.00,0.00,-8.54,20.54,-31.98
2612,-0.51,6.29,-8.09,0.00,0.00,0.00,-8.54,20.54,-31.98
2623,-0.50,6.30,-8.10,0.00,0.00,0.00,-8.54,20.54,-31.98
2634,-0.50,6.30,-8.10,0.00,0.00,0.00,-8.54,20.54,-31.98
2645,-0.51,6.30,-8.12,0.00,0.00,0.00,-8.71,20.71,-31.03
2656,-0.51,6.30,-8.12,0.00,0.00,0.00,-8.71,20.71,-31.03
2667,-0.50,6.30,-8.11,0.00,0.00,0.00,-8.71,20.71,-31.03
2678,-0.49,6.32,-8.10,0.00,0.00,0.00,-8.71,20.71,-31.03
2689,-0.49,6.32,-8.10,0.00,0.00,0.00,-8.71,20.71,-31.03
2700,-0.50,6.31,-8.12,0.00,0.00,0.00,-8.71,20.71,-31.03
2711,-0.50,6.31,-8.12,0.00,0.00,0.00,-8.71,20.71,-31.03
2722,-0.51,6.31,-8.11,0.00,0.00,0.00,-8.71,20.71,-31.03
2733,-0.51,6.31,-8.11,0.00,0.00,0.00,-8.71,20.71,-31.03
2744,-0.49,6.31,-8.12,0.00,0.00,0.00,-8.71,20.71,-31.03
2755,-0.49,6.31,-8.12,0.00,0.00,0.00,-8.71,20.71,-31.03
2766,-0.50,6.30,-8.11,0.00,0.00,0.00,-9.21,20.20,-31.22
2777,-0.51,6.30,-8.10,0.00,0.00,0.00,-9.21,20.20,-31.22
2788,-0.51,6.30,-8.10,0.00,0.00,0.00,-9.21,20.20,-31.22
2799,-0.52,6.32,-8.11,0.00,0.00,0.00,-9.21,20.20,-31.22
2810,-0.52,6.32,-8.11,0.00,0.00,0.00,-9.21,20.20,-31.22
2821,-0.51,6.29,-8.10,0.00,0.00,0.00,-9.21,20.20,-31.22
2832,-0.51,6.29,-8.10,0.00,0.00,0.00,-9.21,20.20,-31.22
2843,-0.51,6.30,-8.12,0.00,0.00,0.00,-9.21,20.20,-31.22
2854,-0.51,6.30,-8.12,0.00,0.00,0.00,-9.21,20.20,-31.22
2865,-0.50,6.31,-8.10,0.00,0.00,0.00,-9.21,20.20,-31.22
2876,-0.50,6.31,-8.10,0.00,0.00,0.00,-9.21,20.20,-31.22
2887,-0.50,6.30,-8.10,0.00,0.00,0.00,-9.21,20.20,-31.22
2898,-0.51,6.31,-8.12,0.00,0.00,0.00,-10.89,20.88,-31.22
2909,-0.51,6.31,-8.12,0.00,0.00,0.00,-10.89,20.88,-31.22
2920,-0.51,6.29,-8.10,0.00,0.00,0.00,-10.89,20.88,-31.22
2931,-0.51,6.29,-8.10,0.00,0.00,0.00,-10.89,20.88,-31.22
2942,-0.51,6.30,-8.10,0.00,0.00,0.00,-10.89,20.88,-31.22
2953,-0.51,6.30,-8.10,0.00,0.00,0.00,-10.89,20.88,-31.22
2964,-0.51,6.29,-8.09,0.00,0.00,0.00,-10.89,20.88,-31.22
2975,-0.51,6.29,-8.09,0.00,0.00,0.00,-10.89,20.88,-31.22
2986,-0.50,6.31,-8.10,0.00,0.00,0.00,-10.89,20.88,-31.22
2997,-0.51,6.30,-8.10,-0.00,0.00,0.00,-10.89,20.88,-31.22
3008,-0.51,6.30,-8.10,-0.00,0.00,0.00,-10.89,20.88,-31.22
3019,-0.51,6.29,-8.11,-0.00,0.00,0.00,-9.21,20.54,-31.22
3030,-0.51,6.29,-8.11,-0.00,0.00,0.00,-9.21,20.54,-31.22
3041,-0.51,6.30,-8.12,0.00,0.00,0.00,-9.21,20.54,-31.22
3052,-0.51,6.30,-8.12,0.00,0.00,0.00,-9.21,20.54,-31.22
3063,-0.51,6.30,-8.10,0.00,0.00,0.00,-9.21,20.54,-31.22
3074,-0.51,6.30,-8.10,0.00,0.00,0.00,-9.21,20.54,-31.22
3085,-0.51,6.31,-8.10,0.00,0.00,0.00,-9.21,20.54,-31.22
3096,-0.51,6.31,-8.10,0.00,0.00,0.00,-9.21,20.54,-31.22
3107,-0.52,6.31,-8.09,0.00,0.00,0.00,-9.21,20.54,-31.22
3118,-0.49,6.31,-8.08,0.00,0.00,0.00,-9.21,20.54,-31.22
3129,-0.49,6.31,-8.08,0.00,0.00,0.00,-9.21,20.54,-31.22
3140,-0.51,6.31,-8.10,0.00,0.00,0.00,-9.04,20.37,-31.41
3151,-0.51,6.31,-8.10,0.00,0.00,0.00,-9.04,20.37,-31.41
3162,-0.50,6.29,-8.13,0.00,0.00,0.00,-9.04,20.37,-31.41
3173,-0.50,6.29,-8.13,0.00,0.00,0.00,-9.04,20.37,-31.41
3189,-0.51,6.32,-8.12,0.00,0.00,0.00,-9.04,20.37,-31.41
3195,-0.51,6.32,-8.12,0.00,0.00,0.00,-9.04,20.37,-31.41
3206,-0.50,6.31,-8.09,0.00,0.00,0.00,-9.04,20.37,-31.41
3217,-0.50,6.31,-8.09,0.00,0.00,0.00,-9.04,20.37,-31.41
3228,-0.50,6.31,-8.10,0.00,0.00,0.00,-9.04,20.37,-31.41
3239,-0.50,6.30,-8.08,0.00,0.00,0.00,-9.04,20.37,-31.41
3250,-0.50,6.30,-8.08,0.00,0.00,0.00,-9.04,20.37,-31.41
3261,-0.50,6.31,-8.10,0.00,0.00,0.00,-9.04,20.37,-31.41
3272,-0.50,6.31,-8.10,0.00,0.00,0.00,-9.04,20.37,-31.41
3288,-0.50,6.30,-8.09,0.00,0.00,0.00,-9.88,21.56,-31.98
3294,-0.50,6.30,-8.09,0.00,0.00,0.00,-9.88,21.56,-31.98
3305,-0.51,6.30,-8.09,0.00,0.00,0.00,-9.88,21.56,-31.98
3316,-0.51,6.30,-8.09,0.00,0.00,0.00,-9.88,21.56,-31.98
3327,-0.50,6.30,-8.10,0.00,0.00,0.00,-9.88,21.56,-31.98
3338,-0.48,6.30,-8.09,0.00,0.00,0.00,-9.88,21.56,-31.98
3349,-0.48,6.30,-8.09,0.00,0.00,0.00,-9.88,21.56,-31.98
3360,-0.50,6.29,-8.10,0.00,0.00,0.00,-9.88,21.56,-31.98
3371,-0.50,6.29,-8.10,0.00,0.00,0.00,-9.88,21.56,-31.98
3382,-0.51,6.30,-8.08,0.00,0.00,0.00,-9.88,21.56,-31.98
3393,-0.51,6.30,-8.08,0.00,0.00,0.00,-9.88,21.56,-31.98
3404,-0.50,6.29,-8.11,0.00,0.00,0.00,-9.04,21.05,-31.03
3415,-0.50,6.29,-8.11,0.00,0.00,0.00,-9.04,21.05,-31.03
3426,-0.49,6.29,-8.13,0.00,0.00,0.00,-9.04,21.05,-31.03
3437,-0.49,6.29,-8.13,0.00,0.00,0.00,-9.04,21.05,-31.03
3448,-0.50,6.30,-8.12,0.00,0.00,0.00,-9.04,21.05,-31.03
3459,-0.51,6.30,-8.13,-0.00,0.00,0.00,-9.04,21.05,-31.03
3470,-0.51,6.30,-8.13,-0.00,0.00,0.00,-9.04,21.05,-31.03
3481,-0.51,6.29,-8.09,0.00,0.00,0.00,-9.04,21.05,-31.03
3492,-0.51,6.29,-8.09,0.00,0.00,0.00,-9.04,21.05,-31.03
3503,-0.50,6.30,-8.11,0.00,0.00,0.00,-9.04,21.05,-31.03
3514,-0.50,6.30,-8.11,0.00,0.00,0.00,-9.04,21.05,-31.03
3525,-0.50,6.31,-8.11,0.00,0.00,0.00,-10.38,22.07,-30.65
3536,-0.50,6.31,-8.11,0.00,0.00,0.00,-10.38,22.07,-30.65
3547,-0.50,6.30,-8.13,0.00,0.00,0.00,-10.38,22.07,-30.65
3558,-0.51,6.29,-8.11,-0.00,0.00,0.00,-10.38,22.07,-30.65
3569,-0.51,6.29,-8.11,-0.00,0.00,0.00,-10.38,22.07,-30.65
3580,-0.51,6.30,-8.12,0.00,0.00,0.00,-10.38,22.07,-30.65
3591,-0.51,6.30,-8.12,0.00,0.00,0.00,-10.38,22.07,-30.65
3602,-0.51,6.30,-8.11,0.00,0.00,0.00,-10.38,22.07,-30.65
3613,-0.51,6.30,-8.11,0.00,0.00,0.00,-10.38,22.07,-30.65
3624,-0.51,6.29,-8.13,0.00,0.00,0.00,-10.38,22.07,-30.65
3635,-0.51,6.29,-8.13,0.00,0.00,0.00,-10.38,22.07,-30.65
3646,-0.50,6.29,-8.11,0.00,0.00,0.00,-10.22,20.54,-31.98
3657,-0.50,6.29,-8.11,0.00,0.00,0.00,-10.22,20.54,-31.98
3668,-0.51,6.30,-8.13,0.00,0.00,0.00,-10.22,20.54,-31.98
3679,-0.51,6.30,-8.11,0.00,0.00,0.00,-10.22,20.54,-31.98
3690,-0.51,6.30,-8.11,0.00,0.00,0.00,-10.22,20.54,-31.98
3701,-0.51,6.29,-8.10,0.00,0.00,0.00,-10.22,20.54,-31.98
3712,-0.51,6.29,-8.10,0.00,0.00,0.00,-10.22,20.54,-31.98
3723,-0.50,6.30,-8.12,0.00,0.00,0.00,-10.22,20.54,-31.98
3734,-0.50,6.30,-8.12,0.00,0.00,0.00,-10.22,20.54,-31.98
3745,-0.50,6.28,-8.10,0.00,0.00,0.00,-10.22,20.54,-31.98
3756,-0.50,6.28,-8.10,0.00,0.00,0.00,-10.22,20.54,-31.98
3767,-0.50,6.29,-8.10,0.00,0.00,0.00,-10.22,20.54,-31.98
3778,-0.51,6.29,-8.13,0.00,0.00,0.00,-9.21,19.51,-30.46
3789,-0.51,6.29,-8.13,0.00,0.00,0.00,-9.21,19.51,-30.46
3800,-0.51,6.30,-8.10,0.00,0.00,0.00,-9.21,19.51,-30.46
3811,-0.51,6.30,-8.10,0.00,0.00,0.00,-9.21,19.51,-30.46
3822,-0.51,6.29,-8.05,0.00,0.00,0.00,-9.21,19.51,-30.46
3833,-0.51,6.29,-8.05,0.00,0.00,0.00,-9.21,19.51,-30.46
3844,-0.51,6.30,-8.10,-0.00,0.00,0.00,-9.21,19.51,-30.46
3855,-0.51,6.30,-8.10,-0.00,0.00,0.00,-9.21,19.51,-30.46
3866,-0.51,6.30,-8.10,-0.00,0.00,0.01,-9.21,19.51,-30.46
3877,-0.51,6.30,-8.10,-0.00,0.00,0.01,-9.21,19.51,-30.46
3888,-0.52,6.29,-8.09,0.00,0.00,0.00,-9.21,19.51,-30.46
3899,-0.50,6.29,-8.13,-0.00,0.00,0.00,-9.21,20.88,-31.22
3910,-0.50,6.29,-8.13,-0.00,0.00,0.00,-9.21,20.88,-31.22
3921,-0.50,6.30,-8.12,0.00,0.00,0.00,-9.21,20.88,-31.22
3932,-0.50,6.30,-8.12,0.00,0.00,0.00,-9.21,20.88,-31.22
3943,-0.51,6.29,-8.10,0.00,0.00,0.00,-9.21,20.88,-31.22
3954,-0.51,6.29,-8.10,0.00,0.00,0.00,-9.21,20.88,-31.22
3965,-0.50,6.27,-8.10,-0.00,0.00,0.00,-9.21,20.88,-31.22
3976,-0.50,6.27,-8.10,-0.00,0.00,0.00,-9.21,20.88,-31.22
3987,-0.51,6.29,-8.11,0.00,0.00,0.00,-9.21,20.88,-31.22
3998,-0.51,6.30,-8.08,0.00,0.00,0.00,-9.21,20.88,-31.22
4009,-0.51,6.30,-8.08,0.00,0.00,0.00,-9.21,20.88,-31.22
4020,-0.51,6.29,-8.10,0.00,0.00,0.00,-9.71,21.05,-31.41
4031,-0.51,6.29,-8.10,0.00,0.00,0.00,-9.71,21.05,-31.41
4042,-0.51,6.31,-8.11,0.00,0.00,0.00,-9.71,21.05,-31.41
4053,-0.51,6.31,-8.11,0.00,0.00,0.00,-9.71,21.05,-31.41
4064,-0.51,6.30,-8.10,-0.00,0.00,0.00,-9.71,21.05,-31.41
4075,-0.51,6.30,-8.10,-0.00,0.00,0.00,-9.71,21.05,-31.41
4086,-0.51,6.29,-8.11,0.00,0.00,0.00,-9.71,21.05,-31.41
4097,-0.51,6.29,-8.11,0.00,0.00,0.00,-9.71,21.05,-31.41
4108,-0.51,6.30,-8.07,0.00,0.00,0.00,-9.71,21.05,-31.41
4119,-0.51,6.30,-8.10,0.00,0.00,0.00,-9.71,21.05,-31.41
4130,-0.51,6.30,-8.10,0.00,0.00,0.00,-9.71,21.05,-31.41
4141,-0.50,6.31,-8.11,0.00,0.00,0.00,-9.71,21.05,-31.41
4152,-0.50,6.31,-8.11,0.00,0.00,0.00,-9.71,21.05,-31.41
4163,-0.49,6.30,-8.12,0.00,0.00,0.00,-9.21,19.51,-31.98
4174,-0.49,6.30,-8.12,0.00,0.00,0.00,-9.21,19.51,-31.98
4185,-0.51,6.29,-8.10,0.00,0.00,0.00,-9.21,19.51,-31.98
4196,-0.51,6.29,-8.10,0.00,0.00,0.00,-9.21,19.51,-31.98
4207,-0.49,6.30,-8.09,0.00,0.00,0.00,-9.21,19.51,-31.98
4218,-0.51,6.31,-8.09,0.00,0.00,0.00,-9.21,19.51,-31.98
4229,-0.51,6.31,-8.09,0.00,0.00,0.00,-9.21,19.51,-31.98
4240,-0.50,6.31,-8.06,0.00,0.00,0.00,-9.21,19.51,-31.98
4251,-0.50,6.31,-8.06,0.00,0.00,0.00,-9.21,19.51,-31.98
4262,-0.52,6.29,-8.08,0.00,0.00,0.00,-9.21,19.51,-31.98
4273,-0.52,6.29,-8.08,0.00,0.00,0.00,-9.21,19.51,-31.98
4284,-0.49,6.30,-8.13,0.00,0.00,0.00,-10.05,21.73,-30.27
4295,-0.49,6.30,-8.13,0.00,0.00,0.00,-10.05,21.73,-30.27
4306,-0.50,6.31,-8.12,0.00,0.00,0.00,-10.05,21.73,-30.27
4317,-0.50,6.31,-8.12,0.00,0.00,0.00,-10.05,21.73,-30.27
4328,-0.50,6.29,-8.08,0.00,0.00,0.00,-10.05,21.73,-30.27
4339,-0.51,6.31,-8.09,0.00,0.00,0.00,-10.05,21.73,-30.27
4350,-0.51,6.31,-8.09,0.00,0.00,0.00,-10.05,21.73,-30.27
4361,-0.50,6.30,-8.12,0.00,0.00,0.01,-10.05,21.73,-30.27
4372,-0.50,6.30,-8.12,0.00,0.00,0.01,-10.05,21.73,-30.27
4383,-0.50,6.29,-8.12,0.00,0.00,0.00,-10.05,21.73,-30.27
4394,-0.50,6.29,-8.12,0.00,0.00,0.00,-10.05,21.73,-30.27
4405,-0.51,6.29,-8.11,0.00,0.00,0.01,-8.04,20.71,-31.41
4416,-0.51,6.29,-8.11,0.00,0.00,0.01,-8.04,20.71,-31.41
4427,-0.51,6.31,-8.11,0.00,0.00,0.00,-8.04,20.71,-31.41
4438,-0.51,6.31,-8.11,0.00,0.00,0.00,-8.04,20.71,-31.41
4449,-0.51,6.30,-8.12,0.00,0.00,0.00,-8.04,20.71,-31.41
4460,-0.51,6.31,-8.10,0.00,0.00,0.00,-8.04,20.71,-31.41
4471,-0.51,6.31,-8.10,0.00,0.00,0.00,-8.04,20.71,-31.41
4482,-0.51,6.29,-8.11,0.00,0.00,0.00,-8.04,20.71,-31.41
4493,-0.51,6.29,-8.11,0.00,0.00,0.00,-8.04,20.71,-31.41
4504,-0.51,6.29,-8.10,0.00,0.00,0.00,-8.04,20.71,-31.41
4515,-0.51,6.29,-8.10,0.00,0.00,0.00,-8.04,20.71,-31.41
4526,-0.51,6.30,-8.10,0.00,0.00,0.00,-8.04,20.71,-31.41
4537,-0.51,6.30,-8.10,0.00,0.00,0.00,-8.04,20.71,-31.41
4548,-0.50,6.31,-8.13,0.00,0.00,0.00,-9.88,22.93,-30.84
4559,-0.51,6.30,-8.10,-0.00,0.00,0.00,-9.88,22.93,-30.84
4570,-0.51,6.30,-8.10,-0.00,0.00,0.00,-9.88,22.93,-30.84
4581,-0.51,6.30,-8.09,-0.00,0.00,0.00,-9.88,22.93,-30.84
4592,-0.51,6.30,-8.09,-0.00,0.00,0.00,-9.88,22.93,-30.84
4603,-0.51,6.29,-8.10,0.00,0.00,0.00,-9.88,22.93,-30.84
4614,-0.51,6.29,-8.10,0.00,0.00,0.00,-9.88,22.93,-30.84
4625,-0.51,6.30,-8.11,0.00,0.00,0.00,-9.88,22.93,-30.84
4636,-0.51,6.30,-8.11,0.00,0.00,0.00,-9.88,22.93,-30.84
4647,-0.51,6.31,-8.10,-0.00,0.00,0.00,-9.88,22.93,-30.84
4658,-0.51,6.31,-8.10,-0.00,0.00,0.00,-9.88,22.93,-30.84
4669,-0.52,6.30,-8.14,0.00,0.00,0.00,-9.04,22.42,-30.65
4680,-0.51,6.29,-8.10,0.00,0.00,0.00,-9.04,22.42,-30.65
4691,-0.51,6.29,-8.10,0.00,0.00,0.00,-9.04,22.42,-30.65
4702,-0.52,6.30,-8.11,0.00,0.00,0.00,-9.04,22.42,-30.65
4713,-0.52,6.30,-8.11,0.00,0.00,0.00,-9.04,22.42,-30.65
4724,-0.51,6.30,-8.10,0.00,0.00,0.01,-9.04,22.42,-30.65
4735,-0.51,6.30,-8.10,0.00,0.00,0.01,-9.04,22.42,-30.65
4746,-0.50,6.31,-8.10,-0.00,0.00,0.00,-9.04,22.42,-30.65
4757,-0.50,6.31,-8.10,-0.00,0.00,0.00,-9.04,22.42,-30.65
4768,-0.51,6.32,-8.13,-0.00,0.00,0.00,-9.04,22.42,-30.65
4779,-0.49,6.31,-8.10,0.00,0.00,0.00,-8.87,20.54,-31.22
4790,-0.49,6.31,-8.10,0.00,0.00,0.00,-8.87,20.54,-31.22
4801,-0.51,6.31,-8.13,0.00,0.00,0.00,-8.87,20.54,-31.22
4812,-0.51,6.31,-8.13,0.00,0.00,0.00,-8.87,20.54,-31.22
4823,-0.51,6.31,-8.09,-0.00,0.00,0.00,-8.87,20.54,-31.22
4834,-0.51,6.31,-8.09,-0.00,0.00,0.00,-8.87,20.54,-31.22
4845,-0.52,6.29,-8.10,0.00,0.00,0.00,-8.87,20.54,-31.22
4856,-0.52,6.29,-8.10,0.00,0.00,0.00,-8.87,20.54,-31.22
4867,-0.51,6.29,-8.12,0.00,0.00,0.00,-8.87,20.54,-31.22
4878,-0.51,6.29,-8.12,0.00,0.00,0.00,-8.87,20.54,-31.22
4889,-0.48,6.30,-8.12,0.00,0.00,0.01,-8.87,20.54,-31.22
4900,-0.50,6.30,-8.12,0.00,0.00,0.00,-8.54,20.20,-30.84
4911,-0.50,6.30,-8.12,0.00,0.00,0.00,-8.54,20.20,-30.84
4922,-0.51,6.29,-8.11,-0.00,0.00,0.00,-8.54,20.20,-30.84
4933,-0.51,6.29,-8.11,-0.00,0.00,0.00,-8.54,20.20,-30.84
4944,-0.51,6.30,-8.10,0.00,0.00,0.00,-8.54,20.20,-30.84
4955,-0.51,6.30,-8.10,0.00,0.00,0.00,-8.54,20.20,-30.84
4966,-0.51,6.31,-8.10,-0.00,0.00,0.00,-8.54,20.20,-30.84
4977,-0.51,6.31,-8.10,-0.00,0.00,0.00,-8.54,20.20,-30.84
4988,-0.50,6.29,-8.09,0.00,0.00,0.01,-8.54,20.20,-30.84
4999,-0.51,6.30,-8.10,0.00,0.00,0.00,-8.54,20.20,-30.84
5010,-0.51,6.30,-8.10,0.00,0.00,0.00,-8.54,20.20,-30.84
5021,-0.51,6.30,-8.13,-0.00,0.00,0.00,-8.54,20.20,-30.84
5032,-0.51,6.30,-8.13,-0.00,0.00,0.00,-8.54,20.20,-30.84
5043,-0.51,6.31,-8.13,0.00,0.00,0.00,-9.88,20.54,-30.84
5054,-0.51,6.31,-8.13,0.00,0.00,0.00,-9.88,20.54,-30.84
5065,-0.52,6.32,-8.13,0.00,0.00,0.00,-9.88,20.54,-30.84
5076,-0.52,6.32,-8.13,0.00,0.00,0.00,-9.88,20.54,-30.84
5087,-0.51,6.32,-8.13,0.00,0.00,0.00,-9.88,20.54,-30.84
5098,-0.51,6.32,-8.13,0.00,0.00,0.00,-9.88,20.54,-30.84
5109,-0.49,6.32,-8.12,0.00,0.00,0.00,-9.88,20.54,-30.84
5120,-0.51,6.31,-8.11,-0.00,0.00,0.00,-9.88,20.54,-30.84
5131,-0.51,6.31,-8.11,-0.00,0.00,0.00,-9.88,20.54,-30.84
5142,-0.52,6.31,-8.10,-0.00,0.00,0.00,-9.88,20.54,-30.84
5153,-0.52,6.31,-8.10,-0.00,0.00,0.00,-9.88,20.54,-30.84
5164,-0.52,6.30,-8.11,-0.00,0.00,0.00,-8.87,20.88,-30.84
5175,-0.52,6.30,-8.11,-0.00,0.00,0.00,-8.87,20.88,-30.84
5186,-0.50,6.29,-8.12,0.00,0.00,0.00,-8.87,20.88,-30.84
5197,-0.50,6.29,-8.12,0.00,0.00,0.00,-8.87,20.88,-30.84
5208,-0.50,6.30,-8.11,0.00,0.00,0.00,-8.87,20.88,-30.84
5219,-0.50,6.30,-8.08,-0.00,0.00,0.00,-8.87,20.88,-30.84
5230,-0.50,6.30,-8.08,-0.00,0.00,0.00,-8.87,20.88,-30.84
5241,-0.51,6.29,-8.11,-0.00,0.00,0.00,-8.87,20.88,-30.84
5252,-0.51,6.29,-8.11,-0.00,0.00,0.00,-8.87,20.88,-30.84
5263,-0.51,6.31,-8.10,-0.00,0.00,0.00,-8.87,20.88,-30.84
5274,-0.51,6.31,-8.10,-0.00,0.00,0.00,-8.87,20.88,-30.84
5285,-0.50,6.28,-8.11,0.00,0.00,0.00,-8.54,21.90,-32.36
5296,-0.50,6.28,-8.11,0.00,0.00,0.00,-8.54,21.90,-32.36
5307,-0.49,6.29,-8.12,0.00,0.00,0.00,-8.54,21.90,-32.36
5318,-0.49,6.29,-8.12,0.00,0.00,0.00,-8.54,21.90,-32.36
5329,-0.51,6.31,-8.13,-0.00,0.00,0.00,-8.54,21.90,-32.36
5340,-0.52,6.31,-8.11,-0.00,0.00,0.00,-8.54,21.90,-32.36
5351,-0.52,6.31,-8.11,-0.00,0.00,0.00,-8.54,21.90,-32.36
5362,-0.52,6.32,-8.10,0.00,0.00,0.00,-8.54,21.90,-32.36
5373,-0.52,6.32,-8.10,0.00,0.00,0.00,-8.54,21.90,-32.36
5384,-0.50,6.32,-8.09,0.00,0.00,0.00,-8.54,21.90,-32.36
5395,-0.50,6.32,-8.09,0.00,0.00,0.00,-8.54,21.90,-32.36
5406,-0.50,6.31,-8.09,0.00,0.00,0.00,-8.54,21.90,-32.36
5417,-0.50,6.31,-8.09,0.00,0.00,0.00,-8.54,21.90,-32.36
5428,-0.50,6.29,-8.11,0.00,0.00,0.00,-8.20,20.54,-30.84
5439,-0.50,6.29,-8.11,0.00,0.00,0.00,-8.20,20.54,-30.84
5450,-0.51,6.30,-8.10,-0.00,0.00,0.00,-8.20,20.54,-30.84
5461,-0.46,6.32,-8.09,-0.00,0.00,0.00,-8.20,20.54,-30.84
5472,-0.46,6.32,-8.09,-0.00,0.00,0.00,-8.20,20.54,-30.84
5483,-0.60,5.99,-8.17,0.09,-0.24,0.39,-8.20,20.54,-30.84
5494,-0.60,5.99,-8.17,0.09,-0.24,0.39,-8.20,20.54,-30.84
5505,-0.51,6.28,-8.17,0.06,-0.52,0.72,-8.20,20.54,-30.84
5516,-0.51,6.28,-8.17,0.06,-0.52,0.72,-8.20,20.54,-30.84
5527,-0.51,6.34,-8.11,-0.01,-0.44,0.51,-8.20,20.54,-30.84
5538,-0.51,6.34,-8.11,-0.01,-0.44,0.51,-8.20,20.54,-30.84
5549,-0.98,6.84,-7.93,-0.16,-0.22,0.09,-8.71,21.73,-30.65
5560,0.04,6.32,-8.33,-0.17,-0.01,-0.20,-8.71,21.73,-30.65
5571,0.04,6.32,-8.33,-0.17,-0.01,-0.20,-8.71,21.73,-30.65
5582,0.02,6.47,-8.00,0.06,0.15,-0.02,-8.71,21.73,-30.65
5593,0.02,6.47,-8.00,0.06,0.15,-0.02,-8.71,21.73,-30.65
5604,0.12,6.62,-7.49,0.19,0.31,0.06,-8.71,21.73,-30.65
5615,0.12,6.62,-7.49,0.19,0.31,0.06,-8.71,21.73,-30.65
5626,0.03,6.42,-8.09,-0.01,0.55,0.05,-8.71,21.73,-30.65
5637,0.03,6.42,-8.09,-0.01,0.55,0.05,-8.71,21.73,-30.65
5648,-1.42,5.67,-8.56,-0.59,0.34,0.05,-8.71,21.73,-30.65
5659,-1.42,5.67,-8.56,-0.59,0.34,0.05,-8.71,21.73,-30.65
5670,-0.42,6.16,-8.29,-0.75,0.13,0.02,-8.87,22.25,-30.84
5681,-0.34,6.46,-7.97,-1.17,-0.06,0.08,-8.87,22.25,-30.84
5692,-0.34,6.46,-7.97,-1.17,-0.06,0.08,-8.87,22.25,-30.84
5703,0.01,6.79,-7.69,-1.64,-0.17,0.07,-8.87,22.25,-30.84
5714,0.01,6.79,-7.69,-1.64,-0.17,0.07,-8.87,22.25,-30.84
5725,-0.32,7.00,-7.43,-1.97,-0.22,0.02,-8.87,22.25,-30.84
5736,-0.32,7.00,-7.43,-1.97,-0.22,0.02,-8.87,22.25,-30.84
5747,-0.28,7.07,-7.33,-2.42,-0.28,0.09,-8.87,22.25,-30.84
5758,-0.28,7.07,-7.33,-2.42,-0.28,0.09,-8.87,22.25,-30.84
5769,-0.25,8.00,-5.98,-3.41,-0.52,0.18,-8.87,22.25,-30.84
5780,-0.57,9.20,-4.82,-4.27,-0.57,0.14,-8.87,22.25,-30.84
5791,-0.57,9.20,-4.82,-4.27,-0.57,0.14,-8.87,22.25,-30.84
5802,-0.78,9.52,-3.57,-3.26,-0.11,0.14,-9.38,29.25,-19.25
5813,-0.78,9.52,-3.57,-3.26,-0.11,0.14,-9.38,29.25,-19.25
5824,-0.84,9.56,-3.50,-2.11,0.47,0.19,-9.38,29.25,-19.25
5835,-0.84,9.56,-3.50,-2.11,0.47,0.19,-9.38,29.25,-19.25
5846,-0.42,9.84,-4.32,-2.02,0.84,0.18,-9.38,29.25,-19.25
5857,-0.42,9.84,-4.32,-2.02,0.84,0.18,-9.38,29.25,-19.25
5868,-0.02,9.82,-3.86,-1.77,0.93,0.19,-9.38,29.25,-19.25
5879,-0.02,9.82,-3.86,-1.77,0.93,0.19,-9.38,29.25,-19.25
5890,-0.07,9.77,-2.94,-1.79,0.90,0.26,-9.38,29.25,-19.25
5901,0.39,9.94,-2.85,-1.72,1.09,0.34,-9.38,29.25,-19.25
5912,0.39,9.94,-2.85,-1.72,1.09,0.34,-9.38,29.25,-19.25
5923,0.57,9.66,-2.73,-1.28,1.39,0.35,-7.03,35.74,-8.60
5934,0.57,9.66,-2.73,-1.28,1.39,0.35,-7.03,35.74,-8.60
5945,0.75,9.56,-2.59,-0.91,1.67,0.34,-7.03,35.74,-8.60
5956,0.75,9.56,-2.59,-0.91,1.67,0.34,-7.03,35.74,-8.60
5967,1.50,10.71,-6.03,-0.58,1.63,0.36,-7.03,35.74,-8.60
5978,1.50,10.71,-6.03,-0.58,1.63,0.36,-7.03,35.74,-8.60
5989,0.93,11.92,-6.97,-0.32,0.83,0.22,-7.03,35.74,-8.60
6000,0.44,10.54,-4.51,-0.88,-0.20,-0.24,-7.03,35.74,-8.60
6011,0.44,10.54,-4.51,-0.88,-0.20,-0.24,-7.03,35.74,-8.60
6022,0.15,9.12,-2.81,-0.94,-0.53,-0.48,-7.03,35.74,-8.60
6033,0.15,9.12,-2.81,-0.94,-0.53,-0.48,-7.03,35.74,-8.60
6044,0.16,9.62,-2.87,-0.80,-0.38,-0.35,-5.86,34.89,-6.51
6055,0.16,9.62,-2.87,-0.80,-0.38,-0.35,-5.86,34.89,-6.51
6066,-0.10,11.19,-2.72,-1.25,-0.43,-0.35,-5.86,34.89,-6.51
6077,-0.10,11.19,-2.72,-1.25,-0.43,-0.35,-5.86,34.89,-6.51
6088,-0.51,12.90,-1.58,-2.08,-0.65,-0.60,-5.86,34.89,-6.51
6099,-0.51,12.90,-1.58,-2.08,-0.65,-0.60,-5.86,34.89,-6.51
6110,-0.58,13.58,-1.05,-3.06,-0.82,-1.07,-5.86,34.89,-6.51
6121,-0.94,14.54,-0.75,-3.90,-0.84,-1.61,-5.86,34.89,-6.51
6132,-0.94,14.54,-0.75,-3.90,-0.84,-1.61,-5.86,34.89,-6.51
6143,-0.75,14.91,-0.96,-4.51,-0.62,-2.18,-5.86,34.89,-6.51
6154,-0.75,14.91,-0.96,-4.51,-0.62,-2.18,-5.86,34.89,-6.51
6165,-1.24,13.12,-0.72,-4.50,-0.54,-2.76,-11.56,28.39,12.88
6176,-1.24,13.12,-0.72,-4.50,-0.54,-2.76,-11.56,28.39,12.88
6187,-1.29,11.18,-1.47,-5.17,-0.73,-3.45,-11.56,28.39,12.88
6198,-1.29,11.18,-1.47,-5.17,-0.73,-3.45,-11.56,28.39,12.88
6209,-1.36,10.35,-0.52,-5.71,-1.09,-4.03,-11.56,28.39,12.88
6220,-1.21,9.39,-1.66,-4.42,-1.09,-4.24,-11.56,28.39,12.88
6231,-1.21,9.39,-1.66,-4.42,-1.09,-4.24,-11.56,28.39,12.88
6242,-2.08,7.96,0.26,-0.81,-1.00,-4.23,-11.56,28.39,12.88
6253,-2.08,7.96,0.26,-0.81,-1.00,-4.23,-11.56,28.39,12.88
6264,-1.39,7.90,0.08,0.61,-1.25,-4.54,-11.56,28.39,12.88
6275,-1.39,7.90,0.08,0.61,-1.25,-4.54,-11.56,28.39,12.88
6286,-2.25,7.08,1.14,1.40,-1.82,-4.98,-11.56,28.39,12.88
6297,-2.25,7.08,1.14,1.40,-1.82,-4.98,-11.56,28.39,12.88
6308,-3.45,5.67,3.59,0.71,-2.56,-5.38,-21.62,12.34,30.74
6319,-3.45,5.67,3.59,0.71,-2.56,-5.38,-21.62,12.34,30.74
6330,-2.72,5.88,1.56,-1.95,-3.15,-5.76,-21.62,12.34,30.74
6341,-1.42,5.04,0.78,-2.10,-3.54,-5.93,-21.62,12.34,30.74
6352,-1.42,5.04,0.78,-2.10,-3.54,-5.93,-21.62,12.34,30.74
6363,-0.82,3.18,1.49,-1.24,-4.08,-6.00,-21.62,12.34,30.74
6374,-0.82,3.18,1.49,-1.24,-4.08,-6.00,-21.62,12.34,30.74
6385,0.46,2.39,1.61,-1.09,-4.78,-6.10,-21.62,12.34,30.74
6396,0.46,2.39,1.61,-1.09,-4.78,-6.10,-21.62,12.34,30.74
6407,2.08,-4.18,33.78,-1.49,-5.57,-6.18,-21.62,12.34,30.74
6418,2.08,-4.18,33.78,-1.49,-5.57,-6.18,-21.62,12.34,30.74
6429,-1.40,-0.27,8.27,-3.40,-2.10,-5.69,-8.20,-15.33,47.85
6440,-2.29,-3.58,10.40,0.23,-0.59,-4.74,-8.20,-15.33,47.85
6451,-2.29,-3.58,10.40,0.23,-0.59,-4.74,-8.20,-15.33,47.85
6462,-3.80,-3.45,10.41,-3.19,-0.66,-4.17,-8.20,-15.33,47.85
6473,-3.80,-3.45,10.41,-3.19,-0.66,-4.17,-8.20,-15.33,47.85
6484,-3.55,-4.51,9.23,-3.51,-0.13,-3.49,-8.20,-15.33,47.85
6495,-3.55,-4.51,9.23,-3.51,-0.13,-3.49,-8.20,-15.33,47.85
6506,-4.65,-4.70,10.48,-4.27,0.25,-3.00,-8.20,-15.33,47.85
6517,-4.65,-4.70,10.48,-4.27,0.25,-3.00,-8.20,-15.33,47.85
6528,-4.05,-2.66,9.79,-5.45,1.02,-3.00,-8.20,-15.33,47.85
6539,-4.05,-2.66,9.79,-5.45,1.02,-3.00,-8.20,-15.33,47.85
6550,-6.93,-2.85,6.08,-5.26,2.12,-3.48,-1.83,-40.27,34.55
6561,-1.99,-6.06,7.51,-1.54,3.38,-3.25,-1.83,-40.27,34.55
6572,-1.99,-6.06,7.51,-1.54,3.38,-3.25,-1.83,-40.27,34.55
6583,-2.90,-5.61,6.54,-1.47,3.79,-2.40,-1.83,-40.27,34.55
6594,-2.90,-5.61,6.54,-1.47,3.79,-2.40,-1.83,-40.27,34.55
6605,-5.19,-4.07,8.44,-2.05,3.89,-1.82,-1.83,-40.27,34.55
6616,-5.19,-4.07,8.44,-2.05,3.89,-1.82,-1.83,-40.27,34.55
6627,-3.81,-5.86,8.62,-3.66,4.09,-2.02,-1.83,-40.27,34.55
6638,-3.81,-5.86,8.62,-3.66,4.09,-2.02,-1.83,-40.27,34.55
6649,-2.53,-5.87,6.49,-5.40,4.65,-1.82,-1.83,-40.27,34.55
6660,-2.53,-5.87,6.49,-5.40,4.65,-1.82,-1.83,-40.27,34.55
6671,-1.54,-7.49,3.16,-5.97,4.96,-0.74,-1.83,-40.27,34.55
6682,-5.12,-5.72,4.05,-5.55,5.03,0.52,-3.00,-47.96,9.65
6693,-5.12,-5.72,4.05,-5.55,5.03,0.52,-3.00,-47.96,9.65
6704,-5.22,-4.76,3.40,-6.47,6.07,0.76,-3.00,-47.96,9.65
6715,-5.22,-4.76,3.40,-6.47,6.07,0.76,-3.00,-47.96,9.65
6726,-3.87,-3.83,1.31,-8.83,7.10,0.46,-3.00,-47.96,9.65
6737,-3.87,-3.83,1.31,-8.83,7.10,0.46,-3.00,-47.96,9.65
6748,-2.69,-1.63,-2.85,-11.22,7.32,0.46,-3.00,-47.96,9.65
6759,-2.69,-1.63,-2.85,-11.22,7.32,0.46,-3.00,-47.96,9.65
6770,-2.67,-0.28,-7.81,-13.25,6.48,0.59,-3.00,-47.96,9.65
6781,-2.53,3.43,-13.88,-13.00,5.28,0.83,-3.00,-47.96,9.65
6792,-2.53,3.43,-13.88,-13.00,5.28,0.83,-3.00,-47.96,9.65
6803,-1.35,4.39,-19.49,-7.62,3.26,0.76,10.75,-17.21,-47.76
6814,-1.35,4.39,-19.49,-7.62,3.26,0.76,10.75,-17.21,-47.76
6825,-2.27,0.32,-9.06,-0.49,0.70,0.44,10.75,-17.21,-47.76
6836,-2.27,0.32,-9.06,-0.49,0.70,0.44,10.75,-17.21,-47.76
6847,-4.24,0.49,-7.95,1.07,0.42,0.57,10.75,-17.21,-47.76
6858,-4.24,0.49,-7.95,1.07,0.42,0.57,10.75,-17.21,-47.76
6869,-5.21,2.04,-10.08,-0.25,1.12,0.41,10.75,-17.21,-47.76
6880,-5.21,2.04,-10.08,-0.25,1.12,0.41,10.75,-17.21,-47.76
6891,-3.27,2.59,-14.67,-1.49,1.65,-0.13,10.75,-17.21,-47.76
6902,-1.06,2.10,-15.50,-0.47,1.11,-0.35,10.75,-17.21,-47.76
6913,-1.06,2.10,-15.50,-0.47,1.11,-0.35,10.75,-17.21,-47.76
6924,-1.34,1.19,-12.59,1.37,0.09,-0.06,15.61,-16.70,-46.81
6935,-1.34,1.19,-12.59,1.37,0.09,-0.06,15.61,-16.70,-46.81
6946,-1.82,1.12,-12.16,2.36,-0.26,0.17,15.61,-16.70,-46.81
6957,-1.82,1.12,-12.16,2.36,-0.26,0.17,15.61,-16.70,-46.81
6968,-1.69,0.04,-12.94,2.79,-0.51,0.11,15.61,-16.70,-46.81
6979,-1.69,0.04,-12.94,2.79,-0.51,0.11,15.61,-16.70,-46.81
6990,-1.81,-0.55,-12.55,2.97,-1.08,0.11,15.61,-16.70,-46.81
7001,-3.17,-0.73,-12.30,3.34,-1.14,0.04,15.61,-16.70,-46.81
7012,-3.17,-0.73,-12.30,3.34,-1.14,0.04,15.61,-16.70,-46.81
7023,-3.06,-2.72,-10.23,4.09,-0.49,-0.39,15.61,-16.70,-46.81
7034,-3.06,-2.72,-10.23,4.09,-0.49,-0.39,15.61,-16.70,-46.81
7045,-3.00,-6.92,-8.10,3.44,0.23,-0.77,15.61,-16.70,-46.81
7056,-3.00,-6.92,-8.10,3.44,0.23,-0.77,15.61,-16.70,-46.81
7067,-2.65,-8.27,-7.50,2.45,0.40,-0.56,13.10,-31.56,-38.25
7078,-2.65,-8.27,-7.50,2.45,0.40,-0.56,13.10,-31.56,-38.25
7089,-1.16,-6.77,-13.54,1.90,0.19,-0.40,13.10,-31.56,-38.25
7100,-1.16,-6.77,-13.54,1.90,0.19,-0.40,13.10,-31.56,-38.25
7111,1.14,-6.08,-13.15,4.69,-1.65,-0.14,13.10,-31.56,-38.25
7122,-4.10,-7.29,-2.67,5.76,-2.53,0.48,13.10,-31.56,-38.25
7133,-4.10,-7.29,-2.67,5.76,-2.53,0.48,13.10,-31.56,-38.25
7144,0.16,-7.80,-7.42,3.39,-1.66,-0.16,13.10,-31.56,-38.25
7155,0.16,-7.80,-7.42,3.39,-1.66,-0.16,13.10,-31.56,-38.25
7166,-0.79,-4.96,-11.22,4.93,-3.19,0.45,13.10,-31.56,-38.25
7177,-0.79,-4.96,-11.22,4.93,-3.19,0.45,13.10,-31.56,-38.25
7188,-0.16,-5.35,-4.92,7.97,-5.35,1.40,5.55,-47.45,-17.16
7199,-0.16,-5.35,-4.92,7.97,-5.35,1.40,5.55,-47.45,-17.16
7210,4.22,-2.88,-5.20,9.85,-5.97,2.60,5.55,-47.45,-17.16
7221,2.89,-3.93,3.77,12.51,-6.14,4.12,5.55,-47.45,-17.16
7232,2.89,-3.93,3.77,12.51,-6.14,4.12,5.55,-47.45,-17.16
7243,-5.35,-3.37,10.49,6.21,-5.49,4.34,5.55,-47.45,-17.16
7254,-5.35,-3.37,10.49,6.21,-5.49,4.34,5.55,-47.45,-17.16
7265,-7.56,-0.94,0.22,2.98,-3.00,3.73,5.55,-47.45,-17.16
7276,-7.56,-0.94,0.22,2.98,-3.00,3.73,5.55,-47.45,-17.16
7287,-7.89,-3.15,6.22,3.56,-2.63,2.71,5.55,-47.45,-17.16
7298,-7.89,-3.15,6.22,3.56,-2.63,2.71,5.55,-47.45,-17.16
7309,-6.65,-1.73,6.90,-0.77,-2.16,1.23,-7.87,-39.25,26.18
7320,-6.65,-1.73,6.90,-0.77,-2.16,1.23,-7.87,-39.25,26.18
7331,-7.34,-1.49,8.59,-6.01,-1.82,-0.58,-7.87,-39.25,26.18
7342,-5.21,-5.31,5.69,-10.29,-1.02,-1.85,-7.87,-39.25,26.18
7353,-5.21,-5.31,5.69,-10.29,-1.02,-1.85,-7.87,-39.25,26.18
7364,-7.40,-9.52,2.64,-10.18,-0.22,-1.17,-7.87,-39.25,26.18
7375,-7.40,-9.52,2.64,-10.18,-0.22,-1.17,-7.87,-39.25,26.18
7386,-8.66,-7.60,-0.13,-10.42,0.11,-0.24,-7.87,-39.25,26.18
7397,-8.66,-7.60,-0.13,-10.42,0.11,-0.24,-7.87,-39.25,26.18
7408,-7.92,-5.20,-2.88,-8.44,0.21,0.10,-7.87,-39.25,26.18
7419,-7.92,-5.20,-2.88,-8.44,0.21,0.10,-7.87,-39.25,26.18
7430,-7.09,-6.78,-3.67,-4.10,-0.18,0.12,-1.66,-41.81,-16.97
7441,-7.19,-7.37,-2.93,-0.90,-0.59,0.23,-1.66,-41.81,-16.97
7452,-7.19,-7.37,-2.93,-0.90,-0.59,0.23,-1.66,-41.81,-16.97
7463,-6.97,-6.92,-2.75,0.59,-0.80,0.26,-1.66,-41.81,-16.97
7474,-6.97,-6.92,-2.75,0.59,-0.80,0.26,-1.66,-41.81,-16.97
7485,-7.69,-7.59,-0.88,2.28,-0.81,0.41,-1.66,-41.81,-16.97
7496,-7.69,-7.59,-0.88,2.28,-0.81,0.41,-1.66,-41.81,-16.97
7507,-6.82,-7.25,-0.23,3.25,-0.71,0.52,-1.66,-41.81,-16.97
7518,-6.82,-7.25,-0.23,3.25,-0.71,0.52,-1.66,-41.81,-16.97
7529,-6.91,-6.08,-1.53,4.42,-0.57,0.69,-1.66,-41.81,-16.97
7540,-6.91,-6.08,-1.53,4.42,-0.57,0.69,-1.66,-41.81,-16.97
7551,-8.47,-6.98,1.31,6.55,-0.45,0.95,-1.66,-41.81,-16.97
7562,-9.12,-6.47,2.82,6.47,-0.23,0.98,-8.20,-46.76,2.61
7573,-9.12,-6.47,2.82,6.47,-0.23,0.98,-8.20,-46.76,2.61
7584,-9.23,-6.50,3.00,5.56,0.00,0.67,-8.20,-46.76,2.61
7595,-9.23,-6.50,3.00,5.56,0.00,0.67,-8.20,-46.76,2.61
7606,-6.93,-6.86,4.39,4.78,0.14,0.39,-8.20,-46.76,2.61
7617,-6.93,-6.86,4.39,4.78,0.14,0.39,-8.20,-46.76,2.61
7628,-6.22,-6.58,4.55,3.85,0.49,0.29,-8.20,-46.76,2.61
7639,-6.22,-6.58,4.55,3.85,0.49,0.29,-8.20,-46.76,2.61
7650,-5.52,-5.41,3.48,3.29,0.82,0.32,-8.20,-46.76,2.61
7661,-6.81,-5.76,4.76,2.88,1.04,0.30,-8.20,-46.76,2.61
7672,-6.81,-5.76,4.76,2.88,1.04,0.30,-8.20,-46.76,2.61
7683,-7.61,-4.85,3.87,1.72,1.24,0.16,-10.55,-39.25,22.76
7694,-7.61,-4.85,3.87,1.72,1.24,0.16,-10.55,-39.25,22.76
7705,-7.77,-5.46,4.42,1.15,1.31,-0.10,-10.55,-39.25,22.76
7716,-7.77,-5.46,4.42,1.15,1.31,-0.10,-10.55,-39.25,22.76
7727,-7.13,-5.65,3.44,0.57,1.34,-0.16,-10.55,-39.25,22.76
7738,-7.13,-5.65,3.44,0.57,1.34,-0.16,-10.55,-39.25,22.76
7749,-7.21,-4.83,2.07,0.22,1.22,-0.06,-10.55,-39.25,22.76
7760,-7.21,-4.83,2.07,0.22,1.22,-0.06,-10.55,-39.25,22.76
7771,-7.27,-4.85,0.73,0.24,0.86,-0.09,-10.55,-39.25,22.76
7782,-7.56,-5.98,2.56,0.63,0.34,-0.06,-10.55,-39.25,22.76
7793,-7.56,-5.98,2.56,0.63,0.34,-0.06,-10.55,-39.25,22.76
7804,-8.45,-5.56,2.04,0.46,0.19,0.01,-10.72,-39.42,23.33
7815,-8.45,-5.56,2.04,0.46,0.19,0.01,-10.72,-39.42,23.33
7826,-7.78,-5.48,2.30,0.37,0.04,-0.01,-10.72,-39.42,23.33
7837,-7.78,-5.48,2.30,0.37,0.04,-0.01,-10.72,-39.42,23.33
7848,-7.25,-5.15,2.60,0.51,-0.07,0.17,-10.72,-39.42,23.33
7859,-7.25,-5.15,2.60,0.51,-0.07,0.17,-10.72,-39.42,23.33
7870,-7.84,-4.76,3.38,0.62,-0.18,0.38,-10.72,-39.42,23.33
7881,-7.84,-4.76,3.38,0.62,-0.18,0.38,-10.72,-39.42,23.33
7892,-7.74,-4.82,3.68,0.54,-0.13,0.39,-10.72,-39.42,23.33
7903,-7.25,-4.98,3.69,0.32,-0.00,0.33,-10.72,-39.42,23.33
7914,-7.25,-4.98,3.69,0.32,-0.00,0.33,-10.72,-39.42,23.33
7925,-7.34,-5.00,3.52,0.14,0.11,0.32,-10.72,-39.42,23.33
7936,-7.34,-5.00,3.52,0.14,0.11,0.32,-10.72,-39.42,23.33
7947,-8.26,-4.57,3.63,0.08,0.09,0.34,-12.23,-38.22,24.28
7958,-8.26,-4.57,3.63,0.08,0.09,0.34,-12.23,-38.22,24.28
7969,-8.42,-4.13,4.00,0.06,-0.04,0.22,-12.23,-38.22,24.28
7980,-8.42,-4.13,4.00,0.06,-0.04,0.22,-12.23,-38.22,24.28
7991,-7.77,-4.43,3.66,0.10,-0.05,0.10,-12.23,-38.22,24.28
8002,-8.14,-4.43,3.61,0.25,-0.07,0.15,-12.23,-38.22,24.28
8013,-8.14,-4.43,3.61,0.25,-0.07,0.15,-12.23,-38.22,24.28
8024,-8.64,-4.10,3.58,0.31,-0.12,0.16,-12.23,-38.22,24.28
8035,-8.64,-4.10,3.58,0.31,-0.12,0.16,-12.23,-38.22,24.28
8046,-8.44,-4.03,3.33,0.22,-0.10,0.03,-12.23,-38.22,24.28
8057,-8.44,-4.03,3.33,0.22,-0.10,0.03,-12.23,-38.22,24.28
8068,-8.12,-4.40,3.56,0.19,-0.06,-0.09,-13.07,-35.66,25.61
8079,-8.12,-4.40,3.56,0.19,-0.06,-0.09,-13.07,-35.66,25.61
8090,-7.40,-4.74,3.85,0.24,-0.01,-0.07,-13.07,-35.66,25.61
8101,-7.40,-4.74,3.85,0.24,-0.01,-0.07,-13.07,-35.66,25.61
8112,-7.34,-4.72,4.22,0.33,0.03,0.09,-13.07,-35.66,25.61
8123,-7.78,-4.23,4.46,0.27,0.13,0.21,-13.07,-35.66,25.61
8134,-7.78,-4.23,4.46,0.27,0.13,0.21,-13.07,-35.66,25.61
8145,-8.13,-4.20,3.65,0.09,0.30,0.17,-13.07,-35.66,25.61
8156,-8.13,-4.20,3.65,0.09,0.30,0.17,-13.07,-35.66,25.61
8167,-7.89,-4.41,3.39,0.08,0.36,0.13,-13.07,-35.66,25.61
8178,-7.89,-4.41,3.39,0.08,0.36,0.13,-13.07,-35.66,25.61
8189,-7.60,-4.62,3.39,0.15,0.37,0.21,-14.41,-35.32,24.85
8200,-7.60,-4.62,3.39,0.15,0.37,0.21,-14.41,-35.32,24.85
8211,-9.01,-4.01,3.86,0.15,0.23,0.27,-14.41,-35.32,24.85
8222,-8.38,-3.70,3.38,0.19,0.14,0.21,-14.41,-35.32,24.85
8233,-8.38,-3.70,3.38,0.19,0.14,0.21,-14.41,-35.32,24.85
8244,-8.38,-3.78,3.75,0.17,0.06,0.17,-14.41,-35.32,24.85
8255,-8.38,-3.78,3.75,0.17,0.06,0.17,-14.41,-35.32,24.85
8266,-8.21,-3.94,3.46,0.05,0.03,0.10,-14.41,-35.32,24.85
8277,-8.21,-3.94,3.46,0.05,0.03,0.10,-14.41,-35.32,24.85
8288,-8.11,-4.00,3.43,-0.02,0.01,0.06,-14.41,-35.32,24.85
8299,-8.11,-4.00,3.43,-0.02,0.01,0.06,-14.41,-35.32,24.85
8310,-7.86,-3.93,3.38,-0.11,-0.05,0.02,-14.41,-35.32,24.85
8321,-7.86,-3.93,3.38,-0.11,-0.05,0.02,-14.41,-35.32,24.85
8332,-7.83,-4.26,3.67,-0.21,-0.18,-0.02,-14.07,-36.00,23.71
8343,-8.37,-4.11,3.98,-0.24,-0.22,-0.02,-14.07,-36.00,23.71
8354,-8.37,-4.11,3.98,-0.24,-0.22,-0.02,-14.07,-36.00,23.71
8365,-7.63,-3.71,3.82,-0.26,-0.18,-0.05,-14.07,-36.00,23.71
8376,-7.63,-3.71,3.82,-0.26,-0.18,-0.05,-14.07,-36.00,23.71
8387,-8.26,-4.43,3.72,-0.38,-0.21,-0.15,-14.07,-36.00,23.71
8398,-8.26,-4.43,3.72,-0.38,-0.21,-0.15,-14.07,-36.00,23.71
8409,-8.54,-3.85,3.33,-0.35,-0.14,-0.15,-14.07,-36.00,23.71
8420,-8.54,-3.85,3.33,-0.35,-0.14,-0.15,-14.07,-36.00,23.71
8431,-8.14,-4.30,3.29,-0.21,-0.17,-0.21,-14.07,-36.00,23.71
8442,-8.53,-4.33,3.42,-0.13,-0.23,-0.22,-13.91,-35.15,24.28
8453,-8.53,-4.33,3.42,-0.13,-0.23,-0.22,-13.91,-35.15,24.28
8464,-7.85,-4.49,3.76,-0.12,-0.21,-0.22,-13.91,-35.15,24.28
8475,-7.85,-4.49,3.76,-0.12,-0.21,-0.22,-13.91,-35.15,24.28
8486,-8.19,-4.32,3.82,-0.30,-0.21,-0.27,-13.91,-35.15,24.28
8497,-8.19,-4.32,3.82,-0.30,-0.21,-0.27,-13.91,-35.15,24.28
8508,-8.10,-4.28,3.96,-0.37,-0.12,-0.31,-13.91,-35.15,24.28
8519,-8.10,-4.28,3.96,-0.37,-0.12,-0.31,-13.91,-35.15,24.28
8530,-7.97,-5.02,3.00,-0.38,-0.02,-0.32,-13.91,-35.15,24.28
8541,-7.97,-5.02,3.00,-0.38,-0.02,-0.32,-13.91,-35.15,24.28
8552,-8.03,-4.97,2.76,-0.16,-0.03,-0.23,-13.91,-35.15,24.28
8563,-8.17,-4.67,3.63,0.24,-0.09,-0.07,-11.72,-37.03,24.85
8574,-8.17,-4.67,3.63,0.24,-0.09,-0.07,-11.72,-37.03,24.85
8585,-8.17,-4.54,3.66,0.27,-0.07,0.02,-11.72,-37.03,24.85
8596,-8.17,-4.54,3.66,0.27,-0.07,0.02,-11.72,-37.03,24.85
8607,-8.51,-4.44,3.90,0.16,-0.04,0.05,-11.72,-37.03,24.85
8618,-8.51,-4.44,3.90,0.16,-0.04,0.05,-11.72,-37.03,24.85
8629,-8.26,-4.79,3.51,0.19,0.05,0.15,-11.72,-37.03,24.85
8640,-8.26,-4.79,3.51,0.19,0.05,0.15,-11.72,-37.03,24.85
8651,-7.90,-4.41,4.08,0.18,0.07,0.28,-11.72,-37.03,24.85
8662,-7.61,-4.71,3.43,0.21,0.10,0.33,-11.72,-37.03,24.85
8673,-7.61,-4.71,3.43,0.21,0.10,0.33,-11.72,-37.03,24.85
8684,-7.66,-4.21,3.95,0.35,0.13,0.41,-13.74,-35.66,24.09
8695,-7.66,-4.21,3.95,0.35,0.13,0.41,-13.74,-35.66,24.09
8706,-7.65,-4.50,3.86,0.17,0.12,0.32,-13.74,-35.66,24.09
8717,-7.65,-4.50,3.86,0.17,0.12,0.32,-13.74,-35.66,24.09
8728,-7.81,-4.47,3.39,0.19,0.06,0.32,-13.74,-35.66,24.09
8739,-7.81,-4.47,3.39,0.19,0.06,0.32,-13.74,-35.66,24.09
8750,-8.03,-3.75,3.59,0.21,-0.05,0.37,-13.74,-35.66,24.09
8761,-8.03,-3.75,3.59,0.21,-0.05,0.37,-13.74,-35.66,24.09
8772,-7.92,-3.98,3.85,0.17,-0.07,0.34,-13.74,-35.66,24.09
8783,-8.14,-3.60,4.13,-0.05,-0.06,0.27,-13.74,-35.66,24.09
8794,-8.14,-3.60,4.13,-0.05,-0.06,0.27,-13.74,-35.66,24.09
8805,-8.05,-3.51,4.39,-0.10,-0.02,0.23,-13.74,-35.66,24.09
8816,-8.05,-3.51,4.39,-0.10,-0.02,0.23,-13.74,-35.66,24.09
8827,-7.86,-4.35,3.96,-0.21,0.00,0.15,-14.74,-34.98,26.37
8838,-7.86,-4.35,3.96,-0.21,0.00,0.15,-14.74,-34.98,26.37
8849,-8.12,-3.91,4.06,-0.22,0.00,0.12,-14.74,-34.98,26.37
8860,-8.12,-3.91,4.06,-0.22,0.00,0.12,-14.74,-34.98,26.37
8871,-7.78,-4.51,3.28,-0.16,0.01,0.05,-14.74,-34.98,26.37
8882,-7.78,-4.51,3.28,-0.16,0.01,0.05,-14.74,-34.98,26.37
8893,-7.68,-3.93,3.38,-0.08,-0.12,0.06,-14.74,-34.98,26.37
8904,-8.08,-3.91,4.00,-0.07,-0.23,0.05,-14.74,-34.98,26.37
8915,-8.08,-3.91,4.00,-0.07,-0.23,0.05,-14.74,-34.98,26.37
8926,-7.86,-3.79,3.97,-0.05,-0.21,0.02,-14.74,-34.98,26.37
8937,-7.86,-3.79,3.97,-0.05,-0.21,0.02,-14.74,-34.98,26.37
8948,-7.78,-3.99,4.09,-0.11,-0.16,-0.06,-15.08,-36.34,25.23
8959,-7.78,-3.99,4.09,-0.11,-0.16,-0.06,-15.08,-36.34,25.23
8970,-7.85,-4.44,4.06,-0.20,-0.16,-0.10,-15.08,-36.34,25.23
8981,-7.85,-4.44,4.06,-0.20,-0.16,-0.10,-15.08,-36.34,25.23
8992,-7.47,-4.04,3.60,-0.27,-0.16,-0.11,-15.08,-36.34,25.23
9003,-8.21,-4.45,3.30,-0.35,-0.18,-0.20,-15.08,-36.34,25.23
9014,-8.21,-4.45,3.30,-0.35,-0.18,-0.20,-15.08,-36.34,25.23
9025,-8.48,-4.03,3.55,-0.31,-0.14,-0.20,-15.08,-36.34,25.23
9036,-8.48,-4.03,3.55,-0.31,-0.14,-0.20,-15.08,-36.34,25.23
9047,-8.01,-4.59,3.34,-0.25,-0.11,-0.23,-15.08,-36.34,25.23
9058,-8.01,-4.59,3.34,-0.25,-0.11,-0.23,-15.08,-36.34,25.23
9069,-8.33,-4.36,3.90,-0.09,-0.13,-0.21,-14.24,-35.49,24.66
9080,-8.33,-4.36,3.90,-0.09,-0.13,-0.21,-14.24,-35.49,24.66
9091,-8.24,-4.38,4.14,0.05,-0.06,-0.21,-14.24,-35.49,24.66
9102,-8.24,-4.38,4.14,0.05,-0.06,-0.21,-14.24,-35.49,24.66
9113,-8.05,-4.48,4.34,0.15,0.01,-0.16,-14.24,-35.49,24.66
9124,-8.04,-4.09,3.83,0.09,0.09,-0.11,-14.24,-35.49,24.66
9135,-8.04,-4.09,3.83,0.09,0.09,-0.11,-14.24,-35.49,24.66
9146,-8.13,-3.97,3.95,-0.00,0.07,-0.05,-14.24,-35.49,24.66
9157,-8.13,-3.97,3.95,-0.00,0.07,-0.05,-14.24,-35.49,24.66
9168,-8.30,-4.13,3.98,-0.16,0.10,-0.06,-14.24,-35.49,24.66
9179,-8.30,-4.13,3.98,-0.16,0.10,-0.06,-14.24,-35.49,24.66
9190,-8.21,-4.68,3.30,-0.20,0.14,-0.03,-14.24,-35.49,24.66
9201,-8.21,-4.68,3.30,-0.20,0.14,-0.03,-14.24,-35.49,24.66
9212,-7.82,-4.76,3.33,0.05,0.13,0.14,-13.40,-35.66,24.47
9223,-8.04,-4.16,4.07,0.16,0.08,0.24,-13.40,-35.66,24.47
9234,-8.04,-4.16,4.07,0.16,0.08,0.24,-13.40,-35.66,24.47
9245,-7.89,-4.28,3.92,0.12,0.11,0.22,-13.40,-35.66,24.47
9256,-7.89,-4.28,3.92,0.12,0.11,0.22,-13.40,-35.66,24.47
9267,-7.86,-4.00,3.92,0.03,0.13,0.21,-13.40,-35.66,24.47
9278,-7.86,-4.00,3.92,0.03,0.13,0.21,-13.40,-35.66,24.47
9289,-7.97,-4.08,3.82,-0.00,0.10,0.19,-13.40,-35.66,24.47
9300,-7.97,-4.08,3.82,-0.00,0.10,0.19,-13.40,-35.66,24.47
9311,-7.91,-4.33,3.68,-0.05,0.07,0.19,-13.40,-35.66,24.47
9322,-7.91,-4.33,3.68,-0.05,0.07,0.19,-13.40,-35.66,24.47
9333,-7.76,-5.10,3.49,0.03,-0.01,0.27,-12.90,-35.49,25.04
9344,-7.86,-3.34,4.13,0.04,-0.08,0.35,-12.90,-35.49,25.04
9355,-7.86,-3.34,4.13,0.04,-0.08,0.35,-12.90,-35.49,25.04
9366,-7.94,-4.08,4.11,-0.08,-0.04,0.23,-12.90,-35.49,25.04
9377,-7.94,-4.08,4.11,-0.08,-0.04,0.23,-12.90,-35.49,25.04
9388,-7.93,-4.36,3.68,-0.11,-0.01,0.21,-12.90,-35.49,25.04
9399,-7.93,-4.36,3.68,-0.11,-0.01,0.21,-12.90,-35.49,25.04
9410,-7.95,-3.47,3.52,-0.07,-0.05,0.23,-12.90,-35.49,25.04
9421,-7.95,-3.47,3.52,-0.07,-0.05,0.23,-12.90,-35.49,25.04
9432,-7.82,-3.96,3.11,-0.12,-0.07,0.11,-12.90,-35.49,25.04
9443,-7.96,-3.74,3.19,-0.11,-0.14,0.05,-13.57,-35.83,23.52
9454,-7.96,-3.74,3.19,-0.11,-0.14,0.05,-13.57,-35.83,23.52
9465,-8.11,-3.46,4.15,-0.07,-0.21,0.03,-13.57,-35.83,23.52
9476,-8.11,-3.46,4.15,-0.07,-0.21,0.03,-13.57,-35.83,23.52
9487,-7.94,-4.12,4.16,-0.26,-0.18,-0.10,-13.57,-35.83,23.52
9498,-7.94,-4.12,4.16,-0.26,-0.18,-0.10,-13.57,-35.83,23.52
9509,-8.21,-4.19,3.74,-0.34,-0.13,-0.16,-13.57,-35.83,23.52
9520,-8.21,-4.19,3.74,-0.34,-0.13,-0.16,-13.57,-35.83,23.52
9531,-7.73,-4.06,3.71,-0.25,-0.10,-0.18,-13.57,-35.83,23.52
9542,-7.73,-4.06,3.71,-0.25,-0.10,-0.18,-13.57,-35.83,23.52
9553,-8.30,-4.12,3.61,-0.09,-0.10,-0.27,-13.57,-35.83,23.52
9564,-8.11,-4.45,3.54,-0.05,-0.03,-0.35,-13.57,-35.83,23.52
9575,-8.11,-4.45,3.54,-0.05,-0.03,-0.35,-13.57,-35.83,23.52
9586,-7.99,-4.91,3.06,-0.20,0.00,-0.35,-13.91,-36.17,23.52
9597,-7.99,-4.91,3.06,-0.20,0.00,-0.35,-13.91,-36.17,23.52
9608,-8.22,-4.53,3.19,-0.27,-0.00,-0.31,-13.91,-36.17,23.52
9619,-8.22,-4.53,3.19,-0.27,-0.00,-0.31,-13.91,-36.17,23.52
9630,-7.99,-4.24,3.60,-0.26,0.00,-0.33,-13.91,-36.17,23.52
9641,-7.99,-4.24,3.60,-0.26,0.00,-0.33,-13.91,-36.17,23.52
9652,-8.20,-4.79,4.03,-0.17,0.04,-0.31,-13.91,-36.17,23.52
9663,-8.16,-4.16,3.58,-0.10,0.09,-0.19,-13.91,-36.17,23.52
9674,-8.16,-4.16,3.58,-0.10,0.09,-0.19,-13.91,-36.17,23.52
9685,-8.18,-4.28,3.85,-0.12,0.06,-0.08,-13.91,-36.17,23.52
9696,-8.18,-4.28,3.85,-0.12,0.06,-0.08,-13.91,-36.17,23.52
9707,-8.78,-4.96,3.22,-0.28,0.11,-0.05,-12.06,-37.37,23.71
9718,-8.78,-4.96,3.22,-0.28,0.11,-0.05,-12.06,-37.37,23.71
9729,-8.15,-4.84,3.13,0.06,0.19,0.16,-12.06,-37.37,23.71
9740,-8.15,-4.84,3.13,0.06,0.19,0.16,-12.06,-37.37,23.71
9751,-7.81,-5.31,3.59,0.29,0.13,0.34,-12.06,-37.37,23.71
9762,-7.81,-5.31,3.59,0.29,0.13,0.34,-12.06,-37.37,23.71
9773,-7.68,-4.32,3.69,0.28,0.12,0.43,-12.06,-37.37,23.71
9784,-7.79,-3.90,3.92,0.20,0.08,0.42,-12.06,-37.37,23.71
9795,-7.79,-3.90,3.92,0.20,0.08,0.42,-12.06,-37.37,23.71
9806,-7.57,-4.84,3.57,0.20,0.05,0.35,-12.06,-37.37,23.71
9817,-7.57,-4.84,3.57,0.20,0.05,0.35,-12.06,-37.37,23.71
9828,-7.66,-4.37,3.48,0.20,-0.02,0.37,-14.41,-35.66,24.09
9839,-7.66,-4.37,3.48,0.20,-0.02,0.37,-14.41,-35.66,24.09
9850,-8.01,-4.20,3.61,0.15,-0.08,0.33,-14.41,-35.66,24.09
9861,-8.01,-4.20,3.61,0.15,-0.08,0.33,-14.41,-35.66,24.09
9872,-8.06,-4.01,3.97,0.15,-0.10,0.32,-14.41,-35.66,24.09
9883,-7.93,-3.91,3.82,0.17,-0.12,0.29,-14.41,-35.66,24.09
9894,-7.93,-3.91,3.82,0.17,-0.12,0.29,-14.41,-35.66,24.09
9905,-8.16,-3.41,3.89,0.08,-0.09,0.21,-14.41,-35.66,24.09
9916,-8.16,-3.41,3.89,0.08,-0.09,0.21,-14.41,-35.66,24.09
9927,-8.03,-4.43,3.57,-0.01,-0.10,0.11,-14.41,-35.66,24.09
9938,-8.03,-4.43,3.57,-0.01,-0.10,0.11,-14.41,-35.66,24.09
9949,-8.29,-3.75,4.47,0.03,-0.19,0.15,-14.41,-35.66,24.09
9960,-8.29,-3.75,4.47,0.03,-0.19,0.15,-14.41,-35.66,24.09
9971,-8.14,-4.21,4.33,-0.03,-0.14,0.04,-13.74,-35.32,25.61
9982,-8.14,-4.21,4.33,-0.03,-0.14,0.04,-13.74,-35.32,25.61
9993,-7.96,-3.91,4.30,-0.16,-0.12,-0.03,-13.74,-35.32,25.61
10004,-8.30,-3.96,4.38,-0.26,-0.17,-0.04,-13.74,-35.32,25.61
10015,-8.30,-3.96,4.38,-0.26,-0.17,-0.04,-13.74,-35.32,25.61
10026,-7.90,-4.09,4.16,-0.30,-0.16,-0.02,-13.74,-35.32,25.61
10037,-7.90,-4.09,4.16,-0.30,-0.16,-0.02,-13.74,-35.32,25.61
10048,-8.00,-3.96,3.98,-0.40,-0.19,-0.05,-13.74,-35.32,25.61
10059,-8.00,-3.96,3.98,-0.40,-0.19,-0.05,-13.74,-35.32,25.61
10070,-7.69,-3.97,3.68,-0.49,-0.13,-0.10,-13.74,-35.32,25.61
10081,-7.69,-3.97,3.68,-0.49,-0.13,-0.10,-13.74,-35.32,25.61
10092,-8.23,-4.45,3.68,-0.63,-0.14,-0.16,-14.41,-36.00,23.71
10103,-8.23,-4.45,3.68,-0.63,-0.14,-0.16,-14.41,-36.00,23.71
10114,-7.89,-4.47,3.51,-0.57,-0.15,-0.15,-14.41,-36.00,23.71
10125,-8.17,-4.10,3.30,-0.58,-0.10,-0.23,-14.41,-36.00,23.71
10136,-8.17,-4.10,3.30,-0.58,-0.10,-0.23,-14.41,-36.00,23.71
10147,-8.37,-4.83,2.89,-0.59,-0.07,-0.31,-14.41,-36.00,23.71
10158,-8.37,-4.83,2.89,-0.59,-0.07,-0.31,-14.41,-36.00,23.71
10169,-7.89,-4.58,3.39,-0.28,-0.07,-0.20,-14.41,-36.00,23.71
10180,-7.89,-4.58,3.39,-0.28,-0.07,-0.20,-14.41,-36.00,23.71
10191,-8.17,-4.06,3.75,-0.24,0.01,-0.26,-14.41,-36.00,23.71
10202,-8.17,-4.06,3.75,-0.24,0.01,-0.26,-14.41,-36.00,23.71
10213,-8.11,-4.49,3.79,-0.11,0.16,-0.31,-12.56,-37.88,20.86
10224,-8.00,-4.80,3.51,-0.10,0.21,-0.22,-12.56,-37.88,20.86
10235,-8.00,-4.80,3.51,-0.10,0.21,-0.22,-12.56,-37.88,20.86
10246,-8.36,-4.36,3.73,-0.17,0.18,-0.13,-12.56,-37.88,20.86
10257,-8.36,-4.36,3.73,-0.17,0.18,-0.13,-12.56,-37.88,20.86
10268,-7.97,-5.32,2.64,-0.22,0.22,-0.06,-12.56,-37.88,20.86
10279,-7.97,-5.32,2.64,-0.22,0.22,-0.06,-12.56,-37.88,20.86
10290,-8.04,-5.16,2.96,0.00,0.15,0.14,-12.56,-37.88,20.86
10301,-8.04,-5.16,2.96,0.00,0.15,0.14,-12.56,-37.88,20.86
10312,-7.97,-4.74,3.04,0.14,0.15,0.29,-12.56,-37.88,20.86
10323,-7.97,-4.74,3.04,0.14,0.15,0.29,-12.56,-37.88,20.86
10334,-7.59,-4.75,3.87,0.35,0.12,0.34,-12.73,-37.71,22.19
10345,-7.56,-4.43,3.82,0.40,0.12,0.33,-12.73,-37.71,22.19
10356,-7.56,-4.43,3.82,0.40,0.12,0.33,-12.73,-37.71,22.19
10367,-7.70,-4.18,3.85,0.29,0.08,0.28,-12.73,-37.71,22.19
10378,-7.70,-4.18,3.85,0.29,0.08,0.28,-12.73,-37.71,22.19
10389,-7.67,-5.21,3.28,0.18,0.02,0.21,-12.73,-37.71,22.19
10400,-7.67,-5.21,3.28,0.18,0.02,0.21,-12.73,-37.71,22.19
10411,-8.11,-4.62,2.72,0.24,-0.06,0.30,-12.73,-37.71,22.19
10422,-8.11,-4.62,2.72,0.24,-0.06,0.30,-12.73,-37.71,22.19
10433,-8.17,-3.54,3.86,0.32,-0.14,0.36,-12.73,-37.71,22.19
10444,-8.10,-3.70,3.66,0.18,-0.13,0.26,-12.73,-37.71,22.19
10455,-8.10,-3.70,3.66,0.18,-0.13,0.26,-12.73,-37.71,22.19
10466,-7.94,-3.85,3.33,0.08,-0.13,0.23,-15.08,-35.32,22.95
10477,-7.94,-3.85,3.33,0.08,-0.13,0.23,-15.08,-35.32,22.95
10488,-7.96,-4.06,3.74,0.04,-0.16,0.19,-15.08,-35.32,22.95
10499,-7.96,-4.06,3.74,0.04,-0.16,0.19,-15.08,-35.32,22.95
10510,-7.79,-4.11,3.20,0.01,-0.11,0.13,-15.08,-35.32,22.95
10521,-7.79,-4.11,3.20,0.01,-0.11,0.13,-15.08,-35.32,22.95
10532,-8.09,-3.94,3.91,0.01,-0.17,0.13,-15.08,-35.32,22.95
10543,-8.09,-3.94,3.91,0.01,-0.17,0.13,-15.08,-35.32,22.95
10554,-7.51,-4.00,3.43,-0.08,-0.15,0.09,-15.08,-35.32,22.95
10565,-7.97,-3.92,3.85,-0.21,-0.17,0.03,-15.08,-35.32,22.95
10576,-7.97,-3.92,3.85,-0.21,-0.17,0.03,-15.08,-35.32,22.95
10587,-8.11,-3.97,3.74,-0.28,-0.15,-0.01,-13.91,-36.86,23.90
10598,-8.11,-3.97,3.74,-0.28,-0.15,-0.01,-13.91,-36.86,23.90
10609,-7.82,-4.17,3.34,-0.37,-0.13,-0.07,-13.91,-36.86,23.90
10620,-7.82,-4.17,3.34,-0.37,-0.13,-0.07,-13.91,-36.86,23.90
10631,-8.11,-3.89,3.47,-0.39,-0.12,-0.13,-13.91,-36.86,23.90
10642,-8.11,-3.89,3.47,-0.39,-0.12,-0.13,-13.91,-36.86,23.90
10653,-7.88,-4.36,3.47,-0.33,-0.07,-0.23,-13.91,-36.86,23.90
10664,-7.85,-4.01,3.41,-0.31,-0.05,-0.28,-13.91,-36.86,23.90
10675,-7.85,-4.01,3.41,-0.31,-0.05,-0.28,-13.91,-36.86,23.90
10686,-7.89,-4.64,3.08,-0.21,0.02,-0.37,-13.91,-36.86,23.90
10697,-7.89,-4.64,3.08,-0.21,0.02,-0.37,-13.91,-36.86,23.90
10708,-8.27,-4.48,3.34,0.04,0.03,-0.37,-12.06,-38.74,21.81
10719,-8.27,-4.48,3.34,0.04,0.03,-0.37,-12.06,-38.74,21.81
10730,-8.47,-4.99,2.95,-0.04,0.05,-0.34,-12.06,-38.74,21.81
10741,-8.47,-4.99,2.95,-0.04,0.05,-0.34,-12.06,-38.74,21.81
10752,-8.15,-4.36,3.33,-0.02,0.05,-0.19,-12.06,-38.74,21.81
10763,-8.15,-4.36,3.33,-0.02,0.05,-0.19,-12.06,-38.74,21.81
10774,-8.13,-4.71,3.18,-0.07,0.09,-0.18,-12.06,-38.74,21.81
10785,-8.34,-4.14,4.07,-0.04,0.09,-0.08,-12.06,-38.74,21.81
10796,-8.34,-4.14,4.07,-0.04,0.09,-0.08,-12.06,-38.74,21.81
10807,-7.99,-4.87,3.57,-0.15,0.14,-0.06,-12.06,-38.74,21.81
10818,-7.99,-4.87,3.57,-0.15,0.14,-0.06,-12.06,-38.74,21.81
10829,-7.86,-4.95,3.16,-0.19,0.14,0.02,-12.06,-38.74,21.81
10840,-7.86,-4.95,3.16,-0.19,0.14,0.02,-12.06,-38.74,21.81
10851,-8.01,-4.38,3.23,-0.23,0.10,0.12,-13.23,-37.88,22.00
10862,-8.01,-4.38,3.23,-0.23,0.10,0.12,-13.23,-37.88,22.00
10873,-7.93,-5.29,3.21,-0.13,0.07,0.20,-13.23,-37.88,22.00
10884,-7.67,-4.35,3.48,-0.03,0.03,0.32,-13.23,-37.88,22.00
10895,-7.67,-4.35,3.48,-0.03,0.03,0.32,-13.23,-37.88,22.00
10906,-7.92,-4.74,3.58,0.01,0.01,0.30,-13.23,-37.88,22.00
10917,-7.92,-4.74,3.58,0.01,0.01,0.30,-13.23,-37.88,22.00
10928,-7.96,-4.37,3.51,0.08,0.03,0.33,-13.23,-37.88,22.00
10939,-7.96,-4.37,3.51,0.08,0.03,0.33,-13.23,-37.88,22.00
10950,-8.15,-3.99,3.76,0.12,0.03,0.32,-13.23,-37.88,22.00
10961,-8.15,-3.99,3.76,0.12,0.03,0.32,-13.23,-37.88,22.00
10972,-7.85,-4.13,3.53,0.14,0.04,0.29,-13.07,-37.37,22.57
10983,-7.85,-4.13,3.53,0.14,0.04,0.29,-13.07,-37.37,22.57
10994,-8.08,-4.88,2.90,0.04,0.01,0.22,-13.07,-37.37,22.57
11005,-8.01,-3.78,3.05,0.20,-0.07,0.32,-13.07,-37.37,22.57
11016,-8.01,-3.78,3.05,0.20,-0.07,0.32,-13.07,-37.37,22.57
11027,-8.05,-4.05,3.76,0.20,-0.12,0.28,-13.07,-37.37,22.57
11038,-8.05,-4.05,3.76,0.20,-0.12,0.28,-13.07,-37.37,22.57
11049,-8.10,-3.94,3.82,0.10,-0.11,0.24,-13.07,-37.37,22.57
11060,-8.10,-3.94,3.82,0.10,-0.11,0.24,-13.07,-37.37,22.57
11071,-7.90,-4.19,3.50,0.09,-0.12,0.19,-13.07,-37.37,22.57
11082,-7.90,-4.19,3.50,0.09,-0.12,0.19,-13.07,-37.37,22.57
11093,-7.88,-3.79,3.69,0.10,-0.17,0.18,-14.91,-35.49,22.38
11104,-7.88,-3.79,3.69,0.10,-0.17,0.18,-14.91,-35.49,22.38
11115,-7.83,-3.74,3.97,-0.10,-0.20,0.11,-14.91,-35.49,22.38
11126,-7.82,-4.38,4.15,-0.22,-0.23,0.03,-14.91,-35.49,22.38
11137,-7.82,-4.38,4.15,-0.22,-0.23,0.03,-14.91,-35.49,22.38
11148,-8.09,-3.90,3.65,-0.28,-0.17,0.01,-14.91,-35.49,22.38
11159,-8.09,-3.90,3.65,-0.28,-0.17,0.01,-14.91,-35.49,22.38
11170,-8.42,-4.17,3.88,-0.36,-0.14,-0.08,-14.91,-35.49,22.38
11181,-8.42,-4.17,3.88,-0.36,-0.14,-0.08,-14.91,-35.49,22.38
11192,-8.02,-3.89,3.01,-0.48,-0.12,-0.10,-14.91,-35.49,22.38
11203,-8.02,-3.89,3.01,-0.48,-0.12,-0.10,-14.91,-35.49,22.38
11214,-7.66,-4.72,3.53,-0.46,-0.17,-0.14,-14.91,-35.49,22.38
11225,-7.86,-4.02,3.29,-0.49,-0.13,-0.15,-14.58,-34.81,21.24
11236,-7.86,-4.02,3.29,-0.49,-0.13,-0.15,-14.58,-34.81,21.24
11247,-7.89,-4.80,3.40,-0.39,-0.13,-0.23,-14.58,-34.81,21.24
11258,-7.89,-4.80,3.40,-0.39,-0.13,-0.23,-14.58,-34.81,21.24
11269,-8.40,-4.02,3.52,-0.36,-0.09,-0.28,-14.58,-34.81,21.24
11280,-8.40,-4.02,3.52,-0.36,-0.09,-0.28,-14.58,-34.81,21.24
11291,-8.20,-4.83,3.32,-0.17,0.00,-0.32,-14.58,-34.81,21.24
11302,-8.20,-4.83,3.32,-0.17,0.00,-0.32,-14.58,-34.81,21.24
11313,-8.21,-4.71,3.44,-0.23,0.00,-0.28,-14.58,-34.81,21.24
11324,-8.21,-4.71,3.44,-0.23,0.00,-0.28,-14.58,-34.81,21.24
11335,-8.07,-4.70,3.39,-0.12,0.03,-0.23,-14.58,-34.81,21.24
11346,-8.24,-4.05,4.00,-0.09,0.08,-0.22,-13.74,-37.71,20.29
11357,-8.24,-4.05,4.00,-0.09,0.08,-0.22,-13.74,-37.71,20.29
11368,-7.85,-5.51,3.30,-0.21,0.16,-0.28,-13.74,-37.71,20.29
11379,-7.85,-5.51,3.30,-0.21,0.16,-0.28,-13.74,-37.71,20.29
11390,-8.01,-4.35,3.47,-0.13,0.15,-0.14,-13.74,-37.71,20.29
11401,-8.01,-4.35,3.47,-0.13,0.15,-0.14,-13.74,-37.71,20.29
11412,-7.96,-5.10,2.96,-0.17,0.13,-0.12,-13.74,-37.71,20.29
11423,-7.96,-5.10,2.96,-0.17,0.13,-0.12,-13.74,-37.71,20.29
11434,-8.26,-4.66,3.29,-0.28,0.08,-0.04,-13.74,-37.71,20.29
11445,-8.35,-5.44,2.67,-0.23,0.09,0.07,-13.74,-37.71,20.29
11456,-8.35,-5.44,2.67,-0.23,0.09,0.07,-13.74,-37.71,20.29
11467,-8.46,-4.49,3.55,0.03,0.03,0.30,-12.23,-38.22,18.96
11478,-8.46,-4.49,3.55,0.03,0.03,0.30,-12.23,-38.22,18.96
11489,-7.86,-5.06,3.61,0.22,0.06,0.36,-12.23,-38.22,18.96
11500,-7.86,-5.06,3.61,0.22,0.06,0.36,-12.23,-38.22,18.96
11511,-8.33,-3.72,3.92,0.16,0.01,0.41,-12.23,-38.22,18.96
11522,-8.33,-3.72,3.92,0.16,0.01,0.41,-12.23,-38.22,18.96
11533,-8.00,-4.91,3.25,0.12,0.05,0.31,-12.23,-38.22,18.96
11544,-8.00,-4.91,3.25,0.12,0.05,0.31,-12.23,-38.22,18.96
11555,-8.14,-4.19,3.69,0.14,-0.01,0.34,-12.23,-38.22,18.96
11566,-7.84,-4.85,3.65,0.15,-0.03,0.31,-12.23,-38.22,18.96
11577,-7.84,-4.85,3.65,0.15,-0.03,0.31,-12.23,-38.22,18.96
11593,-7.88,-4.28,3.87,0.15,-0.05,0.35,-14.58,-37.20,20.86
11599,-7.88,-4.28,3.87,0.15,-0.05,0.35,-14.58,-37.20,20.86
11610,-8.18,-4.14,3.64,0.06,-0.05,0.30,-14.58,-37.20,20.86
11621,-8.18,-4.14,3.64,0.06,-0.05,0.30,-14.58,-37.20,20.86
11632,-8.36,-3.36,3.49,0.06,-0.04,0.33,-14.58,-37.20,20.86
11643,-8.36,-3.36,3.49,0.06,-0.04,0.33,-14.58,-37.20,20.86
11654,-8.17,-4.45,3.84,0.08,-0.07,0.28,-14.58,-37.20,20.86
11665,-7.74,-4.52,3.40,0.03,-0.09,0.27,-14.58,-37.20,20.86
11676,-7.74,-4.52,3.40,0.03,-0.09,0.27,-14.58,-37.20,20.86
11687,-7.93,-3.70,3.24,-0.03,-0.08,0.22,-14.58,-37.20,20.86
11698,-7.93,-3.70,3.24,-0.03,-0.08,0.22,-14.58,-37.20,20.86
11709,-7.70,-4.21,2.83,-0.03,-0.06,0.10,-14.58,-37.20,20.86
11720,-7.70,-4.21,2.83,-0.03,-0.06,0.10,-14.58,-37.20,20.86
11731,-8.02,-3.94,3.69,-0.03,-0.13,0.02,-15.75,-35.66,21.05
11742,-8.02,-3.94,3.69,-0.03,-0.13,0.02,-15.75,-35.66,21.05
11753,-8.16,-4.30,3.61,-0.09,-0.11,-0.09,-15.75,-35.66,21.05
11764,-8.16,-4.30,3.61,-0.09,-0.11,-0.09,-15.75,-35.66,21.05
11775,-8.26,-4.53,3.24,-0.10,-0.13,-0.11,-15.75,-35.66,21.05
11786,-7.78,-4.15,3.52,-0.03,-0.12,-0.10,-15.75,-35.66,21.05
11797,-7.78,-4.15,3.52,-0.03,-0.12,-0.10,-15.75,-35.66,21.05
11808,-7.95,-4.32,3.38,-0.04,-0.09,-0.17,-15.75,-35.66,21.05
11819,-7.95,-4.32,3.38,-0.04,-0.09,-0.17,-15.75,-35.66,21.05
11830,-8.35,-3.78,3.67,-0.06,-0.09,-0.22,-15.75,-35.66,21.05
11841,-8.35,-3.78,3.67,-0.06,-0.09,-0.22,-15.75,-35.66,21.05
11852,-8.02,-4.49,3.06,-0.06,-0.00,-0.32,-12.23,-38.22,21.24
11863,-8.02,-4.49,3.06,-0.06,-0.00,-0.32,-12.23,-38.22,21.24
11874,-8.00,-4.43,3.34,-0.13,0.03,-0.36,-12.23,-38.22,21.24
11885,-8.33,-4.79,2.72,-0.29,0.06,-0.36,-12.23,-38.22,21.24
11896,-8.33,-4.79,2.72,-0.29,0.06,-0.36,-12.23,-38.22,21.24
11907,-8.26,-4.21,2.88,-0.27,0.05,-0.28,-12.23,-38.22,21.24
11918,-8.26,-4.21,2.88,-0.27,0.05,-0.28,-12.23,-38.22,21.24
11929,-8.02,-4.65,3.55,-0.04,0.04,-0.25,-12.23,-38.22,21.24
11940,-8.02,-4.65,3.55,-0.04,0.04,-0.25,-12.23,-38.22,21.24
11951,-8.08,-4.57,3.50,0.04,0.07,-0.22,-12.23,-38.22,21.24
11962,-8.08,-4.57,3.50,0.04,0.07,-0.22,-12.23,-38.22,21.24
11973,-7.98,-4.75,3.39,0.03,0.05,-0.13,-13.74,-38.05,19.91
11984,-7.98,-4.75,3.39,0.03,0.05,-0.13,-13.74,-38.05,19.91
11995,-8.08,-4.51,3.67,-0.06,0.01,-0.05,-13.74,-38.05,19.91
12006,-8.32,-5.04,3.24,-0.22,0.04,-0.04,-13.74,-38.05,19.91
12017,-8.32,-5.04,3.24,-0.22,0.04,-0.04,-13.74,-38.05,19.91
12028,-8.18,-5.39,2.82,-0.09,0.08,0.10,-13.74,-38.05,19.91
12039,-8.18,-5.39,2.82,-0.09,0.08,0.10,-13.74,-38.05,19.91
12050,-8.25,-4.68,3.35,0.02,0.04,0.28,-13.74,-38.05,19.91
12061,-8.25,-4.68,3.35,0.02,0.04,0.28,-13.74,-38.05,19.91
12072,-7.86,-4.27,3.30,0.09,0.05,0.34,-13.74,-38.05,19.91
12083,-7.86,-4.27,3.30,0.09,0.05,0.34,-13.74,-38.05,19.91
12094,-7.88,-4.73,3.42,0.13,0.07,0.33,-13.74,-38.05,19.91
12105,-8.03,-4.26,3.46,0.13,0.08,0.34,-13.74,-38.05,19.91
12116,-8.03,-4.26,3.46,0.13,0.08,0.34,-14.41,-37.37,19.91
12127,-7.94,-4.09,3.40,0.14,0.07,0.31,-14.41,-37.37,19.91
12138,-7.94,-4.09,3.40,0.14,0.07,0.31,-14.41,-37.37,19.91
12149,-7.98,-4.22,3.30,0.12,0.05,0.28,-14.41,-37.37,19.91
12160,-7.98,-4.22,3.30,0.12,0.05,0.28,-14.41,-37.37,19.91
12171,-7.81,-4.77,3.59,0.15,-0.04,0.31,-14.41,-37.37,19.91
12182,-7.81,-4.77,3.59,0.15,-0.04,0.31,-14.41,-37.37,19.91
12193,-8.03,-3.95,3.13,0.08,-0.07,0.30,-14.41,-37.37,19.91
12204,-8.03,-3.95,3.13,0.08,-0.07,0.30,-14.41,-37.37,19.91
12215,-8.03,-3.88,3.20,0.17,-0.14,0.27,-14.41,-37.37,19.91
12226,-8.13,-3.79,3.47,0.18,-0.14,0.18,-14.24,-36.51,19.72
12237,-8.13,-3.79,3.47,0.18,-0.14,0.18,-14.24,-36.51,19.72
12248,-8.30,-4.08,4.36,0.11,-0.16,0.09,-14.24,-36.51,19.72
12259,-8.30,-4.08,4.36,0.11,-0.16,0.09,-14.24,-36.51,19.72
12270,-8.14,-4.43,3.86,0.01,-0.14,0.06,-14.24,-36.51,19.72
12281,-8.14,-4.43,3.86,0.01,-0.14,0.06,-14.24,-36.51,19.72
12292,-8.23,-4.12,4.10,-0.07,-0.19,0.05,-14.24,-36.51,19.72
12303,-8.23,-4.12,4.10,-0.07,-0.19,0.05,-14.24,-36.51,19.72
12314,-7.96,-4.25,3.74,-0.15,-0.16,-0.03,-14.24,-36.51,19.72
12325,-7.96,-4.25,3.74,-0.15,-0.16,-0.03,-14.24,-36.51,19.72
12336,-7.54,-4.27,2.70,-0.10,-0.11,-0.10,-14.24,-36.51,19.72
12347,-8.41,-3.85,3.59,-0.08,-0.13,-0.18,-14.74,-36.00,20.67
12358,-8.41,-3.85,3.59,-0.08,-0.13,-0.18,-14.74,-36.00,20.67
12369,-7.88,-4.88,3.03,-0.13,-0.07,-0.25,-14.74,-36.00,20.67
12380,-7.88,-4.88,3.03,-0.13,-0.07,-0.25,-14.74,-36.00,20.67
12391,-8.19,-4.03,3.41,-0.14,-0.09,-0.18,-14.74,-36.00,20.67
12402,-8.19,-4.03,3.41,-0.14,-0.09,-0.18,-14.74,-36.00,20.67
12413,-8.40,-4.24,3.47,-0.25,-0.05,-0.28,-14.74,-36.00,20.67
12429,-8.40,-4.24,3.47,-0.25,-0.05,-0.28,-14.74,-36.00,20.67
12435,-8.13,-4.00,3.33,-0.30,0.00,-0.30,-14.74,-36.00,20.67
12446,-8.72,-4.06,3.17,-0.44,0.02,-0.35,-14.74,-36.00,20.67
12457,-8.72,-4.06,3.17,-0.44,0.02,-0.35,-14.74,-36.00,20.67
12468,-8.26,-4.32,3.03,-0.21,0.06,-0.31,-14.74,-36.00,20.67
12479,-8.26,-4.32,3.03,-0.21,0.06,-0.31,-14.74,-36.00,20.67
12490,-8.12,-5.32,3.59,-0.03,0.00,-0.22,-14.07,-37.71,19.15
12501,-8.12,-5.32,3.59,-0.03,0.00,-0.22,-14.07,-37.71,19.15
12512,-8.14,-4.04,3.79,0.03,0.04,-0.08,-14.07,-37.71,19.15
12523,-8.14,-4.04,3.79,0.03,0.04,-0.08,-14.07,-37.71,19.15
12534,-8.20,-4.82,3.56,-0.08,0.11,-0.12,-14.07,-37.71,19.15
12545,-8.20,-4.82,3.56,-0.08,0.11,-0.12,-14.07,-37.71,19.15
12556,-8.45,-4.77,3.18,-0.21,0.15,-0.07,-14.07,-37.71,19.15
12567,-7.96,-4.73,2.98,-0.08,0.15,0.08,-14.07,-37.71,19.15
12578,-7.96,-4.73,2.98,-0.08,0.15,0.08,-14.07,-37.71,19.15
12589,-8.03,-5.31,3.35,0.03,0.05,0.22,-14.07,-37.71,19.15
12600,-8.03,-5.31,3.35,0.03,0.05,0.22,-14.07,-37.71,19.15
12611,-8.08,-3.89,3.94,0.07,0.02,0.34,-13.91,-38.22,19.34
12622,-8.08,-3.89,3.94,0.07,0.02,0.34,-13.91,-38.22,19.34
12633,-7.80,-4.92,3.78,0.09,0.04,0.29,-13.91,-38.22,19.34
12644,-7.80,-4.92,3.78,0.09,0.04,0.29,-13.91,-38.22,19.34
12655,-7.95,-4.28,3.55,0.16,0.04,0.36,-13.91,-38.22,19.34
12666,-7.87,-4.77,3.73,0.12,0.03,0.31,-13.91,-38.22,19.34
12677,-7.87,-4.77,3.73,0.12,0.03,0.31,-13.91,-38.22,19.34
12688,-7.96,-3.76,3.53,0.02,0.07,0.29,-13.91,-38.22,19.34
12699,-7.96,-3.76,3.53,0.02,0.07,0.29,-13.91,-38.22,19.34
12710,-7.91,-4.78,3.26,-0.01,0.03,0.21,-13.91,-38.22,19.34
12721,-7.91,-4.78,3.26,-0.01,0.03,0.21,-13.91,-38.22,19.34
12732,-8.02,-3.99,4.27,0.14,-0.04,0.33,-14.24,-36.51,20.10
12743,-8.02,-3.99,4.27,0.14,-0.04,0.33,-14.24,-36.51,20.10
12754,-8.00,-3.92,3.71,0.03,-0.02,0.25,-14.24,-36.51,20.10
12765,-8.00,-3.92,3.71,0.03,-0.02,0.25,-14.24,-36.51,20.10
12776,-7.93,-4.27,3.42,-0.00,-0.08,0.17,-14.24,-36.51,20.10
12787,-8.38,-3.75,4.28,0.05,-0.15,0.17,-14.24,-36.51,20.10
12798,-8.38,-3.75,4.28,0.05,-0.15,0.17,-14.24,-36.51,20.10
12809,-7.70,-4.07,3.42,-0.03,-0.07,0.05,-14.24,-36.51,20.10
12820,-7.70,-4.07,3.42,-0.03,-0.07,0.05,-14.24,-36.51,20.10
12831,-7.97,-4.76,3.40,-0.10,-0.15,-0.04,-14.24,-36.51,20.10
12842,-7.97,-4.76,3.40,-0.10,-0.15,-0.04,-14.24,-36.51,20.10
12853,-7.95,-3.95,2.85,-0.09,-0.10,-0.06,-14.24,-36.51,20.10
12864,-7.95,-3.95,2.85,-0.09,-0.10,-0.06,-14.24,-36.51,20.10
12875,-8.08,-4.38,3.41,-0.15,-0.11,-0.16,-14.91,-36.51,20.10
12886,-8.66,-4.06,3.39,-0.27,-0.09,-0.23,-14.91,-36.51,20.10
12897,-8.66,-4.06,3.39,-0.27,-0.09,-0.23,-14.91,-36.51,20.10
12908,-8.29,-4.15,3.50,-0.24,-0.06,-0.26,-14.91,-36.51,20.10
12919,-8.29,-4.15,3.50,-0.24,-0.06,-0.26,-14.91,-36.51,20.10
12930,-8.29,-4.30,3.79,-0.21,-0.07,-0.32,-14.91,-36.51,20.10
12941,-8.29,-4.30,3.79,-0.21,-0.07,-0.32,-14.91,-36.51,20.10
12952,-8.08,-4.46,3.45,-0.04,-0.02,-0.38,-14.91,-36.51,20.10
12963,-8.08,-4.46,3.45,-0.04,-0.02,-0.38,-14.91,-36.51,20.10
12974,-8.12,-4.63,3.70,0.00,-0.01,-0.37,-14.91,-36.51,20.10
12985,-8.12,-4.63,3.70,0.00,-0.01,-0.37,-14.91,-36.51,20.10
12996,-8.18,-4.99,2.68,-0.08,0.03,-0.33,-12.90,-37.20,17.06
13007,-8.41,-4.61,3.07,-0.02,0.01,-0.21,-12.90,-37.20,17.06
13018,-8.41,-4.61,3.07,-0.02,0.01,-0.21,-12.90,-37.20,17.06
13029,-8.44,-4.13,4.04,0.00,0.05,-0.12,-12.90,-37.20,17.06
13040,-8.44,-4.13,4.04,0.00,0.05,-0.12,-12.90,-37.20,17.06
13051,-8.30,-4.74,3.13,-0.15,0.24,-0.16,-12.90,-37.20,17.06
13062,-8.30,-4.74,3.13,-0.15,0.24,-0.16,-12.90,-37.20,17.06
13073,-8.21,-4.77,3.12,-0.13,0.24,-0.05,-12.90,-37.20,17.06
13084,-8.21,-4.77,3.12,-0.13,0.24,-0.05,-12.90,-37.20,17.06
13095,-7.92,-5.17,3.32,0.02,0.14,0.13,-12.90,-37.20,17.06
13106,-7.83,-4.59,3.54,0.16,0.09,0.29,-13.57,-37.88,17.06
13117,-7.83,-4.59,3.54,0.16,0.09,0.29,-13.57,-37.88,17.06
13128,-7.87,-4.98,3.00,0.19,0.05,0.34,-13.57,-37.88,17.06
13139,-7.87,-4.98,3.00,0.19,0.05,0.34,-13.57,-37.88,17.06
13150,-8.03,-4.09,3.30,0.27,-0.01,0.42,-13.57,-37.88,17.06
13161,-8.03,-4.09,3.30,0.27,-0.01,0.42,-13.57,-37.88,17.06
13172,-8.00,-4.79,3.69,0.28,-0.04,0.41,-13.57,-37.88,17.06
13183,-8.00,-4.79,3.69,0.28,-0.04,0.41,-13.57,-37.88,17.06
13194,-8.02,-4.07,3.46,0.25,-0.03,0.44,-13.57,-37.88,17.06
13205,-8.02,-4.07,3.46,0.25,-0.03,0.44,-13.57,-37.88,17.06
13216,-7.96,-4.05,3.46,0.21,-0.04,0.39,-13.57,-37.88,17.06
13227,-8.38,-3.17,3.20,0.10,-0.06,0.37,-15.08,-36.00,18.39
13238,-8.38,-3.17,3.20,0.10,-0.06,0.37,-15.08,-36.00,18.39
13249,-7.99,-4.12,3.52,0.11,-0.08,0.31,-15.08,-36.00,18.39
13260,-7.99,-4.12,3.52,0.11,-0.08,0.31,-15.08,-36.00,18.39
13271,-8.12,-3.65,3.00,0.00,-0.10,0.27,-15.08,-36.00,18.39
13282,-8.12,-3.65,3.00,0.00,-0.10,0.27,-15.08,-36.00,18.39
13293,-8.31,-3.87,3.54,0.02,-0.18,0.17,-15.08,-36.00,18.39
13304,-8.31,-3.87,3.54,0.02,-0.18,0.17,-15.08,-36.00,18.39
13315,-8.10,-3.58,3.87,0.11,-0.18,0.11,-15.08,-36.00,18.39
13326,-8.10,-3.58,3.87,0.11,-0.18,0.11,-15.08,-36.00,18.39
13337,-7.94,-4.14,3.90,0.02,-0.22,-0.04,-15.08,-36.00,18.39
13348,-7.76,-3.95,3.45,-0.08,-0.21,-0.09,-15.08,-36.00,18.39
13359,-7.76,-3.95,3.45,-0.08,-0.21,-0.09,-15.08,-36.00,18.39
13370,-8.33,-4.15,3.61,-0.19,-0.22,-0.15,-15.25,-35.83,21.24
13381,-8.33,-4.15,3.61,-0.19,-0.22,-0.15,-15.25,-35.83,21.24
13392,-8.12,-3.92,3.28,-0.19,-0.15,-0.18,-15.25,-35.83,21.24
13403,-8.12,-3.92,3.28,-0.19,-0.15,-0.18,-15.25,-35.83,21.24
13414,-8.21,-4.28,3.49,-0.13,-0.14,-0.21,-15.25,-35.83,21.24
13425,-8.21,-4.28,3.49,-0.13,-0.14,-0.21,-15.25,-35.83,21.24
13436,-7.73,-4.41,3.51,-0.12,-0.11,-0.21,-15.25,-35.83,21.24
13447,-8.22,-4.15,3.26,-0.17,-0.08,-0.27,-15.25,-35.83,21.24
13458,-8.22,-4.15,3.26,-0.17,-0.08,-0.27,-15.25,-35.83,21.24
13469,-8.88,-3.50,3.67,-0.27,-0.00,-0.36,-15.25,-35.83,21.24
13480,-8.88,-3.50,3.67,-0.27,-0.00,-0.36,-15.25,-35.83,21.24
13491,-8.21,-4.69,2.92,-0.31,0.09,-0.39,-13.74,-38.05,19.91
13502,-8.21,-4.69,2.92,-0.31,0.09,-0.39,-13.74,-38.05,19.91
13513,-8.17,-4.26,3.31,-0.11,0.05,-0.25,-13.74,-38.05,19.91
13524,-8.17,-4.26,3.31,-0.11,0.05,-0.25,-13.74,-38.05,19.91
13535,-8.21,-4.46,4.05,0.05,0.03,-0.21,-13.74,-38.05,19.91
13546,-8.21,-4.46,4.05,0.05,0.03,-0.21,-13.74,-38.05,19.91
13557,-7.98,-4.42,3.74,-0.02,0.10,-0.20,-13.74,-38.05,19.91
13568,-8.26,-4.71,3.76,-0.09,0.09,-0.12,-13.74,-38.05,19.91
13579,-8.26,-4.71,3.76,-0.09,0.09,-0.12,-13.74,-38.05,19.91
13590,-8.46,-5.06,3.14,-0.14,0.10,-0.01,-13.74,-38.05,19.91
13601,-8.46,-5.06,3.14,-0.14,0.10,-0.01,-13.74,-38.05,19.91
13612,-8.27,-4.58,3.28,0.04,0.09,0.19,-14.58,-38.91,19.34
13623,-8.27,-4.58,3.28,0.04,0.09,0.19,-14.58,-38.91,19.34
13634,-8.15,-4.43,3.86,0.04,0.08,0.31,-14.58,-38.91,19.34
13645,-8.15,-4.43,3.86,0.04,0.08,0.31,-14.58,-38.91,19.34
13656,-7.86,-4.00,3.62,-0.01,0.09,0.38,-14.58,-38.91,19.34
13667,-7.82,-4.46,3.43,0.07,0.10,0.38,-14.58,-38.91,19.34
13678,-7.82,-4.46,3.43,0.07,0.10,0.38,-14.58,-38.91,19.34
13689,-7.97,-3.99,3.60,0.12,0.05,0.42,-14.58,-38.91,19.34
13700,-7.97,-3.99,3.60,0.12,0.05,0.42,-14.58,-38.91,19.34
13711,-7.84,-4.70,4.19,0.13,0.02,0.37,-14.58,-38.91,19.34
13722,-7.84,-4.70,4.19,0.13,0.02,0.37,-14.58,-38.91,19.34
13733,-7.82,-4.45,3.86,0.05,0.02,0.32,-14.58,-38.91,19.34
13744,-7.82,-4.45,3.86,0.05,0.02,0.32,-14.58,-38.91,19.34
13755,-8.17,-4.01,3.45,-0.03,-0.01,0.25,-15.41,-35.32,19.91
13766,-8.17,-4.01,3.45,-0.03,-0.01,0.25,-15.41,-35.32,19.91
13777,-7.84,-4.53,3.49,0.02,-0.08,0.27,-15.41,-35.32,19.91
13788,-7.91,-2.97,3.42,0.09,-0.11,0.36,-15.41,-35.32,19.91
13799,-7.91,-2.97,3.42,0.09,-0.11,0.36,-15.41,-35.32,19.91
13810,-7.59,-4.44,2.95,0.08,-0.09,0.17,-15.41,-35.32,19.91
13826,-7.59,-4.44,2.95,0.08,-0.09,0.17,-15.41,-35.32,19.91
13832,-8.02,-3.53,3.31,0.09,-0.09,0.16,-15.41,-35.32,19.91
13843,-8.02,-3.53,3.31,0.09,-0.09,0.16,-15.41,-35.32,19.91
13854,-7.84,-4.01,2.95,0.06,-0.07,0.03,-15.41,-35.32,19.91
13865,-7.84,-4.01,2.95,0.06,-0.07,0.03,-15.41,-35.32,19.91
13876,-7.93,-3.72,2.85,0.01,-0.11,-0.05,-15.25,-36.51,19.34
13887,-8.29,-4.43,3.19,-0.03,-0.12,-0.16,-15.25,-36.51,19.34
13898,-8.29,-4.43,3.19,-0.03,-0.12,-0.16,-15.25,-36.51,19.34
13909,-8.27,-3.73,3.45,0.01,-0.10,-0.15,-15.25,-36.51,19.34
13920,-8.27,-3.73,3.45,0.01,-0.10,-0.15,-15.25,-36.51,19.34
13931,-8.25,-4.59,3.52,0.08,-0.09,-0.19,-15.25,-36.51,19.34
13942,-8.25,-4.59,3.52,0.08,-0.09,-0.19,-15.25,-36.51,19.34
13953,-8.25,-3.34,3.72,0.02,-0.10,-0.17,-15.25,-36.51,19.34
13964,-8.25,-3.34,3.72,0.02,-0.10,-0.17,-15.25,-36.51,19.34
13975,-7.94,-4.37,3.98,0.02,-0.06,-0.27,-15.25,-36.51,19.34
13986,-7.94,-4.37,3.98,0.02,-0.06,-0.27,-15.25,-36.51,19.34
13997,-8.22,-4.16,3.64,-0.15,-0.04,-0.31,-14.24,-36.51,19.72
14008,-8.25,-4.11,3.45,-0.15,-0.03,-0.33,-14.24,-36.51,19.72
14019,-8.25,-4.11,3.45,-0.15,-0.03,-0.33,-14.24,-36.51,19.72
14030,-8.09,-4.01,3.41,-0.15,-0.02,-0.36,-14.24,-36.51,19.72
14041,-8.09,-4.01,3.41,-0.15,-0.02,-0.36,-14.24,-36.51,19.72
14052,-8.32,-4.43,3.48,-0.13,0.01,-0.45,-14.24,-36.51,19.72
14063,-8.32,-4.43,3.48,-0.13,0.01,-0.45,-14.24,-36.51,19.72
14074,-8.38,-4.29,3.84,-0.03,0.06,-0.40,-14.24,-36.51,19.72
14085,-8.38,-4.29,3.84,-0.03,0.06,-0.40,-14.24,-36.51,19.72
14096,-8.20,-4.64,3.68,0.02,0.07,-0.25,-14.24,-36.51,19.72
14107,-8.12,-4.31,3.93,-0.03,0.05,-0.13,-14.24,-36.51,19.72
14118,-8.12,-4.31,3.93,-0.03,0.05,-0.13,-14.24,-36.51,19.72
14129,-8.50,-4.72,3.66,-0.26,0.07,-0.08,-15.08,-37.03,20.29
14140,-8.50,-4.72,3.66,-0.26,0.07,-0.08,-15.08,-37.03,20.29
14151,-7.89,-5.42,2.99,-0.13,0.13,0.13,-15.08,-37.03,20.29
14162,-7.89,-5.42,2.99,-0.13,0.13,0.13,-15.08,-37.03,20.29
14173,-7.92,-4.87,3.32,0.00,0.06,0.37,-15.08,-37.03,20.29
14184,-7.92,-4.87,3.32,0.00,0.06,0.37,-15.08,-37.03,20.29
14195,-7.69,-3.97,3.47,0.12,0.07,0.46,-15.08,-37.03,20.29
14206,-7.69,-3.97,3.47,0.12,0.07,0.46,-15.08,-37.03,20.29
14217,-8.11,-3.92,3.62,0.10,0.07,0.35,-15.08,-37.03,20.29
14228,-7.86,-4.32,3.55,0.14,0.08,0.30,-15.08,-37.03,20.29
14239,-7.86,-4.32,3.55,0.14,0.08,0.30,-15.08,-37.03,20.29
14250,-8.10,-3.94,3.48,0.11,0.03,0.30,-14.41,-38.05,19.91
14261,-8.10,-3.94,3.48,0.11,0.03,0.30,-14.41,-38.05,19.91
14272,-8.10,-3.94,3.89,0.05,-0.02,0.28,-14.41,-38.05,19.91
14283,-8.10,-3.94,3.89,0.05,-0.02,0.28,-14.41,-38.05,19.91
14294,-7.89,-4.55,3.55,-0.01,-0.04,0.24,-14.41,-38.05,19.91
14305,-7.89,-4.55,3.55,-0.01,-0.04,0.24,-14.41,-38.05,19.91
14316,-8.11,-3.76,4.26,0.13,-0.08,0.33,-14.41,-38.05,19.91
14327,-7.75,-4.26,3.35,0.04,-0.06,0.22,-14.41,-38.05,19.91
14338,-7.75,-4.26,3.35,0.04,-0.06,0.22,-14.41,-38.05,19.91
14349,-8.30,-3.81,4.47,0.10,-0.14,0.19,-14.41,-38.05,19.91
14360,-8.30,-3.81,4.47,0.10,-0.14,0.19,-14.41,-38.05,19.91
14371,-7.92,-3.91,3.28,0.07,-0.07,0.12,-15.75,-36.00,20.67
14382,-7.92,-3.91,3.28,0.07,-0.07,0.12,-15.75,-36.00,20.67
14393,-8.04,-4.07,3.47,0.07,-0.16,0.12,-15.75,-36.00,20.67
14404,-8.04,-4.07,3.47,0.07,-0.16,0.12,-15.75,-36.00,20.67
14415,-7.84,-3.57,3.74,0.11,-0.17,0.12,-15.75,-36.00,20.67
14426,-7.84,-3.57,3.74,0.11,-0.17,0.12,-15.75,-36.00,20.67
14437,-8.14,-3.94,3.97,0.03,-0.16,0.03,-15.75,-36.00,20.67
14448,-8.31,-3.64,3.94,-0.03,-0.10,-0.01,-15.75,-36.00,20.67
14459,-8.31,-3.64,3.94,-0.03,-0.10,-0.01,-15.75,-36.00,20.67
14470,-8.10,-3.78,4.03,-0.07,-0.07,-0.09,-15.75,-36.00,20.67
14481,-8.10,-3.78,4.03,-0.07,-0.07,-0.09,-15.75,-36.00,20.67
14492,-8.01,-3.80,3.62,-0.11,-0.04,-0.16,-15.25,-36.86,20.10
14503,-8.01,-3.80,3.62,-0.11,-0.04,-0.16,-15.25,-36.86,20.10
14514,-8.45,-4.21,3.99,-0.14,-0.04,-0.23,-15.25,-36.86,20.10
14525,-8.45,-4.21,3.99,-0.14,-0.04,-0.23,-15.25,-36.86,20.10
14536,-8.19,-4.11,4.14,-0.13,-0.02,-0.18,-15.25,-36.86,20.10
14547,-8.19,-4.11,4.14,-0.13,-0.02,-0.18,-15.25,-36.86,20.10
14558,-8.28,-3.98,3.57,-0.19,-0.03,-0.21,-15.25,-36.86,20.10
14569,-8.22,-4.42,3.12,-0.16,0.02,-0.25,-15.25,-36.86,20.10
14580,-8.22,-4.42,3.12,-0.16,0.02,-0.25,-15.25,-36.86,20.10
14591,-8.56,-4.19,3.41,-0.09,0.00,-0.22,-15.25,-36.86,20.10
14602,-8.56,-4.19,3.41,-0.09,0.00,-0.22,-15.25,-36.86,20.10
14613,-8.40,-3.90,3.41,-0.01,0.02,-0.14,-15.25,-36.86,20.10
14624,-8.40,-3.90,3.41,-0.01,0.02,-0.14,-15.25,-36.86,20.10
14635,-8.30,-3.79,3.64,-0.03,0.03,-0.08,-14.91,-37.54,20.10
14646,-8.30,-3.79,3.64,-0.03,0.03,-0.08,-14.91,-37.54,20.10
14657,-8.70,-3.40,4.33,-0.11,0.07,-0.10,-14.91,-37.54,20.10
14668,-8.16,-4.71,2.80,-0.24,0.19,-0.18,-14.91,-37.54,20.10
14679,-8.16,-4.71,2.80,-0.24,0.19,-0.18,-14.91,-37.54,20.10
14690,-7.93,-4.59,3.06,-0.20,0.14,-0.05,-14.91,-37.54,20.10
14701,-7.93,-4.59,3.06,-0.20,0.14,-0.05,-14.91,-37.54,20.10
14712,-8.05,-4.42,3.68,-0.10,0.08,0.05,-14.91,-37.54,20.10
14723,-8.05,-4.42,3.68,-0.10,0.08,0.05,-14.91,-37.54,20.10
14734,-7.95,-4.26,3.83,-0.01,0.08,0.09,-14.91,-37.54,20.10
14745,-7.95,-4.26,3.83,-0.01,0.08,0.09,-14.91,-37.54,20.10
14756,-7.83,-4.28,3.52,0.02,0.11,0.09,-14.07,-36.69,18.39
14767,-7.83,-4.28,3.52,0.02,0.11,0.09,-14.07,-36.69,18.39
14778,-8.17,-4.52,3.57,0.03,0.07,0.11,-14.07,-36.69,18.39
14789,-8.03,-4.42,3.42,0.18,0.08,0.20,-14.07,-36.69,18.39
14800,-8.03,-4.42,3.42,0.18,0.08,0.20,-14.07,-36.69,18.39
14811,-7.93,-4.33,3.75,0.27,0.05,0.30,-14.07,-36.69,18.39
14822,-7.93,-4.33,3.75,0.27,0.05,0.30,-14.07,-36.69,18.39
14833,-7.98,-4.48,3.76,0.20,0.02,0.33,-14.07,-36.69,18.39
14850,-7.98,-4.48,3.76,0.20,0.02,0.33,-14.07,-36.69,18.39
14855,-7.70,-4.23,3.32,0.19,0.01,0.38,-14.07,-36.69,18.39
14866,-7.70,-4.23,3.32,0.19,0.01,0.38,-14.07,-36.69,18.39
14877,-7.91,-4.21,3.75,0.13,-0.05,0.36,-16.76,-37.03,19.53
14888,-7.97,-3.36,3.61,-0.03,-0.01,0.26,-16.76,-37.03,19.53
14899,-7.97,-3.36,3.61,-0.03,-0.01,0.26,-16.76,-37.03,19.53
14910,-8.21,-4.18,4.19,-0.13,-0.06,0.16,-16.76,-37.03,19.53
14921,-8.21,-4.18,4.19,-0.13,-0.06,0.16,-16.76,-37.03,19.53
14932,-8.11,-4.19,3.92,-0.09,-0.06,0.18,-16.76,-37.03,19.53
14943,-8.11,-4.19,3.92,-0.09,-0.06,0.18,-16.76,-37.03,19.53
14954,-7.91,-3.89,3.37,-0.00,-0.10,0.17,-16.76,-37.03,19.53
14965,-7.91,-3.89,3.37,-0.00,-0.10,0.17,-16.76,-37.03,19.53
14976,-8.28,-3.57,3.94,0.09,-0.17,0.18,-16.76,-37.03,19.53
14987,-8.28,-3.57,3.94,0.09,-0.17,0.18,-16.76,-37.03,19.53
14998,-8.38,-3.60,3.83,0.08,-0.15,0.09,-16.76,-37.03,19.53
15009,-8.24,-4.09,4.03,0.04,-0.19,0.01,-15.75,-34.29,19.15
15020,-8.24,-4.09,4.03,0.04,-0.19,0.01,-15.75,-34.29,19.15
15036,-7.99,-3.92,3.67,-0.13,-0.15,-0.05,-15.75,-34.29,19.15
15042,-7.99,-3.92,3.67,-0.13,-0.15,-0.05,-15.75,-34.29,19.15
15053,-7.99,-3.81,4.04,-0.29,-0.21,-0.15,-15.75,-34.29,19.15
15064,-7.99,-3.81,4.04,-0.29,-0.21,-0.15,-15.75,-34.29,19.15
15075,-7.52,-3.61,4.93,-0.47,-0.23,-0.24,-15.75,-34.29,19.15
15086,-7.52,-3.61,4.93,-0.47,-0.23,-0.24,-15.75,-34.29,19.15
15097,-7.90,-4.29,3.63,-0.64,-0.04,-0.39,-15.75,-34.29,19.15
15108,-8.48,-3.92,2.46,-0.66,0.03,-0.50,-15.75,-34.29,19.15
15119,-8.48,-3.92,2.46,-0.66,0.03,-0.50,-15.75,-34.29,19.15
15130,-8.48,-4.06,3.08,-0.41,0.00,-0.54,-16.42,-37.71,16.87
15141,-8.48,-4.06,3.08,-0.41,0.00,-0.54,-16.42,-37.71,16.87
15152,-8.47,-4.51,3.43,-0.25,0.02,-0.48,-16.42,-37.71,16.87
15163,-8.47,-4.51,3.43,-0.25,0.02,-0.48,-16.42,-37.71,16.87
15174,-8.19,-4.60,3.49,-0.32,0.01,-0.37,-16.42,-37.71,16.87
15185,-8.19,-4.60,3.49,-0.32,0.01,-0.37,-16.42,-37.71,16.87
15196,-8.25,-4.68,3.90,-0.22,-0.01,-0.26,-16.42,-37.71,16.87
15207,-8.25,-4.68,3.90,-0.22,-0.01,-0.26,-16.42,-37.71,16.87
15218,-8.18,-4.39,4.05,-0.09,0.04,-0.17,-16.42,-37.71,16.87
15229,-8.04,-4.87,3.66,-0.08,0.08,-0.13,-16.42,-37.71,16.87
15240,-8.04,-4.87,3.66,-0.08,0.08,-0.13,-16.42,-37.71,16.87
15251,-8.62,-4.84,3.07,-0.07,0.11,-0.04,-13.07,-37.37,19.15
15262,-8.62,-4.84,3.07,-0.07,0.11,-0.04,-13.07,-37.37,19.15
15273,-8.26,-4.90,2.86,0.16,0.15,0.11,-13.07,-37.37,19.15
15284,-8.26,-4.90,2.86,0.16,0.15,0.11,-13.07,-37.37,19.15
15295,-8.01,-4.62,3.64,0.27,0.06,0.28,-13.07,-37.37,19.15
15306,-8.01,-4.62,3.64,0.27,0.06,0.28,-13.07,-37.37,19.15
15317,-7.97,-4.19,3.62,0.24,0.03,0.34,-13.07,-37.37,19.15
15328,-7.85,-4.61,3.91,0.23,0.02,0.35,-13.07,-37.37,19.15
15339,-7.85,-4.61,3.91,0.23,0.02,0.35,-13.07,-37.37,19.15
15350,-7.88,-3.96,3.68,0.20,0.01,0.40,-13.07,-37.37,19.15
15361,-7.88,-3.96,3.68,0.20,0.01,0.40,-13.07,-37.37,19.15
15372,-7.60,-4.66,3.49,0.18,-0.01,0.37,-13.07,-37.37,19.15
15383,-7.60,-4.66,3.49,0.18,-0.01,0.37,-13.07,-37.37,19.15
15394,-8.00,-3.87,3.59,0.10,-0.02,0.38,-15.58,-37.54,17.44
15405,-8.00,-3.87,3.59,0.10,-0.02,0.38,-15.58,-37.54,17.44
15416,-8.06,-4.24,4.02,0.12,-0.02,0.34,-15.58,-37.54,17.44
15427,-8.06,-4.24,4.02,0.12,-0.02,0.34,-15.58,-37.54,17.44
15438,-7.84,-4.14,3.38,0.11,-0.04,0.33,-15.58,-37.54,17.44
15449,-7.87,-4.00,3.04,0.14,-0.09,0.28,-15.58,-37.54,17.44
15460,-7.87,-4.00,3.04,0.14,-0.09,0.28,-15.58,-37.54,17.44
15471,-8.16,-3.67,4.49,0.19,-0.19,0.25,-15.58,-37.54,17.44
15482,-8.16,-3.67,4.49,0.19,-0.19,0.25,-15.58,-37.54,17.44
15493,-7.96,-3.79,3.66,0.17,-0.13,0.17,-15.58,-37.54,17.44
15504,-7.96,-3.79,3.66,0.17,-0.13,0.17,-15.58,-37.54,17.44
15515,-7.87,-4.05,4.20,0.16,-0.16,0.11,-14.07,-35.32,18.77
15526,-7.87,-4.05,4.20,0.16,-0.16,0.11,-14.07,-35.32,18.77
15537,-7.84,-3.77,3.24,0.05,-0.11,0.05,-14.07,-35.32,18.77
15548,-7.84,-3.77,3.24,0.05,-0.11,0.05,-14.07,-35.32,18.77
15559,-7.98,-4.20,3.49,-0.10,-0.12,-0.06,-14.07,-35.32,18.77
15570,-7.98,-3.98,3.66,-0.06,-0.09,-0.06,-14.07,-35.32,18.77
15581,-7.98,-3.98,3.66,-0.06,-0.09,-0.06,-14.07,-35.32,18.77
15592,-8.33,-3.84,4.02,-0.19,-0.11,-0.12,-14.07,-35.32,18.77
15603,-8.33,-3.84,4.02,-0.19,-0.11,-0.12,-14.07,-35.32,18.77
15614,-7.90,-3.79,3.97,-0.17,-0.07,-0.17,-14.07,-35.32,18.77
15625,-7.90,-3.79,3.97,-0.17,-0.07,-0.17,-14.07,-35.32,18.77
15636,-8.39,-4.22,3.64,-0.15,-0.07,-0.21,-15.92,-36.86,19.72
15647,-8.39,-4.22,3.64,-0.15,-0.07,-0.21,-15.92,-36.86,19.72
15658,-8.57,-3.79,3.71,-0.16,-0.06,-0.24,-15.92,-36.86,19.72
15669,-8.40,-4.07,3.48,-0.08,-0.02,-0.23,-15.92,-36.86,19.72
15686,-8.40,-4.07,3.48,-0.08,-0.02,-0.23,-15.92,-36.86,19.72
15691,-8.67,-3.80,3.42,-0.20,0.00,-0.23,-15.92,-36.86,19.72
15702,-8.67,-3.80,3.42,-0.20,0.00,-0.23,-15.92,-36.86,19.72
15713,-8.77,-2.94,4.13,-0.34,0.04,-0.27,-15.92,-36.86,19.72
15724,-8.77,-2.94,4.13,-0.34,0.04,-0.27,-15.92,-36.86,19.72
15735,-8.45,-4.18,4.24,-0.45,0.18,-0.45,-15.92,-36.86,19.72
15746,-8.45,-4.18,4.24,-0.45,0.18,-0.45,-15.92,-36.86,19.72
15757,-7.79,-5.14,3.13,-0.27,0.24,-0.39,-14.41,-37.71,18.01
15768,-7.79,-5.14,3.13,-0.27,0.24,-0.39,-14.41,-37.71,18.01
15779,-8.03,-4.48,3.89,0.00,0.10,-0.15,-14.41,-37.71,18.01
15790,-8.02,-4.35,3.37,0.01,0.09,-0.08,-14.41,-37.71,18.01
15801,-8.02,-4.35,3.37,0.01,0.09,-0.08,-14.41,-37.71,18.01
15812,-8.20,-4.94,3.43,-0.06,0.06,-0.01,-14.41,-37.71,18.01
15823,-8.20,-4.94,3.43,-0.06,0.06,-0.01,-14.41,-37.71,18.01
15834,-8.23,-4.74,3.56,-0.01,0.06,0.17,-14.41,-37.71,18.01
15845,-8.23,-4.74,3.56,-0.01,0.06,0.17,-14.41,-37.71,18.01
15856,-8.33,-4.31,3.67,0.08,0.05,0.33,-14.41,-37.71,18.01
15867,-8.33,-4.31,3.67,0.08,0.05,0.33,-14.41,-37.71,18.01
15878,-7.89,-4.04,4.03,0.20,0.06,0.41,-14.41,-37.71,18.01
15889,-7.90,-4.76,3.53,0.13,0.07,0.32,-15.41,-37.03,17.25
15900,-7.90,-4.76,3.53,0.13,0.07,0.32,-15.41,-37.03,17.25
15911,-8.08,-3.73,3.75,0.22,0.03,0.40,-15.41,-37.03,17.25
15922,-8.08,-3.73,3.75,0.22,0.03,0.40,-15.41,-37.03,17.25
15933,-7.93,-4.49,3.88,0.13,-0.03,0.35,-15.41,-37.03,17.25
15944,-7.93,-4.49,3.88,0.13,-0.03,0.35,-15.41,-37.03,17.25
15955,-7.93,-3.87,3.47,0.05,-0.04,0.35,-15.41,-37.03,17.25
15966,-7.93,-3.87,3.47,0.05,-0.04,0.35,-15.41,-37.03,17.25
15977,-8.01,-3.82,3.47,0.03,-0.09,0.30,-15.41,-37.03,17.25
15988,-8.01,-3.82,3.47,0.03,-0.09,0.30,-15.41,-37.03,17.25
15999,-8.10,-3.58,3.79,0.00,-0.11,0.25,-15.41,-37.03,17.25
16010,-7.80,-4.32,3.77,0.10,-0.12,0.15,-15.75,-37.03,19.53
16021,-7.80,-4.32,3.77,0.10,-0.12,0.15,-15.75,-37.03,19.53
16032,-7.82,-3.59,4.32,0.19,-0.17,0.17,-15.75,-37.03,19.53
16043,-7.82,-3.59,4.32,0.19,-0.17,0.17,-15.75,-37.03,19.53
16054,-8.14,-3.97,3.88,0.04,-0.17,0.06,-15.75,-37.03,19.53
16065,-8.14,-3.97,3.88,0.04,-0.17,0.06,-15.75,-37.03,19.53
16076,-7.87,-3.52,3.29,-0.12,-0.12,-0.00,-15.75,-37.03,19.53
16087,-7.87,-3.52,3.29,-0.12,-0.12,-0.00,-15.75,-37.03,19.53
16098,-8.22,-4.07,3.47,-0.20,-0.15,-0.08,-15.75,-37.03,19.53
16109,-8.17,-3.97,3.29,-0.11,-0.10,-0.07,-15.75,-37.03,19.53
16120,-8.17,-3.97,3.29,-0.11,-0.10,-0.07,-15.75,-37.03,19.53
16131,-8.11,-3.98,3.97,-0.19,-0.13,-0.13,-14.91,-35.49,19.72
16142,-8.11,-3.98,3.97,-0.19,-0.13,-0.13,-14.91,-35.49,19.72
16153,-7.82,-4.21,3.59,-0.24,-0.08,-0.15,-14.91,-35.49,19.72
16164,-7.82,-4.21,3.59,-0.24,-0.08,-0.15,-14.91,-35.49,19.72
16175,-7.88,-3.84,3.87,-0.31,-0.08,-0.19,-14.91,-35.49,19.72
16186,-7.88,-3.84,3.87,-0.31,-0.08,-0.19,-14.91,-35.49,19.72
16197,-8.38,-4.10,3.55,-0.27,-0.04,-0.29,-14.91,-35.49,19.72
16208,-8.38,-4.10,3.55,-0.27,-0.04,-0.29,-14.91,-35.49,19.72
16219,-7.91,-4.06,4.33,-0.31,0.02,-0.37,-14.91,-35.49,19.72
16230,-8.62,-4.36,3.09,-0.52,0.12,-0.44,-14.91,-35.49,19.72
16241,-8.62,-4.36,3.09,-0.52,0.12,-0.44,-14.91,-35.49,19.72
16252,-8.42,-4.44,3.26,-0.25,0.11,-0.35,-14.91,-35.49,19.72
16263,-8.42,-4.44,3.26,-0.25,0.11,-0.35,-14.91,-35.49,19.72
16274,-8.48,-4.19,2.93,-0.21,0.12,-0.25,-14.58,-39.59,17.44
16285,-8.48,-4.19,2.93,-0.21,0.12,-0.25,-14.58,-39.59,17.44
16296,-8.41,-3.63,3.35,-0.18,0.12,-0.16,-14.58,-39.59,17.44
16307,-8.41,-3.63,3.35,-0.18,0.12,-0.16,-14.58,-39.59,17.44
16318,-8.38,-4.57,3.58,-0.20,0.13,-0.17,-14.58,-39.59,17.44
16329,-8.22,-5.02,3.25,-0.21,0.14,-0.07,-14.58,-39.59,17.44
16340,-8.22,-5.02,3.25,-0.21,0.14,-0.07,-14.58,-39.59,17.44
16351,-7.99,-4.83,3.12,0.06,0.11,0.13,-14.58,-39.59,17.44
16362,-7.99,-4.83,3.12,0.06,0.11,0.13,-14.58,-39.59,17.44
16373,-8.02,-4.57,3.50,0.20,0.05,0.25,-14.58,-39.59,17.44
16384,-8.02,-4.57,3.50,0.20,0.05,0.25,-14.58,-39.59,17.44
16395,-8.01,-4.37,3.60,0.30,0.05,0.30,-15.25,-37.20,16.68
16406,-8.01,-4.37,3.60,0.30,0.05,0.30,-15.25,-37.20,16.68
16417,-8.12,-4.06,3.68,0.27,0.03,0.33,-15.25,-37.20,16.68
16428,-8.12,-4.06,3.68,0.27,0.03,0.33,-15.25,-37.20,16.68
16439,-8.04,-4.71,3.13,0.17,0.06,0.32,-15.25,-37.20,16.68
16450,-8.07,-4.18,3.59,0.19,-0.03,0.42,-15.25,-37.20,16.68
16461,-8.07,-4.18,3.59,0.19,-0.03,0.42,-15.25,-37.20,16.68
16472,-7.83,-4.27,3.73,0.24,-0.06,0.46,-15.25,-37.20,16.68
16483,-7.83,-4.27,3.73,0.24,-0.06,0.46,-15.25,-37.20,16.68
16494,-7.96,-3.57,4.33,0.16,-0.08,0.44,-15.25,-37.20,16.68
16505,-7.96,-3.57,4.33,0.16,-0.08,0.44,-15.25,-37.20,16.68
16516,-7.86,-4.21,3.76,-0.01,-0.02,0.26,-16.76,-35.32,19.15
16527,-7.86,-4.21,3.76,-0.01,-0.02,0.26,-16.76,-35.32,19.15
16538,-7.94,-3.95,3.33,-0.06,-0.03,0.18,-16.76,-35.32,19.15
16549,-8.27,-3.81,3.71,0.05,-0.09,0.16,-16.76,-35.32,19.15
16560,-8.27,-3.81,3.71,0.05,-0.09,0.16,-16.76,-35.32,19.15
16571,-8.11,-3.92,3.77,0.15,-0.08,0.15,-16.76,-35.32,19.15
16582,-8.11,-3.92,3.77,0.15,-0.08,0.15,-16.76,-35.32,19.15
16593,-7.93,-3.97,3.95,0.13,-0.09,0.08,-16.76,-35.32,19.15
16604,-7.93,-3.97,3.95,0.13,-0.09,0.08,-16.76,-35.32,19.15
16615,-7.60,-3.69,3.25,0.06,-0.09,0.02,-16.76,-35.32,19.15
16626,-7.60,-3.69,3.25,0.06,-0.09,0.02,-16.76,-35.32,19.15
16637,-7.59,-4.07,3.37,-0.02,-0.14,-0.04,-16.76,-35.32,19.15
16648,-7.59,-4.07,3.37,-0.02,-0.14,-0.04,-16.76,-35.32,19.15
16659,-8.13,-3.95,3.65,-0.12,-0.14,-0.08,-16.92,-36.51,19.72
16670,-7.96,-3.96,3.39,-0.20,-0.10,-0.14,-16.92,-36.51,19.72
16681,-7.96,-3.96,3.39,-0.20,-0.10,-0.14,-16.92,-36.51,19.72
16692,-8.40,-4.08,3.57,-0.28,-0.07,-0.22,-16.92,-36.51,19.72
16703,-8.40,-4.08,3.57,-0.28,-0.07,-0.22,-16.92,-36.51,19.72
16714,-8.09,-3.96,3.13,-0.18,-0.01,-0.23,-16.92,-36.51,19.72
16725,-8.09,-3.96,3.13,-0.18,-0.01,-0.23,-16.92,-36.51,19.72
16736,-8.44,-4.37,3.30,-0.21,-0.07,-0.24,-16.92,-36.51,19.72
16747,-8.44,-4.37,3.30,-0.21,-0.07,-0.24,-16.92,-36.51,19.72
16758,-8.09,-3.91,3.52,-0.11,-0.06,-0.19,-16.92,-36.51,19.72
16769,-8.09,-3.91,3.52,-0.11,-0.06,-0.19,-16.92,-36.51,19.72
16780,-7.82,-3.97,3.79,-0.13,-0.02,-0.30,-15.75,-37.03,18.39
16791,-8.39,-3.82,3.91,-0.28,0.03,-0.44,-15.75,-37.03,18.39
16802,-8.39,-3.82,3.91,-0.28,0.03,-0.44,-15.75,-37.03,18.39
16813,-8.45,-4.84,3.02,-0.34,0.09,-0.50,-15.75,-37.03,18.39
16824,-8.45,-4.84,3.02,-0.34,0.09,-0.50,-15.75,-37.03,18.39
16835,-8.11,-4.31,3.50,-0.07,0.05,-0.30,-15.75,-37.03,18.39
16846,-8.11,-4.31,3.50,-0.07,0.05,-0.30,-15.75,-37.03,18.39
16857,-8.19,-4.57,3.99,-0.01,0.05,-0.24,-15.75,-37.03,18.39
16868,-8.19,-4.57,3.99,-0.01,0.05,-0.24,-15.75,-37.03,18.39
16879,-8.05,-4.37,3.73,-0.09,0.09,-0.17,-15.75,-37.03,18.39
16890,-8.32,-4.59,3.45,-0.17,0.12,-0.11,-14.41,-39.08,16.49
16901,-8.32,-4.59,3.45,-0.17,0.12,-0.11,-14.41,-39.08,16.49
16912,-8.22,-5.54,2.37,-0.02,0.16,0.02,-14.41,-39.08,16.49
16923,-8.22,-5.54,2.37,-0.02,0.16,0.02,-14.41,-39.08,16.49
16934,-8.12,-4.27,3.39,0.30,0.06,0.33,-14.41,-39.08,16.49
16945,-8.12,-4.27,3.39,0.30,0.06,0.33,-14.41,-39.08,16.49
16956,-7.83,-4.30,4.06,0.35,0.04,0.40,-14.41,-39.08,16.49
16967,-7.83,-4.30,4.06,0.35,0.04,0.40,-14.41,-39.08,16.49
16978,-7.91,-3.93,3.98,0.26,0.07,0.36,-14.41,-39.08,16.49
16989,-7.91,-3.93,3.98,0.26,0.07,0.36,-14.41,-39.08,16.49
17000,-8.00,-4.66,3.74,0.15,0.07,0.29,-14.41,-39.08,16.49
17011,-8.06,-4.05,3.19,0.21,0.03,0.36,-14.41,-39.08,16.49
17022,-8.06,-4.05,3.19,0.21,0.03,0.36,-14.41,-39.08,16.49
17033,-7.92,-4.05,3.66,0.28,-0.06,0.40,-14.91,-36.86,17.82
17044,-7.92,-4.05,3.66,0.28,-0.06,0.40,-14.91,-36.86,17.82
17055,-7.99,-3.80,3.78,0.13,-0.10,0.35,-14.91,-36.86,17.82
17066,-7.99,-3.80,3.78,0.13,-0.10,0.35,-14.91,-36.86,17.82
17077,-8.10,-3.39,3.96,0.20,-0.10,0.37,-14.91,-36.86,17.82
17088,-8.10,-3.39,3.96,0.20,-0.10,0.37,-14.91,-36.86,17.82
17099,-8.21,-3.58,4.54,0.06,-0.09,0.22,-14.91,-36.86,17.82
17110,-7.94,-4.38,3.37,-0.05,-0.08,0.13,-14.91,-36.86,17.82
17121,-7.94,-4.38,3.37,-0.05,-0.08,0.13,-14.91,-36.86,17.82
17132,-8.23,-3.66,4.01,0.07,-0.17,0.23,-14.91,-36.86,17.82
17143,-8.23,-3.66,4.01,0.07,-0.17,0.23,-14.91,-36.86,17.82
17154,-8.02,-3.95,3.52,0.07,-0.12,0.15,-16.25,-35.15,17.44
17165,-8.02,-3.95,3.52,0.07,-0.12,0.15,-16.25,-35.15,17.44
17176,-8.18,-3.50,3.55,0.08,-0.11,0.08,-16.25,-35.15,17.44
17187,-8.18,-3.50,3.55,0.08,-0.11,0.08,-16.25,-35.15,17.44
17198,-7.99,-3.65,3.49,0.05,-0.08,-0.02,-16.25,-35.15,17.44
17209,-7.99,-3.65,3.49,0.05,-0.08,-0.02,-16.25,-35.15,17.44
17220,-7.85,-4.34,3.65,-0.08,-0.09,-0.09,-16.25,-35.15,17.44
17231,-7.98,-3.67,3.62,-0.18,-0.11,-0.09,-16.25,-35.15,17.44
17242,-7.98,-3.67,3.62,-0.18,-0.11,-0.09,-16.25,-35.15,17.44
17253,-7.99,-4.18,3.28,-0.24,-0.09,-0.19,-16.25,-35.15,17.44
17264,-7.99,-4.18,3.28,-0.24,-0.09,-0.19,-16.25,-35.15,17.44
17275,-7.76,-4.09,3.51,-0.11,-0.10,-0.17,-16.59,-36.17,18.96
17286,-7.76,-4.09,3.51,-0.11,-0.10,-0.17,-16.59,-36.17,18.96
17297,-7.88,-3.82,4.22,-0.14,-0.10,-0.16,-16.59,-36.17,18.96
17308,-7.88,-3.82,4.22,-0.14,-0.10,-0.16,-16.59,-36.17,18.96
17319,-8.30,-4.24,3.49,-0.20,-0.03,-0.23,-16.59,-36.17,18.96
17330,-8.57,-3.57,3.85,-0.35,-0.01,-0.24,-16.59,-36.17,18.96
17341,-8.57,-3.57,3.85,-0.35,-0.01,-0.24,-16.59,-36.17,18.96
17357,-8.37,-4.32,3.16,-0.32,0.04,-0.26,-16.59,-36.17,18.96
17363,-8.37,-4.32,3.16,-0.32,0.04,-0.26,-16.59,-36.17,18.96
17374,-8.32,-4.06,3.47,-0.14,0.02,-0.19,-16.59,-36.17,18.96
17385,-8.32,-4.06,3.47,-0.14,0.02,-0.19,-16.59,-36.17,18.96
17396,-8.29,-3.48,3.48,-0.14,0.07,-0.23,-14.91,-37.88,18.20
17407,-8.29,-3.48,3.48,-0.14,0.07,-0.23,-14.91,-37.88,18.20
17418,-8.08,-4.04,3.71,-0.10,0.13,-0.33,-14.91,-37.88,18.20
17429,-8.08,-4.04,3.71,-0.10,0.13,-0.33,-14.91,-37.88,18.20
17440,-7.95,-5.03,3.57,-0.02,0.13,-0.29,-14.91,-37.88,18.20
17451,-7.94,-4.35,3.71,0.01,0.06,-0.11,-14.91,-37.88,18.20
17462,-7.94,-4.35,3.71,0.01,0.06,-0.11,-14.91,-37.88,18.20
17473,-8.19,-4.43,3.99,-0.03,0.05,-0.07,-14.91,-37.88,18.20
17484,-8.19,-4.43,3.99,-0.03,0.05,-0.07,-14.91,-37.88,18.20
17495,-8.42,-4.66,3.25,-0.18,0.13,-0.03,-14.91,-37.88,18.20
17506,-8.42,-4.66,3.25,-0.18,0.13,-0.03,-14.91,-37.88,18.20
17517,-8.13,-4.83,2.82,-0.09,0.14,0.12,-14.91,-37.88,18.20
17528,-8.13,-4.83,2.82,-0.09,0.14,0.12,-14.91,-37.88,18.20
17539,-7.99,-4.26,3.81,0.10,0.09,0.33,-15.25,-37.88,17.44
17550,-7.82,-4.03,3.43,0.15,0.11,0.35,-15.25,-37.88,17.44
17561,-7.82,-4.03,3.43,0.15,0.11,0.35,-15.25,-37.88,17.44
17572,-7.79,-4.02,3.71,0.16,0.10,0.33,-15.25,-37.88,17.44
17583,-7.79,-4.02,3.71,0.16,0.10,0.33,-15.25,-37.88,17.44
17594,-7.86,-4.33,4.07,0.06,0.06,0.30,-15.25,-37.88,17.44
17605,-7.86,-4.33,4.07,0.06,0.06,0.30,-15.25,-37.88,17.44
17616,-8.03,-4.68,3.67,0.03,0.01,0.32,-15.25,-37.88,17.44
17627,-8.03,-4.68,3.67,0.03,0.01,0.32,-15.25,-37.88,17.44
17638,-7.84,-4.08,3.69,0.09,-0.02,0.39,-15.25,-37.88,17.44
17649,-7.84,-4.08,3.69,0.09,-0.02,0.39,-15.25,-37.88,17.44
17660,-8.02,-3.85,3.48,-0.04,0.00,0.27,-16.09,-37.71,15.35
17671,-8.15,-3.99,3.34,0.01,-0.07,0.25,-16.09,-37.71,15.35
17682,-8.15,-3.99,3.34,0.01,-0.07,0.25,-16.09,-37.71,15.35
17693,-7.99,-4.01,3.40,0.12,-0.10,0.24,-16.09,-37.71,15.35
17704,-7.99,-4.01,3.40,0.12,-0.10,0.24,-16.09,-37.71,15.35
17715,-7.92,-3.65,3.69,0.18,-0.10,0.16,-16.09,-37.71,15.35
17726,-7.92,-3.65,3.69,0.18,-0.10,0.16,-16.09,-37.71,15.35
17737,-7.96,-4.10,3.46,0.11,-0.12,0.06,-16.09,-37.71,15.35
17748,-7.96,-4.10,3.46,0.11,-0.12,0.06,-16.09,-37.71,15.35
17759,-7.97,-4.14,3.82,0.09,-0.16,0.03,-16.09,-37.71,15.35
17770,-7.97,-4.14,3.82,0.09,-0.16,0.03,-16.09,-37.71,15.35
17781,-8.14,-3.81,4.06,0.04,-0.20,0.02,-16.25,-35.83,17.44
17792,-8.07,-3.87,3.94,-0.08,-0.15,-0.07,-16.25,-35.83,17.44
17803,-8.07,-3.87,3.94,-0.08,-0.15,-0.07,-16.25,-35.83,17.44
17814,-7.96,-4.18,3.94,-0.12,-0.10,-0.15,-16.25,-35.83,17.44
17825,-7.96,-4.18,3.94,-0.12,-0.10,-0.15,-16.25,-35.83,17.44
17836,-8.26,-4.16,3.69,-0.20,-0.05,-0.19,-16.25,-35.83,17.44
17847,-8.26,-4.16,3.69,-0.20,-0.05,-0.19,-16.25,-35.83,17.44
17858,-8.04,-4.06,3.60,-0.27,-0.02,-0.22,-16.25,-35.83,17.44
17869,-8.04,-4.06,3.60,-0.27,-0.02,-0.22,-16.25,-35.83,17.44
17880,-8.15,-4.37,3.09,-0.28,0.01,-0.25,-16.25,-35.83,17.44
17891,-8.63,-3.70,3.31,-0.24,-0.00,-0.23,-16.25,-35.83,17.44
17902,-8.63,-3.70,3.31,-0.24,-0.00,-0.23,-16.25,-35.83,17.44
17913,-8.35,-3.69,3.44,-0.20,0.03,-0.27,-16.59,-36.86,17.44
17924,-8.35,-3.69,3.44,-0.20,0.03,-0.27,-16.59,-36.86,17.44
17935,-8.52,-4.06,3.47,-0.16,0.06,-0.29,-16.59,-36.86,17.44
17946,-8.52,-4.06,3.47,-0.16,0.06,-0.29,-16.59,-36.86,17.44
17962,-8.39,-3.80,3.58,-0.11,0.06,-0.24,-16.59,-36.86,17.44
17968,-8.39,-3.80,3.58,-0.11,0.06,-0.24,-16.59,-36.86,17.44
17979,-8.22,-4.06,3.81,-0.07,0.09,-0.21,-16.59,-36.86,17.44
17990,-8.22,-4.06,3.81,-0.07,0.09,-0.21,-16.59,-36.86,17.44
18001,-7.97,-4.97,3.22,-0.07,0.15,-0.20,-16.59,-36.86,17.44
18012,-8.24,-4.08,4.02,-0.04,0.12,-0.07,-16.59,-36.86,17.44
18023,-8.24,-4.08,4.02,-0.04,0.12,-0.07,-16.59,-36.86,17.44
18034,-8.26,-4.75,3.37,-0.17,0.15,-0.03,-15.08,-37.71,15.35
18045,-8.26,-4.75,3.37,-0.17,0.15,-0.03,-15.08,-37.71,15.35
18056,-8.32,-4.98,3.44,-0.08,0.12,0.09,-15.08,-37.71,15.35
18067,-8.32,-4.98,3.44,-0.08,0.12,0.09,-15.08,-37.71,15.35
18078,-8.04,-4.19,3.63,0.10,0.12,0.24,-15.08,-37.71,15.35
18089,-8.04,-4.19,3.63,0.10,0.12,0.24,-15.08,-37.71,15.35
18100,-8.07,-4.15,3.51,0.08,0.11,0.23,-15.08,-37.71,15.35
18111,-7.82,-4.40,3.12,0.18,0.10,0.28,-15.08,-37.71,15.35
18122,-7.82,-4.40,3.12,0.18,0.10,0.28,-15.08,-37.71,15.35
18133,-8.02,-4.04,3.69,0.18,0.00,0.34,-15.08,-37.71,15.35
18149,-8.02,-4.04,3.69,0.18,0.00,0.34,-15.08,-37.71,15.35
18155,-7.87,-4.29,3.60,0.23,-0.01,0.36,-14.74,-35.32,17.25
18166,-7.87,-4.29,3.60,0.23,-0.01,0.36,-14.74,-35.32,17.25
18177,-8.03,-3.98,4.79,0.19,-0.08,0.38,-14.74,-35.32,17.25
18188,-8.03,-3.98,4.79,0.19,-0.08,0.38,-14.74,-35.32,17.25
18199,-7.77,-4.65,3.79,-0.01,-0.06,0.24,-14.74,-35.32,17.25
18210,-7.77,-4.65,3.79,-0.01,-0.06,0.24,-14.74,-35.32,17.25
18221,-7.98,-3.69,3.43,-0.01,-0.10,0.24,-14.74,-35.32,17.25
18232,-8.17,-3.64,3.78,0.04,-0.14,0.18,-14.74,-35.32,17.25
18243,-8.17,-3.64,3.78,0.04,-0.14,0.18,-14.74,-35.32,17.25
18254,-8.01,-3.87,3.50,-0.01,-0.11,0.06,-14.74,-35.32,17.25
18265,-8.01,-3.87,3.50,-0.01,-0.11,0.06,-14.74,-35.32,17.25
18276,-8.37,-4.19,3.63,-0.09,-0.15,0.02,-14.74,-35.32,17.25
18287,-8.37,-4.19,3.63,-0.09,-0.15,0.02,-14.74,-35.32,17.25
18298,-8.24,-4.27,3.17,-0.08,-0.11,0.02,-15.92,-36.86,17.44
18309,-8.24,-4.27,3.17,-0.08,-0.11,0.02,-15.92,-36.86,17.44
18320,-8.08,-4.17,3.61,-0.00,-0.13,0.02,-15.92,-36.86,17.44
18331,-8.10,-3.92,3.72,-0.11,-0.11,-0.07,-15.92,-36.86,17.44
18342,-8.10,-3.92,3.72,-0.11,-0.11,-0.07,-15.92,-36.86,17.44
18353,-8.06,-4.12,3.75,-0.18,-0.07,-0.18,-15.92,-36.86,17.44
18364,-8.06,-4.12,3.75,-0.18,-0.07,-0.18,-15.92,-36.86,17.44
18375,-8.16,-3.80,3.52,-0.23,-0.04,-0.22,-15.92,-36.86,17.44
18386,-8.16,-3.80,3.52,-0.23,-0.04,-0.22,-15.92,-36.86,17.44
18397,-8.42,-4.03,3.39,-0.27,-0.02,-0.28,-15.92,-36.86,17.44
18408,-8.42,-4.03,3.39,-0.27,-0.02,-0.28,-15.92,-36.86,17.44
18419,-8.35,-4.33,2.92,-0.27,0.02,-0.31,-15.08,-37.03,17.63
18430,-8.35,-4.33,2.92,-0.27,0.02,-0.31,-15.08,-37.03,17.63
18441,-8.55,-3.54,3.65,-0.16,0.00,-0.27,-15.08,-37.03,17.63
18452,-8.19,-3.83,3.18,-0.10,0.09,-0.33,-15.08,-37.03,17.63
18463,-8.19,-3.83,3.18,-0.10,0.09,-0.33,-15.08,-37.03,17.63
18474,-8.52,-4.11,4.17,-0.08,0.05,-0.33,-15.08,-37.03,17.63
18485,-8.52,-4.11,4.17,-0.08,0.05,-0.33,-15.08,-37.03,17.63
18496,-8.10,-4.62,3.61,-0.03,0.12,-0.26,-15.08,-37.03,17.63
18507,-8.10,-4.62,3.61,-0.03,0.12,-0.26,-15.08,-37.03,17.63
18518,-8.20,-4.30,3.74,-0.02,0.09,-0.14,-15.08,-37.03,17.63
18529,-8.20,-4.30,3.74,-0.02,0.09,-0.14,-15.08,-37.03,17.63
18540,-8.47,-4.87,2.89,-0.03,0.13,-0.09,-14.74,-38.39,16.11
18551,-8.05,-5.00,3.02,0.17,0.08,0.15,-14.74,-38.39,16.11
18562,-8.05,-5.00,3.02,0.17,0.08,0.15,-14.74,-38.39,16.11
18573,-8.31,-4.47,4.03,0.27,0.01,0.33,-14.74,-38.39,16.11
18584,-8.31,-4.47,4.03,0.27,0.01,0.33,-14.74,-38.39,16.11
18595,-8.23,-3.40,3.46,0.23,0.06,0.40,-14.74,-38.39,16.11
18606,-8.23,-3.40,3.46,0.23,0.06,0.40,-14.74,-38.39,16.11
18617,-8.04,-4.64,3.97,0.15,0.12,0.34,-14.74,-38.39,16.11
18628,-8.04,-4.64,3.97,0.15,0.12,0.34,-14.74,-38.39,16.11
18639,-7.87,-4.32,3.19,0.09,0.11,0.36,-14.74,-38.39,16.11
18650,-7.87,-4.32,3.19,0.09,0.11,0.36,-14.74,-38.39,16.11
18661,-8.12,-3.75,3.66,0.17,0.01,0.40,-14.74,-38.39,16.11
18672,-7.88,-4.23,3.40,0.09,-0.02,0.29,-17.26,-36.51,17.06
18683,-7.88,-4.23,3.40,0.09,-0.02,0.29,-17.26,-36.51,17.06
18694,-8.04,-3.64,3.62,0.11,-0.10,0.30,-17.26,-36.51,17.06
18705,-8.04,-3.64,3.62,0.11,-0.10,0.30,-17.26,-36.51,17.06
18716,-8.02,-3.80,3.30,0.08,-0.09,0.21,-17.26,-36.51,17.06
18727,-8.02,-3.80,3.30,0.08,-0.09,0.21,-17.26,-36.51,17.06
18738,-7.98,-3.79,3.70,0.15,-0.13,0.20,-17.26,-36.51,17.06
18749,-7.98,-3.79,3.70,0.15,-0.13,0.20,-17.26,-36.51,17.06
18760,-8.10,-3.85,4.01,0.09,-0.17,0.16,-17.26,-36.51,17.06
18771,-7.98,-3.71,3.74,0.03,-0.13,0.10,-17.26,-36.51,17.06
18782,-7.98,-3.71,3.74,0.03,-0.13,0.10,-17.26,-36.51,17.06
18793,-7.82,-4.38,2.95,-0.02,-0.11,0.00,-16.76,-34.29,15.73
18804,-7.82,-4.38,2.95,-0.02,-0.11,0.00,-16.76,-34.29,15.73
18815,-8.07,-4.02,3.61,0.02,-0.13,-0.02,-16.76,-34.29,15.73
18826,-8.07,-4.02,3.61,0.02,-0.13,-0.02,-16.76,-34.29,15.73
18837,-8.11,-4.18,3.69,-0.02,-0.08,-0.12,-16.76,-34.29,15.73
18848,-8.11,-4.18,3.69,-0.02,-0.08,-0.12,-16.76,-34.29,15.73
18859,-8.28,-3.93,4.44,-0.07,-0.08,-0.16,-16.76,-34.29,15.73
18870,-8.28,-3.93,4.44,-0.07,-0.08,-0.16,-16.76,-34.29,15.73
18881,-8.19,-3.96,3.66,-0.24,0.01,-0.20,-16.76,-34.29,15.73
18892,-8.24,-4.46,3.40,-0.31,-0.01,-0.24,-16.76,-34.29,15.73
18903,-8.24,-4.46,3.40,-0.31,-0.01,-0.24,-16.76,-34.29,15.73
18914,-8.08,-3.75,3.36,-0.33,-0.05,-0.22,-15.92,-34.47,15.54
18925,-8.08,-3.75,3.36,-0.33,-0.05,-0.22,-15.92,-34.47,15.54
18936,-8.62,-3.92,2.95,-0.25,-0.03,-0.27,-15.92,-34.47,15.54
18947,-8.62,-3.92,2.95,-0.25,-0.03,-0.27,-15.92,-34.47,15.54
18958,-8.86,-3.63,2.81,-0.06,-0.02,-0.26,-15.92,-34.47,15.54
18969,-8.86,-3.63,2.81,-0.06,-0.02,-0.26,-15.92,-34.47,15.54
18980,-8.40,-3.57,3.32,0.24,-0.03,-0.18,-15.92,-34.47,15.54
18991,-8.40,-3.57,3.32,0.24,-0.03,-0.18,-15.92,-34.47,15.54
19002,-8.31,-3.93,3.94,0.34,-0.02,-0.18,-15.92,-34.47,15.54
19013,-8.31,-3.51,4.38,0.35,0.08,-0.23,-15.92,-34.47,15.54
19024,-8.31,-3.51,4.38,0.35,0.08,-0.23,-15.92,-34.47,15.54
19035,-7.97,-4.90,3.51,0.13,0.17,-0.29,-14.41,-37.37,17.63
19046,-7.97,-4.90,3.51,0.13,0.17,-0.29,-14.41,-37.37,17.63
19057,-8.36,-4.25,3.46,0.02,0.13,-0.13,-14.41,-37.37,17.63
19068,-8.36,-4.25,3.46,0.02,0.13,-0.13,-14.41,-37.37,17.63
19079,-8.44,-4.62,3.39,-0.05,0.11,-0.01,-14.41,-37.37,17.63
19090,-8.44,-4.62,3.39,-0.05,0.11,-0.01,-14.41,-37.37,17.63
19101,-8.12,-4.61,3.91,-0.01,0.09,0.18,-14.41,-37.37,17.63
19112,-8.04,-4.16,4.11,0.14,0.07,0.35,-14.41,-37.37,17.63
19123,-8.04,-4.16,4.11,0.14,0.07,0.35,-14.41,-37.37,17.63
19134,-8.07,-3.42,4.59,0.26,0.13,0.41,-14.41,-37.37,17.63
19145,-8.07,-3.42,4.59,0.26,0.13,0.41,-14.41,-37.37,17.63
19156,-7.82,-4.84,4.19,0.25,0.18,0.36,-14.41,-37.37,17.63
19167,-7.82,-4.84,4.19,0.25,0.18,0.36,-14.41,-37.37,17.63
19178,-7.81,-4.18,3.50,0.17,0.14,0.43,-16.92,-36.17,16.68
19189,-7.81,-4.18,3.50,0.17,0.14,0.43,-16.92,-36.17,16.68
19200,-7.99,-3.86,3.95,0.22,-0.02,0.43,-16.92,-36.17,16.68
19211,-7.99,-3.86,3.95,0.22,-0.02,0.43,-16.92,-36.17,16.68
19222,-8.21,-3.62,4.28,0.17,-0.10,0.40,-16.92,-36.17,16.68
19233,-7.81,-4.10,3.91,0.19,-0.14,0.36,-16.92,-36.17,16.68
19244,-7.81,-4.10,3.91,0.19,-0.14,0.36,-16.92,-36.17,16.68
19255,-8.22,-3.44,4.28,0.17,-0.17,0.30,-16.92,-36.17,16.68
19266,-8.22,-3.44,4.28,0.17,-0.17,0.30,-16.92,-36.17,16.68
19277,-7.84,-3.76,3.87,0.10,-0.11,0.14,-16.92,-36.17,16.68
19288,-7.84,-3.76,3.87,0.10,-0.11,0.14,-16.92,-36.17,16.68
19299,-8.05,-3.15,3.75,0.04,-0.12,0.07,-16.09,-34.29,17.25
19310,-8.05,-3.15,3.75,0.04,-0.12,0.07,-16.09,-34.29,17.25
19321,-7.71,-3.83,3.87,-0.07,-0.13,-0.07,-16.09,-34.29,17.25
19332,-8.55,-4.04,3.68,-0.20,-0.11,-0.14,-16.09,-34.29,17.25
19343,-8.55,-4.04,3.68,-0.20,-0.11,-0.14,-16.09,-34.29,17.25
19354,-7.79,-3.85,3.47,-0.32,-0.07,-0.21,-16.09,-34.29,17.25
19365,-7.79,-3.85,3.47,-0.32,-0.07,-0.21,-16.09,-34.29,17.25
19376,-7.96,-4.07,3.38,-0.40,-0.06,-0.27,-16.09,-34.29,17.25
19387,-7.96,-4.07,3.38,-0.40,-0.06,-0.27,-16.09,-34.29,17.25
19398,-8.36,-4.13,3.14,-0.38,-0.06,-0.29,-16.09,-34.29,17.25
19409,-8.36,-4.13,3.14,-0.38,-0.06,-0.29,-16.09,-34.29,17.25
19420,-8.19,-3.80,3.24,-0.31,-0.08,-0.25,-15.92,-35.15,18.58
19431,-8.19,-3.80,3.24,-0.31,-0.08,-0.25,-15.92,-35.15,18.58
19442,-7.94,-3.86,3.23,-0.19,-0.06,-0.22,-15.92,-35.15,18.58
19453,-8.99,-3.66,2.89,-0.12,-0.05,-0.23,-15.92,-35.15,18.58
19464,-8.99,-3.66,2.89,-0.12,-0.05,-0.23,-15.92,-35.15,18.58
19475,-8.94,-2.82,3.59,0.02,-0.01,-0.24,-15.92,-35.15,18.58
19486,-8.94,-2.82,3.59,0.02,-0.01,-0.24,-15.92,-35.15,18.58
19497,-8.45,-3.86,3.31,-0.03,0.08,-0.34,-15.92,-35.15,18.58
19508,-8.45,-3.86,3.31,-0.03,0.08,-0.34,-15.92,-35.15,18.58
19519,-8.21,-3.91,3.50,-0.00,0.14,-0.29,-15.92,-35.15,18.58
19530,-8.21,-3.91,3.50,-0.00,0.14,-0.29,-15.92,-35.15,18.58
19541,-7.94,-4.31,3.56,0.01,0.18,-0.23,-15.92,-35.15,18.58
19552,-8.18,-4.24,3.82,0.00,0.14,-0.13,-15.25,-37.54,17.82
19563,-8.18,-4.24,3.82,0.00,0.14,-0.13,-15.25,-37.54,17.82
19574,-8.25,-4.72,3.32,-0.07,0.13,-0.02,-15.25,-37.54,17.82
19585,-8.25,-4.72,3.32,-0.07,0.13,-0.02,-15.25,-37.54,17.82
19596,-8.12,-4.36,3.45,0.06,0.12,0.20,-15.25,-37.54,17.82
19607,-8.12,-4.36,3.45,0.06,0.12,0.20,-15.25,-37.54,17.82
19618,-8.11,-4.65,3.76,0.15,0.10,0.35,-15.25,-37.54,17.82
19629,-8.11,-4.65,3.76,0.15,0.10,0.35,-15.25,-37.54,17.82
19640,-8.25,-3.86,4.06,0.23,0.11,0.50,-15.25,-37.54,17.82
19651,-8.25,-3.86,4.06,0.23,0.11,0.50,-15.25,-37.54,17.82
19662,-7.93,-3.82,3.98,0.23,0.12,0.50,-15.25,-37.54,17.82
19673,-7.89,-4.19,3.54,0.12,0.09,0.49,-15.58,-35.15,16.68
19684,-7.89,-4.19,3.54,0.12,0.09,0.49,-15.58,-35.15,16.68
19695,-7.81,-3.67,3.34,0.15,-0.02,0.55,-15.58,-35.15,16.68
19706,-7.81,-3.67,3.34,0.15,-0.02,0.55,-15.58,-35.15,16.68
19717,-7.93,-3.50,3.51,0.17,-0.13,0.52,-15.58,-35.15,16.68
19728,-7.93,-3.50,3.51,0.17,-0.13,0.52,-15.58,-35.15,16.68
19739,-7.98,-3.61,3.32,0.08,-0.17,0.37,-15.58,-35.15,16.68
19750,-7.98,-3.61,3.32,0.08,-0.17,0.37,-15.58,-35.15,16.68
19761,-8.40,-3.17,3.85,0.08,-0.19,0.25,-15.58,-35.15,16.68
19772,-8.24,-3.64,3.74,0.12,-0.17,0.10,-15.58,-35.15,16.68
19783,-8.24,-3.64,3.74,0.12,-0.17,0.10,-15.58,-35.15,16.68
19794,-8.02,-3.13,4.08,0.11,-0.21,0.02,-17.76,-33.61,18.01
19805,-8.02,-3.13,4.08,0.11,-0.21,0.02,-17.76,-33.61,18.01
19816,-8.00,-3.54,4.51,-0.01,-0.24,-0.10,-17.76,-33.61,18.01
19827,-8.00,-3.54,4.51,-0.01,-0.24,-0.10,-17.76,-33.61,18.01
19838,-8.33,-3.49,4.14,-0.15,-0.19,-0.21,-17.76,-33.61,18.01
19849,-8.33,-3.49,4.14,-0.15,-0.19,-0.21,-17.76,-33.61,18.01
19860,-7.59,-4.17,3.98,-0.12,-0.18,-0.28,-17.76,-33.61,18.01
19871,-7.59,-4.17,3.98,-0.12,-0.18,-0.28,-17.76,-33.61,18.01
19882,-8.44,-3.74,3.74,-0.22,-0.18,-0.29,-17.76,-33.61,18.01
19893,-8.19,-4.11,3.79,-0.13,-0.15,-0.26,-17.76,-33.61,18.01
19904,-8.19,-4.11,3.79,-0.13,-0.15,-0.26,-17.76,-33.61,18.01
19915,-8.04,-3.90,4.33,-0.13,-0.14,-0.20,-17.76,-33.61,18.01
19926,-8.04,-3.90,4.33,-0.13,-0.14,-0.20,-17.76,-33.61,18.01
19937,-7.72,-3.67,3.83,-0.19,-0.04,-0.27,-16.59,-35.49,18.96
19948,-7.72,-3.67,3.83,-0.19,-0.04,-0.27,-16.59,-35.49,18.96
19959,-8.14,-3.74,3.82,-0.41,0.01,-0.41,-16.59,-35.49,18.96
19970,-8.14,-3.74,3.82,-0.41,0.01,-0.41,-16.59,-35.49,18.96
19981,-8.65,-3.95,3.34,-0.51,0.07,-0.42,-16.59,-35.49,18.96
19992,-8.65,-3.95,3.34,-0.51,0.07,-0.42,-16.59,-35.49,18.96
20003,-8.83,-3.84,3.37,-0.26,0.09,-0.31,-16.59,-35.49,18.96
20014,-8.59,-3.74,3.80,-0.05,0.05,-0.19,-16.59,-35.49,18.96
20025,-8.59,-3.74,3.80,-0.05,0.05,-0.19,-16.59,-35.49,18.96
20036,-8.56,-3.24,4.26,-0.05,0.08,-0.15,-16.59,-35.49,18.96
20047,-8.56,-3.24,4.26,-0.05,0.08,-0.15,-16.59,-35.49,18.96
20058,-8.46,-4.66,3.72,-0.17,0.15,-0.18,-15.08,-37.37,18.01
20069,-8.46,-4.66,3.72,-0.17,0.15,-0.18,-15.08,-37.37,18.01
20080,-8.29,-4.80,3.57,-0.04,0.16,0.05,-15.08,-37.37,18.01
20091,-8.29,-4.80,3.57,-0.04,0.16,0.05,-15.08,-37.37,18.01
20102,-8.12,-4.15,4.07,0.27,0.14,0.30,-15.08,-37.37,18.01
20113,-7.70,-4.61,4.15,0.32,0.14,0.33,-15.08,-37.37,18.01
20124,-7.70,-4.61,4.15,0.32,0.14,0.33,-15.08,-37.37,18.01
20135,-8.02,-3.88,4.09,0.26,0.16,0.36,-15.08,-37.37,18.01
20146,-8.02,-3.88,4.09,0.26,0.16,0.36,-15.08,-37.37,18.01
20157,-7.98,-3.96,3.72,0.23,0.14,0.39,-15.08,-37.37,18.01
20168,-7.98,-3.96,3.72,0.23,0.14,0.39,-15.08,-37.37,18.01
20179,-7.81,-4.11,3.84,0.16,0.04,0.40,-16.09,-36.00,17.63
20190,-7.81,-4.11,3.84,0.16,0.04,0.40,-16.09,-36.00,17.63
20201,-7.84,-4.08,4.08,0.14,-0.07,0.43,-16.09,-36.00,17.63
20212,-7.84,-4.08,4.08,0.14,-0.07,0.43,-16.09,-36.00,17.63
20223,-8.06,-3.43,4.33,0.05,-0.14,0.42,-16.09,-36.00,17.63
20234,-8.44,-2.76,4.39,-0.04,-0.10,0.33,-16.09,-36.00,17.63
20245,-8.44,-2.76,4.39,-0.04,-0.10,0.33,-16.09,-36.00,17.63
20256,-8.17,-4.31,4.28,-0.01,-0.09,0.13,-16.09,-36.00,17.63
20267,-8.17,-4.31,4.28,-0.01,-0.09,0.13,-16.09,-36.00,17.63
20278,-7.86,-3.28,3.56,0.14,-0.06,0.12,-16.09,-36.00,17.63
20289,-7.86,-3.28,3.56,0.14,-0.06,0.12,-16.09,-36.00,17.63
20300,-8.17,-3.77,4.16,0.10,-0.12,-0.04,-17.93,-36.86,17.06
20311,-8.17,-3.77,4.16,0.10,-0.12,-0.04,-17.93,-36.86,17.06
20322,-8.15,-3.84,3.51,-0.01,-0.10,-0.06,-17.93,-36.86,17.06
20333,-7.90,-4.05,3.20,-0.01,-0.12,-0.06,-17.93,-36.86,17.06
20344,-7.90,-4.05,3.20,-0.01,-0.12,-0.06,-17.93,-36.86,17.06
20355,-8.36,-3.54,4.07,-0.02,-0.18,-0.05,-17.93,-36.86,17.06
20366,-8.36,-3.54,4.07,-0.02,-0.18,-0.05,-17.93,-36.86,17.06
20377,-7.95,-3.40,3.63,-0.05,-0.11,-0.11,-17.93,-36.86,17.06
20388,-7.95,-3.40,3.63,-0.05,-0.11,-0.11,-17.93,-36.86,17.06
20399,-7.91,-3.88,3.96,-0.12,-0.12,-0.21,-17.93,-36.86,17.06
20410,-7.91,-3.88,3.96,-0.12,-0.12,-0.21,-17.93,-36.86,17.06
20421,-8.45,-3.87,4.15,-0.14,-0.11,-0.20,-17.93,-36.86,17.06
20432,-8.45,-3.87,4.15,-0.14,-0.11,-0.20,-17.93,-36.86,17.06
20443,-8.39,-3.47,4.03,-0.19,-0.08,-0.19,-16.76,-36.00,16.49
20454,-8.22,-3.99,3.84,-0.25,-0.03,-0.25,-16.76,-36.00,16.49
20465,-8.22,-3.99,3.84,-0.25,-0.03,-0.25,-16.76,-36.00,16.49
20476,-8.01,-3.97,3.49,-0.30,-0.01,-0.22,-16.76,-36.00,16.49
20487,-8.01,-3.97,3.49,-0.30,-0.01,-0.22,-16.76,-36.00,16.49
20498,-8.50,-3.33,3.52,-0.35,0.01,-0.25,-16.76,-36.00,16.49
20509,-8.50,-3.33,3.52,-0.35,0.01,-0.25,-16.76,-36.00,16.49
20520,-8.56,-3.70,3.95,-0.25,0.03,-0.30,-16.76,-36.00,16.49
20531,-8.56,-3.70,3.95,-0.25,0.03,-0.30,-16.76,-36.00,16.49
20542,-8.50,-2.96,3.28,-0.37,0.17,-0.34,-16.76,-36.00,16.49
20553,-7.98,-4.84,3.94,-0.07,0.17,-0.34,-15.08,-37.71,16.87
20564,-7.98,-4.84,3.94,-0.07,0.17,-0.34,-15.08,-37.71,16.87
20575,-7.97,-3.81,4.08,-0.02,0.15,-0.14,-15.08,-37.71,16.87
20586,-7.97,-3.81,4.08,-0.02,0.15,-0.14,-15.08,-37.71,16.87
20597,-8.60,-4.27,3.96,-0.13,0.13,-0.13,-15.08,-37.71,16.87
20608,-8.60,-4.27,3.96,-0.13,0.13,-0.13,-15.08,-37.71,16.87
20619,-8.02,-5.08,3.04,-0.07,0.15,0.07,-15.08,-37.71,16.87
20630,-8.02,-5.08,3.04,-0.07,0.15,0.07,-15.08,-37.71,16.87
20641,-7.93,-4.15,4.03,0.19,0.05,0.34,-15.08,-37.71,16.87
20652,-7.93,-4.15,4.03,0.19,0.05,0.34,-15.08,-37.71,16.87
20663,-7.78,-4.51,4.46,0.19,0.07,0.37,-15.08,-37.71,16.87
20674,-7.86,-4.29,3.52,0.05,0.08,0.33,-16.42,-36.00,16.87
20685,-7.86,-4.29,3.52,0.05,0.08,0.33,-16.42,-36.00,16.87
20696,-7.97,-3.98,3.70,0.04,0.06,0.34,-16.42,-36.00,16.87
20707,-7.97,-3.98,3.70,0.04,0.06,0.34,-16.42,-36.00,16.87
20718,-7.78,-4.37,3.61,0.03,0.02,0.33,-16.42,-36.00,16.87
20729,-7.78,-4.37,3.61,0.03,0.02,0.33,-16.42,-36.00,16.87
20740,-7.69,-4.02,3.40,0.02,-0.05,0.40,-16.42,-36.00,16.87
20751,-7.69,-4.02,3.40,0.02,-0.05,0.40,-16.42,-36.00,16.87
20762,-7.85,-3.75,3.76,0.03,-0.12,0.40,-16.42,-36.00,16.87
20774,-7.84,-3.83,3.61,0.00,-0.15,0.31,-16.42,-36.00,16.87
20784,-7.84,-3.83,3.61,0.00,-0.15,0.31,-16.42,-36.00,16.87
20795,-8.10,-3.26,3.86,0.04,-0.15,0.23,-16.42,-36.00,16.87
20806,-8.10,-3.26,3.86,0.04,-0.15,0.23,-16.42,-36.00,16.87
20817,-7.86,-3.86,3.75,-0.01,-0.12,0.10,-16.92,-35.83,16.68
20828,-7.86,-3.86,3.75,-0.01,-0.12,0.10,-16.92,-35.83,16.68
20844,-7.97,-3.22,3.98,-0.04,-0.14,0.03,-16.92,-35.83,16.68
20850,-7.97,-3.22,3.98,-0.04,-0.14,0.03,-16.92,-35.83,16.68
20861,-8.22,-4.39,3.55,-0.09,-0.13,-0.10,-16.92,-35.83,16.68
20872,-8.22,-4.39,3.55,-0.09,-0.13,-0.10,-16.92,-35.83,16.68
20883,-8.22,-3.91,3.80,-0.02,-0.16,-0.06,-16.92,-35.83,16.68
20894,-8.59,-3.51,4.47,-0.10,-0.16,-0.13,-16.92,-35.83,16.68
20905,-8.59,-3.51,4.47,-0.10,-0.16,-0.13,-16.92,-35.83,16.68
20916,-8.22,-4.34,3.77,-0.18,-0.07,-0.21,-16.92,-35.83,16.68
20927,-8.22,-4.34,3.77,-0.18,-0.07,-0.21,-16.92,-35.83,16.68
20938,-7.89,-4.02,3.73,-0.22,-0.06,-0.15,-15.25,-35.83,17.44
20949,-7.89,-4.02,3.73,-0.22,-0.06,-0.15,-15.25,-35.83,17.44
20960,-8.55,-3.59,3.78,-0.23,-0.06,-0.13,-15.25,-35.83,17.44
20971,-8.55,-3.59,3.78,-0.23,-0.06,-0.13,-15.25,-35.83,17.44
20982,-8.31,-3.81,3.40,-0.22,0.02,-0.17,-15.25,-35.83,17.44
20993,-8.46,-3.47,3.26,-0.28,0.02,-0.24,-15.25,-35.83,17.44
21004,-8.46,-3.47,3.26,-0.28,0.02,-0.24,-15.25,-35.83,17.44
21015,-8.68,-2.91,3.65,-0.20,0.08,-0.30,-15.25,-35.83,17.44
21026,-8.68,-2.91,3.65,-0.20,0.08,-0.30,-15.25,-35.83,17.44
21037,-8.23,-4.58,3.35,-0.13,0.10,-0.33,-15.25,-35.83,17.44
21048,-8.23,-4.58,3.35,-0.13,0.10,-0.33,-15.25,-35.83,17.44
21059,-8.23,-3.89,3.85,0.06,0.04,-0.16,-16.59,-38.22,16.68
21071,-8.23,-3.89,3.85,0.06,0.04,-0.16,-16.59,-38.22,16.68
21081,-8.07,-4.04,3.99,0.10,0.06,-0.13,-16.59,-38.22,16.68
21092,-8.07,-4.04,3.99,0.10,0.06,-0.13,-16.59,-38.22,16.68
21103,-8.23,-4.39,3.71,0.08,0.12,-0.11,-16.59,-38.22,16.68
21114,-8.49,-4.19,3.52,0.09,0.16,0.00,-16.59,-38.22,16.68
21125,-8.49,-4.19,3.52,0.09,0.16,0.00,-16.59,-38.22,16.68
21136,-8.25,-4.40,3.71,0.20,0.18,0.14,-16.59,-38.22,16.68
21147,-8.25,-4.40,3.71,0.20,0.18,0.14,-16.59,-38.22,16.68
21158,-8.17,-3.84,3.84,0.31,0.22,0.24,-16.59,-38.22,16.68
21169,-8.17,-3.84,3.84,0.31,0.22,0.24,-16.59,-38.22,16.68
21180,-7.93,-4.16,4.20,0.37,0.21,0.29,-16.59,-38.22,16.68
21191,-7.93,-4.16,4.20,0.37,0.21,0.29,-16.59,-38.22,16.68
21202,-7.96,-3.37,3.51,0.19,0.17,0.27,-17.26,-35.83,15.92
21213,-7.96,-3.37,3.51,0.19,0.17,0.27,-17.26,-35.83,15.92
21224,-7.88,-4.82,3.30,0.16,0.08,0.24,-17.26,-35.83,15.92
21235,-7.87,-3.38,4.15,0.24,-0.04,0.43,-17.26,-35.83,15.92
21246,-7.87,-3.38,4.15,0.24,-0.04,0.43,-17.26,-35.83,15.92
21257,-7.89,-4.31,4.38,0.08,-0.10,0.29,-17.26,-35.83,15.92
21268,-7.89,-4.31,4.38,0.08,-0.10,0.29,-17.26,-35.83,15.92
21279,-8.07,-3.84,4.26,0.00,-0.09,0.29,-17.26,-35.83,15.92
21290,-8.07,-3.84,4.26,0.00,-0.09,0.29,-17.26,-35.83,15.92
21301,-8.05,-3.97,3.50,-0.04,-0.04,0.18,-17.26,-35.83,15.92
21312,-8.05,-3.97,3.50,-0.04,-0.04,0.18,-17.26,-35.83,15.92
21323,-8.50,-3.41,4.19,0.05,-0.08,0.12,-18.10,-36.00,15.73
21334,-7.83,-3.98,3.32,0.12,-0.03,-0.01,-18.10,-36.00,15.73
21345,-7.83,-3.98,3.32,0.12,-0.03,-0.01,-18.10,-36.00,15.73
21356,-8.05,-3.61,4.05,0.13,-0.16,-0.06,-18.10,-36.00,15.73
21367,-8.05,-3.61,4.05,0.13,-0.16,-0.06,-18.10,-36.00,15.73
21378,-8.39,-3.54,4.38,0.09,-0.19,-0.12,-18.10,-36.00,15.73
21389,-8.39,-3.54,4.38,0.09,-0.19,-0.12,-18.10,-36.00,15.73
21400,-8.02,-3.86,4.04,0.04,-0.17,-0.16,-18.10,-36.00,15.73
21411,-8.02,-3.86,4.04,0.04,-0.17,-0.16,-18.10,-36.00,15.73
21422,-8.04,-3.61,4.10,0.01,-0.15,-0.15,-18.10,-36.00,15.73
21433,-8.04,-3.61,4.10,0.01,-0.15,-0.15,-18.10,-36.00,15.73
21444,-7.77,-4.02,3.75,-0.01,-0.13,-0.16,-16.42,-35.66,17.25
21455,-8.42,-3.39,3.98,-0.06,-0.13,-0.14,-16.42,-35.66,17.25
21466,-8.42,-3.39,3.98,-0.06,-0.13,-0.14,-16.42,-35.66,17.25
21477,-8.77,-4.08,3.70,-0.16,-0.07,-0.20,-16.42,-35.66,17.25
21488,-8.77,-4.08,3.70,-0.16,-0.07,-0.20,-16.42,-35.66,17.25
21499,-7.93,-3.70,3.80,-0.16,-0.03,-0.19,-16.42,-35.66,17.25
21510,-7.93,-3.70,3.80,-0.16,-0.03,-0.19,-16.42,-35.66,17.25
21521,-8.95,-3.50,3.88,-0.21,0.02,-0.27,-16.42,-35.66,17.25
21532,-8.95,-3.50,3.88,-0.21,0.02,-0.27,-16.42,-35.66,17.25
21543,-8.61,-3.41,3.97,-0.26,0.09,-0.27,-16.42,-35.66,17.25
21554,-8.63,-3.76,3.70,-0.35,0.15,-0.29,-16.42,-35.66,17.25
21565,-8.63,-3.76,3.70,-0.35,0.15,-0.29,-16.42,-35.66,17.25
21576,-8.59,-3.17,3.91,-0.26,0.17,-0.23,-15.41,-36.34,18.01
21587,-8.59,-3.17,3.91,-0.26,0.17,-0.23,-15.41,-36.34,18.01
21598,-8.28,-4.53,3.88,-0.19,0.15,-0.26,-15.41,-36.34,18.01
21609,-8.28,-4.53,3.88,-0.19,0.15,-0.26,-15.41,-36.34,18.01
21620,-8.38,-4.74,3.43,-0.12,0.16,-0.11,-15.41,-36.34,18.01
21631,-8.38,-4.74,3.43,-0.12,0.16,-0.11,-15.41,-36.34,18.01
21642,-7.88,-4.83,3.67,0.11,0.16,0.14,-15.41,-36.34,18.01
21653,-7.88,-4.83,3.67,0.11,0.16,0.14,-15.41,-36.34,18.01
21664,-8.02,-4.48,4.16,0.19,0.11,0.30,-15.41,-36.34,18.01
21675,-8.42,-3.23,4.02,0.14,0.12,0.37,-15.41,-36.34,18.01
21686,-8.42,-3.23,4.02,0.14,0.12,0.37,-15.41,-36.34,18.01
21697,-8.22,-4.49,4.04,0.16,0.12,0.33,-16.09,-36.34,16.11
21708,-8.22,-4.49,4.04,0.16,0.12,0.33,-16.09,-36.34,16.11
21719,-8.11,-4.31,3.95,0.13,0.05,0.41,-16.09,-36.34,16.11
21730,-8.11,-4.31,3.95,0.13,0.05,0.41,-16.09,-36.34,16.11
21741,-8.37,-3.52,4.16,0.13,-0.06,0.48,-16.09,-36.34,16.11
21752,-8.37,-3.52,4.16,0.13,-0.06,0.48,-16.09,-36.34,16.11
21763,-7.86,-3.63,3.53,0.03,-0.09,0.44,-16.09,-36.34,16.11
21774,-7.99,-3.46,3.85,-0.03,-0.16,0.40,-16.09,-36.34,16.11
21785,-7.99,-3.46,3.85,-0.03,-0.16,0.40,-16.09,-36.34,16.11
21796,-8.04,-3.63,3.55,-0.11,-0.15,0.24,-16.09,-36.34,16.11
21807,-8.04,-3.63,3.55,-0.11,-0.15,0.24,-16.09,-36.34,16.11
21818,-8.37,-3.62,3.63,-0.05,-0.14,0.13,-17.26,-34.47,16.30
21829,-8.37,-3.62,3.63,-0.05,-0.14,0.13,-17.26,-34.47,16.30
21840,-8.14,-3.47,3.87,0.05,-0.18,0.05,-17.26,-34.47,16.30
21851,-8.14,-3.47,3.87,0.05,-0.18,0.05,-17.26,-34.47,16.30
21862,-8.03,-4.03,3.86,0.02,-0.18,-0.08,-17.26,-34.47,16.30
21873,-8.03,-4.03,3.86,0.02,-0.18,-0.08,-17.26,-34.47,16.30
21884,-7.85,-4.19,3.65,-0.03,-0.13,-0.10,-17.26,-34.47,16.30
21895,-7.97,-3.43,3.74,-0.06,-0.13,-0.06,-17.26,-34.47,16.30
21906,-7.97,-3.43,3.74,-0.06,-0.13,-0.06,-17.26,-34.47,16.30
21917,-8.32,-3.90,3.89,-0.15,-0.12,-0.16,-17.26,-34.47,16.30
21928,-8.32,-3.90,3.89,-0.15,-0.12,-0.16,-17.26,-34.47,16.30
21939,-7.93,-4.03,3.98,-0.09,-0.12,-0.17,-17.09,-35.66,17.25
21950,-7.93,-4.03,3.98,-0.09,-0.12,-0.17,-17.09,-35.66,17.25
21961,-7.81,-4.15,3.66,-0.09,-0.11,-0.19,-17.09,-35.66,17.25
21972,-7.81,-4.15,3.66,-0.09,-0.11,-0.19,-17.09,-35.66,17.25
21983,-8.53,-3.32,3.15,-0.05,-0.09,-0.18,-17.09,-35.66,17.25
21994,-8.77,-3.36,3.85,-0.06,-0.03,-0.25,-17.09,-35.66,17.25
22005,-8.77,-3.36,3.85,-0.06,-0.03,-0.25,-17.09,-35.66,17.25
22016,-8.57,-4.09,3.13,-0.24,0.06,-0.28,-17.09,-35.66,17.25
22027,-8.57,-4.09,3.13,-0.24,0.06,-0.28,-17.09,-35.66,17.25
22038,-8.60,-3.19,3.72,-0.10,0.06,-0.15,-17.09,-35.66,17.25
22049,-8.60,-3.19,3.72,-0.10,0.06,-0.15,-17.09,-35.66,17.25
22060,-8.61,-3.31,3.80,-0.08,0.12,-0.17,-17.09,-35.66,17.25
22071,-8.61,-3.31,3.80,-0.08,0.12,-0.17,-17.09,-35.66,17.25
22082,-8.61,-3.96,3.80,-0.19,0.16,-0.18,-16.92,-36.51,15.92
22093,-8.61,-3.96,3.80,-0.19,0.16,-0.18,-16.92,-36.51,15.92
22104,-8.17,-4.19,3.29,-0.12,0.22,-0.08,-16.92,-36.51,15.92
22115,-8.01,-4.21,3.99,0.03,0.18,0.05,-16.92,-36.51,15.92
22126,-8.01,-4.21,3.99,0.03,0.18,0.05,-16.92,-36.51,15.92
22142,-8.21,-4.18,3.87,0.09,0.16,0.11,-16.92,-36.51,15.92
22148,-8.21,-4.18,3.87,0.09,0.16,0.11,-16.92,-36.51,15.92
22159,-8.06,-4.06,4.23,0.23,0.15,0.19,-16.92,-36.51,15.92
22170,-8.06,-4.06,4.23,0.23,0.15,0.19,-16.92,-36.51,15.92
22181,-7.90,-4.30,3.85,0.18,0.15,0.25,-16.92,-36.51,15.92
22192,-7.90,-4.30,3.85,0.18,0.15,0.25,-16.92,-36.51,15.92
22203,-7.92,-4.18,3.82,0.13,0.06,0.28,-15.92,-35.15,15.54
22215,-8.30,-3.02,4.08,0.13,0.02,0.37,-15.92,-35.15,15.54
22225,-8.30,-3.02,4.08,0.13,0.02,0.37,-15.92,-35.15,15.54
22236,-8.14,-4.28,4.36,0.06,-0.00,0.31,-15.92,-35.15,15.54
22247,-8.14,-4.28,4.36,0.06,-0.00,0.31,-15.92,-35.15,15.54
22258,-8.28,-3.66,4.99,0.04,-0.07,0.36,-15.92,-35.15,15.54
22269,-8.28,-3.66,4.99,0.04,-0.07,0.36,-15.92,-35.15,15.54
22280,-7.93,-4.02,3.59,-0.11,-0.04,0.15,-15.92,-35.15,15.54
22291,-7.93,-4.02,3.59,-0.11,-0.04,0.15,-15.92,-35.15,15.54
22302,-8.00,-3.55,3.52,-0.05,-0.08,0.12,-15.92,-35.15,15.54
22313,-8.00,-3.55,3.52,-0.05,-0.08,0.12,-15.92,-35.15,15.54
22324,-8.12,-4.30,3.89,0.04,-0.14,0.12,-17.93,-34.81,15.92
22335,-8.04,-3.78,3.70,0.10,-0.14,0.18,-17.93,-34.81,15.92
22346,-8.04,-3.78,3.70,0.10,-0.14,0.18,-17.93,-34.81,15.92
22357,-8.24,-3.47,4.06,0.03,-0.18,0.13,-17.93,-34.81,15.92
22368,-8.24,-3.47,4.06,0.03,-0.18,0.13,-17.93,-34.81,15.92
22379,-7.93,-3.83,3.41,-0.09,-0.13,0.02,-17.93,-34.81,15.92
22390,-7.93,-3.83,3.41,-0.09,-0.13,0.02,-17.93,-34.81,15.92
22401,-7.43,-3.74,3.50,-0.06,-0.16,-0.03,-17.93,-34.81,15.92
22412,-7.43,-3.74,3.50,-0.06,-0.16,-0.03,-17.93,-34.81,15.92
22423,-8.03,-3.81,4.43,-0.10,-0.21,-0.09,-17.93,-34.81,15.92
22434,-8.03,-3.81,4.43,-0.10,-0.21,-0.09,-17.93,-34.81,15.92
22445,-7.69,-3.84,4.02,-0.24,-0.13,-0.16,-17.93,-34.81,15.92
22456,-8.23,-4.00,3.65,-0.32,-0.12,-0.17,-17.43,-35.32,18.01
22468,-8.23,-4.00,3.65,-0.32,-0.12,-0.17,-17.43,-35.32,18.01
22478,-8.66,-3.79,3.60,-0.26,-0.10,-0.16,-17.43,-35.32,18.01
22489,-8.66,-3.79,3.60,-0.26,-0.10,-0.16,-17.43,-35.32,18.01
22500,-8.17,-3.81,3.48,-0.21,-0.07,-0.17,-17.43,-35.32,18.01
22511,-8.17,-3.81,3.48,-0.21,-0.07,-0.17,-17.43,-35.32,18.01
22522,-8.23,-3.81,3.59,-0.23,-0.05,-0.17,-17.43,-35.32,18.01
22533,-8.23,-3.81,3.59,-0.23,-0.05,-0.17,-17.43,-35.32,18.01
22544,-8.43,-3.80,3.47,-0.21,0.03,-0.20,-17.43,-35.32,18.01
22560,-8.71,-2.82,3.48,-0.25,0.10,-0.27,-17.43,-35.32,18.01
22566,-8.71,-2.82,3.48,-0.25,0.10,-0.27,-17.43,-35.32,18.01
22577,-8.56,-4.07,3.40,-0.16,0.13,-0.31,-17.43,-35.32,16.11
22588,-8.56,-4.07,3.40,-0.16,0.13,-0.31,-17.43,-35.32,16.11
22599,-8.27,-3.83,3.77,-0.05,0.12,-0.21,-17.43,-35.32,16.11
22610,-8.27,-3.83,3.77,-0.05,0.12,-0.21,-17.43,-35.32,16.11
22621,-8.44,-4.40,4.45,0.02,0.10,-0.15,-17.43,-35.32,16.11
22632,-8.44,-4.40,4.45,0.02,0.10,-0.15,-17.43,-35.32,16.11
22643,-8.08,-4.63,3.23,0.01,0.15,0.00,-17.43,-35.32,16.11
22654,-8.08,-4.63,3.23,0.01,0.15,0.00,-17.43,-35.32,16.11
22665,-8.48,-3.88,4.66,0.20,0.10,0.22,-17.43,-35.32,16.11
22676,-7.77,-4.57,3.63,0.15,0.16,0.23,-17.43,-35.32,16.11
22687,-7.77,-4.57,3.63,0.15,0.16,0.23,-17.43,-35.32,16.11
22698,-8.20,-3.57,3.44,0.16,0.10,0.33,-15.58,-36.17,16.68
22709,-8.20,-3.57,3.44,0.16,0.10,0.33,-15.58,-36.17,16.68
22720,-7.90,-4.07,3.63,0.18,0.06,0.32,-15.58,-36.17,16.68
22731,-7.90,-4.07,3.63,0.18,0.06,0.32,-15.58,-36.17,16.68
22742,-7.75,-4.02,4.18,0.20,0.00,0.36,-15.58,-36.17,16.68
22753,-7.75,-4.02,4.18,0.20,0.00,0.36,-15.58,-36.17,16.68
22764,-8.04,-4.21,4.76,0.11,-0.10,0.35,-15.58,-36.17,16.68
22775,-8.28,-3.02,4.42,-0.02,-0.13,0.33,-15.58,-36.17,16.68
22786,-8.28,-3.02,4.42,-0.02,-0.13,0.33,-15.58,-36.17,16.68
22797,-8.21,-3.19,4.23,-0.00,-0.14,0.26,-15.58,-36.17,16.68
22808,-8.21,-3.19,4.23,-0.00,-0.14,0.26,-15.58,-36.17,16.68
22819,-8.14,-4.24,4.19,-0.04,-0.15,0.14,-15.58,-36.17,16.68
22830,-8.14,-4.24,4.19,-0.04,-0.15,0.14,-15.58,-36.17,16.68
22841,-8.23,-3.19,3.66,-0.02,-0.14,0.13,-17.76,-36.00,14.97
22852,-8.23,-3.19,3.66,-0.02,-0.14,0.13,-17.76,-36.00,14.97
22863,-7.88,-3.90,3.42,-0.04,-0.11,-0.01,-17.76,-36.00,14.97
22874,-7.88,-3.90,3.42,-0.04,-0.11,-0.01,-17.76,-36.00,14.97
22885,-8.40,-4.26,3.80,-0.08,-0.10,-0.05,-17.76,-36.00,14.97
22896,-7.64,-3.89,3.44,-0.03,-0.07,-0.03,-17.76,-36.00,14.97
22907,-7.64,-3.89,3.44,-0.03,-0.07,-0.03,-17.76,-36.00,14.97
22918,-7.86,-4.03,3.90,-0.12,-0.13,-0.10,-17.76,-36.00,14.97
