time,ax,ay,az,gx,gy,gz,mx,my,mz
401,-0.42,6.34,-8.16,0.08,0.06,0.00,-17.42,26.96,-25.37
411,-0.42,6.34,-8.16,0.08,0.06,0.00,-17.42,26.96,-25.37
423,-0.51,6.32,-8.10,-0.03,-0.02,-0.03,-17.42,26.96,-25.37
433,-0.57,6.40,-7.99,-0.03,-0.02,-0.03,-17.42,26.96,-25.37
444,-0.57,6.40,-7.99,-0.03,-0.02,-0.03,-17.42,26.96,-25.37
455,-0.44,6.32,-8.16,0.05,0.03,0.01,-17.77,25.87,-26.39
470,-0.44,6.32,-8.16,0.05,0.03,0.01,-17.77,25.87,-26.39
477,-0.57,6.42,-8.01,-0.05,-0.03,-0.03,-17.77,25.87,-26.39
488,-0.57,6.42,-8.01,-0.05,-0.03,-0.03,-17.77,25.87,-26.39
499,-0.48,6.34,-8.11,0.04,0.01,-0.00,-17.77,25.87,-26.39
510,-0.48,6.34,-8.11,0.04,0.01,-0.00,-17.77,25.87,-26.39
521,-0.54,6.38,-8.04,-0.01,-0.01,-0.02,-17.77,25.87,-26.39
532,-0.54,6.35,-8.07,0.01,-0.00,-0.01,-17.77,25.87,-26.39
543,-0.54,6.35,-8.07,0.01,-0.00,-0.01,-17.77,25.87,-26.39
554,-0.51,6.34,-8.09,0.01,0.00,-0.01,-17.77,25.87,-26.39
565,-0.51,6.34,-8.09,0.01,0.00,-0.01,-17.77,25.87,-26.39
576,-0.52,6.37,-8.04,-0.00,-0.01,-0.01,-17.77,25.51,-26.05
587,-0.52,6.37,-8.04,-0.00,-0.01,-0.01,-17.77,25.51,-26.05
598,-0.50,6.37,-8.10,0.01,0.00,-0.01,-17.77,25.51,-26.05
609,-0.50,6.37,-8.10,0.01,0.00,-0.01,-17.77,25.51,-26.05
620,-0.53,6.39,-8.07,-0.00,-0.00,-0.01,-17.77,25.51,-26.05
631,-0.53,6.39,-8.07,-0.00,-0.00,-0.01,-17.77,25.51,-26.05
642,-0.53,6.37,-8.08,0.01,0.00,-0.01,-17.77,25.51,-26.05
653,-0.53,6.36,-8.06,-0.00,-0.00,-0.01,-17.77,25.51,-26.05
664,-0.53,6.36,-8.06,-0.00,-0.00,-0.01,-17.77,25.51,-26.05
675,-0.52,6.37,-8.09,0.01,0.00,-0.01,-17.77,25.51,-26.05
686,-0.52,6.37,-8.09,0.01,0.00,-0.01,-17.77,25.51,-26.05
697,-0.52,6.36,-8.06,-0.00,-0.00,-0.01,-17.77,25.51,-26.05
708,-0.52,6.36,-8.06,-0.00,-0.00,-0.01,-17.77,25.51,-26.05
719,-0.51,6.38,-8.09,0.00,0.00,-0.01,-17.77,27.68,-25.71
730,-0.51,6.38,-8.09,0.00,0.00,-0.01,-17.77,27.68,-25.71
741,-0.53,6.37,-8.10,0.00,-0.00,-0.01,-17.77,27.68,-25.71
752,-0.54,6.34,-8.10,0.00,0.00,-0.01,-17.77,27.68,-25.71
763,-0.54,6.34,-8.10,0.00,0.00,-0.01,-17.77,27.68,-25.71
774,-0.52,6.36,-8.09,0.00,0.00,-0.01,-17.77,27.68,-25.71
785,-0.52,6.36,-8.09,0.00,0.00,-0.01,-17.77,27.68,-25.71
796,-0.51,6.39,-8.06,0.00,-0.00,-0.01,-17.77,27.68,-25.71
808,-0.51,6.39,-8.06,0.00,-0.00,-0.01,-17.77,27.68,-25.71
818,-0.53,6.37,-8.03,0.00,-0.00,-0.01,-17.77,27.68,-25.71
829,-0.53,6.37,-8.03,0.00,-0.00,-0.01,-17.77,27.68,-25.71
840,-0.55,6.34,-8.08,0.00,-0.00,-0.01,-16.89,26.77,-25.54
851,-0.55,6.34,-8.08,0.00,-0.00,-0.01,-16.89,26.77,-25.54
862,-0.51,6.34,-8.12,0.00,0.00,-0.01,-16.89,26.77,-25.54
873,-0.49,6.36,-8.07,-0.00,-0.00,-0.01,-16.89,26.77,-25.54
884,-0.49,6.36,-8.07,-0.00,-0.00,-0.01,-16.89,26.77,-25.54
895,-0.50,6.37,-8.08,0.00,-0.00,-0.01,-16.89,26.77,-25.54
906,-0.50,6.37,-8.08,0.00,-0.00,-0.01,-16.89,26.77,-25.54
917,-0.53,6.38,-8.06,0.00,0.00,-0.01,-16.89,26.77,-25.54
928,-0.53,6.38,-8.06,0.00,0.00,-0.01,-16.89,26.77,-25.54
939,-0.54,6.35,-8.09,0.00,0.00,-0.01,-16.89,26.77,-25.54
950,-0.54,6.35,-8.09,0.00,0.00,-0.01,-16.89,26.77,-25.54
961,-0.53,6.34,-8.11,0.00,0.00,-0.01,-16.54,26.05,-26.22
972,-0.53,6.34,-8.11,0.00,0.00,-0.01,-16.54,26.05,-26.22
983,-0.52,6.36,-8.09,0.00,-0.00,-0.01,-16.54,26.05,-26.22
994,-0.52,6.40,-8.09,-0.00,-0.00,-0.01,-16.54,26.05,-26.22
1005,-0.52,6.40,-8.09,-0.00,-0.00,-0.01,-16.54,26.05,-26.22
1016,-0.53,6.40,-8.06,-0.00,-0.00,-0.01,-16.54,26.05,-26.22
1027,-0.53,6.40,-8.06,-0.00,-0.00,-0.01,-16.54,26.05,-26.22
1038,-0.54,6.34,-8.09,0.00,-0.00,-0.01,-16.54,26.05,-26.22
1049,-0.54,6.34,-8.09,0.00,-0.00,-0.01,-16.54,26.05,-26.22
1060,-0.54,6.34,-8.09,0.00,-0.00,-0.01,-16.54,26.05,-26.22
1071,-0.54,6.34,-8.09,0.00,-0.00,-0.01,-16.54,26.05,-26.22
1082,-0.51,6.34,-8.10,-0.00,-0.00,-0.01,-16.54,26.05,-26.22
1093,-0.51,6.39,-8.05,-0.00,-0.00,-0.01,-17.42,26.23,-26.73
1104,-0.51,6.39,-8.05,-0.00,-0.00,-0.01,-17.42,26.23,-26.73
1115,-0.53,6.38,-8.07,0.00,-0.00,-0.01,-17.42,26.23,-26.73
1126,-0.53,6.38,-8.07,0.00,-0.00,-0.01,-17.42,26.23,-26.73
1137,-0.54,6.35,-8.09,0.00,-0.00,-0.01,-17.42,26.23,-26.73
1148,-0.54,6.35,-8.09,0.00,-0.00,-0.01,-17.42,26.23,-26.73
1159,-0.52,6.33,-8.10,0.00,0.00,-0.01,-17.42,26.23,-26.73
1170,-0.52,6.33,-8.10,0.00,0.00,-0.01,-17.42,26.23,-26.73
1181,-0.51,6.35,-8.05,0.00,-0.00,-0.01,-17.42,26.23,-26.73
1192,-0.51,6.35,-8.05,0.00,-0.00,-0.01,-17.42,26.23,-26.73
1203,-0.52,6.37,-8.04,-0.00,-0.00,-0.01,-17.42,26.23,-26.73
1214,-0.52,6.38,-8.06,0.00,0.00,-0.01,-17.07,25.51,-26.05
1225,-0.52,6.38,-8.06,0.00,0.00,-0.01,-17.07,25.51,-26.05
1236,-0.54,6.35,-8.10,0.00,0.00,-0.01,-17.07,25.51,-26.05
1247,-0.54,6.35,-8.10,0.00,0.00,-0.01,-17.07,25.51,-26.05
1258,-0.53,6.33,-8.11,0.00,-0.00,-0.01,-17.07,25.51,-26.05
1269,-0.53,6.33,-8.11,0.00,-0.00,-0.01,-17.07,25.51,-26.05
1280,-0.51,6.36,-8.09,0.00,-0.00,-0.01,-17.07,25.51,-26.05
1291,-0.51,6.36,-8.09,0.00,-0.00,-0.01,-17.07,25.51,-26.05
1302,-0.53,6.39,-8.06,-0.00,-0.00,-0.01,-17.07,25.51,-26.05
1313,-0.55,6.38,-8.06,0.00,-0.00,-0.01,-17.07,25.51,-26.05
1324,-0.55,6.38,-8.06,0.00,-0.00,-0.01,-17.07,25.51,-26.05
1335,-0.53,6.34,-8.10,0.00,-0.00,-0.01,-16.89,25.33,-26.56
1346,-0.53,6.34,-8.10,0.00,-0.00,-0.01,-16.89,25.33,-26.56
1357,-0.51,6.34,-8.10,0.00,-0.00,-0.01,-16.89,25.33,-26.56
1368,-0.51,6.34,-8.10,0.00,-0.00,-0.01,-16.89,25.33,-26.56
1379,-0.51,6.36,-8.07,-0.00,-0.00,-0.01,-16.89,25.33,-26.56
1390,-0.51,6.36,-8.07,-0.00,-0.00,-0.01,-16.89,25.33,-26.56
1401,-0.51,6.40,-8.04,-0.00,-0.00,-0.01,-16.89,25.33,-26.56
1412,-0.51,6.40,-8.04,-0.00,-0.00,-0.01,-16.89,25.33,-26.56
1423,-0.54,6.36,-8.08,0.00,-0.00,-0.01,-16.89,25.33,-26.56
1434,-0.53,6.34,-8.09,0.00,0.00,-0.01,-16.89,25.33,-26.56
1445,-0.53,6.34,-8.09,0.00,0.00,-0.01,-16.89,25.33,-26.56
1456,-0.52,6.33,-8.07,0.00,0.00,-0.01,-16.89,25.33,-26.56
1467,-0.52,6.33,-8.07,0.00,0.00,-0.01,-16.89,25.33,-26.56
1478,-0.51,6.37,-8.08,0.00,-0.00,-0.01,-16.72,25.87,-25.37
1489,-0.51,6.37,-8.08,0.00,-0.00,-0.01,-16.72,25.87,-25.37
1500,-0.52,6.39,-8.06,0.00,-0.00,-0.01,-16.72,25.87,-25.37
1511,-0.52,6.39,-8.06,0.00,-0.00,-0.01,-16.72,25.87,-25.37
1522,-0.54,6.37,-8.07,0.00,0.00,-0.01,-16.72,25.87,-25.37
1534,-0.52,6.33,-8.08,0.00,-0.00,-0.01,-16.72,25.87,-25.37
1544,-0.52,6.33,-8.08,0.00,-0.00,-0.01,-16.72,25.87,-25.37
1555,-0.52,6.34,-8.06,0.00,-0.00,-0.01,-16.72,25.87,-25.37
1566,-0.52,6.34,-8.06,0.00,-0.00,-0.01,-16.72,25.87,-25.37
1577,-0.53,6.38,-8.05,0.00,-0.00,-0.01,-16.72,25.87,-25.37
1588,-0.53,6.38,-8.05,0.00,-0.00,-0.01,-16.72,25.87,-25.37
1599,-0.52,6.38,-8.08,0.00,-0.00,-0.01,-17.59,25.69,-26.90
1610,-0.52,6.38,-8.08,0.00,-0.00,-0.01,-17.59,25.69,-26.90
1621,-0.53,6.36,-8.10,0.00,0.00,-0.01,-17.59,25.69,-26.90
1632,-0.53,6.36,-8.10,0.00,0.00,-0.01,-17.59,25.69,-26.90
1643,-0.52,6.34,-8.10,0.00,0.00,-0.01,-17.59,25.69,-26.90
1654,-0.53,6.36,-8.08,0.00,-0.00,-0.01,-17.59,25.69,-26.90
1665,-0.53,6.36,-8.08,0.00,-0.00,-0.01,-17.59,25.69,-26.90
1676,-0.52,6.38,-8.05,-0.00,-0.00,-0.01,-17.59,25.69,-26.90
1687,-0.52,6.38,-8.05,-0.00,-0.00,-0.01,-17.59,25.69,-26.90
1698,-0.53,6.38,-8.07,-0.00,-0.00,-0.01,-17.59,25.69,-26.90
1709,-0.53,6.38,-8.07,-0.00,-0.00,-0.01,-17.59,25.69,-26.90
1720,-0.55,6.36,-8.08,0.00,0.00,-0.01,-17.07,26.59,-25.03
1731,-0.55,6.36,-8.08,0.00,0.00,-0.01,-17.07,26.59,-25.03
1742,-0.53,6.34,-8.11,0.00,0.00,-0.01,-17.07,26.59,-25.03
1753,-0.54,6.35,-8.09,0.00,0.00,-0.01,-17.07,26.59,-25.03
1764,-0.54,6.35,-8.09,0.00,0.00,-0.01,-17.07,26.59,-25.03
1775,-0.52,6.36,-8.08,-0.00,-0.00,-0.01,-17.07,26.59,-25.03
1786,-0.52,6.36,-8.08,-0.00,-0.00,-0.01,-17.07,26.59,-25.03
1797,-0.54,6.39,-8.07,0.00,-0.00,-0.01,-17.07,26.59,-25.03
1808,-0.54,6.39,-8.07,0.00,-0.00,-0.01,-17.07,26.59,-25.03
1819,-0.54,6.37,-8.09,0.00,0.00,-0.01,-17.07,26.59,-25.03
1830,-0.54,6.37,-8.09,0.00,0.00,-0.01,-17.07,26.59,-25.03
1841,-0.52,6.35,-8.10,0.00,0.00,-0.01,-17.07,26.59,-25.03
1852,-0.52,6.35,-8.10,0.00,0.00,-0.01,-17.07,26.59,-25.03
1863,-0.54,6.35,-8.10,0.00,-0.00,-0.01,-17.07,26.59,-25.03
1874,-0.53,6.38,-8.07,-0.00,-0.00,-0.01,-17.07,26.59,-25.03
1885,-0.53,6.38,-8.07,-0.00,-0.00,-0.01,-17.07,26.59,-25.03
1896,-0.54,6.37,-8.06,0.00,0.00,-0.01,-17.07,26.59,-25.03
1907,-0.54,6.37,-8.06,0.00,0.00,-0.01,-17.07,26.59,-25.03
1918,-0.52,6.36,-8.09,0.00,0.00,-0.01,-17.07,26.59,-25.03
1929,-0.52,6.36,-8.09,0.00,0.00,-0.01,-17.07,26.59,-25.03
1941,-0.53,6.33,-8.10,0.00,-0.00,-0.01,-17.07,26.59,-25.03
1951,-0.53,6.33,-8.10,0.00,-0.00,-0.01,-17.07,26.59,-25.03
1962,-0.52,6.35,-8.05,0.00,-0.00,-0.01,-17.07,26.59,-25.03
1973,-0.52,6.35,-8.05,0.00,-0.00,-0.01,-17.07,26.59,-25.03
1984,-0.52,6.37,-8.07,-0.00,-0.00,-0.01,-17.07,26.96,-26.05
1995,-0.53,6.37,-8.07,0.00,-0.00,-0.01,-17.07,26.96,-26.05
2006,-0.53,6.37,-8.07,0.00,-0.00,-0.01,-17.07,26.96,-26.05
2017,-0.53,6.35,-8.09,0.00,-0.00,-0.01,-17.07,26.96,-26.05
2028,-0.53,6.35,-8.09,0.00,-0.00,-0.01,-17.07,26.96,-26.05
2039,-0.52,6.35,-8.10,0.00,0.00,-0.01,-17.07,26.96,-26.05
2050,-0.52,6.35,-8.10,0.00,0.00,-0.01,-17.07,26.96,-26.05
2061,-0.53,6.36,-8.07,0.00,0.00,-0.01,-17.07,26.96,-26.05
2072,-0.53,6.36,-8.07,0.00,0.00,-0.01,-17.07,26.96,-26.05
2083,-0.54,6.37,-8.04,-0.00,0.00,-0.01,-17.07,26.96,-26.05
2094,-0.52,6.36,-8.10,0.00,-0.00,-0.01,-17.07,25.87,-25.37
2105,-0.52,6.36,-8.10,0.00,-0.00,-0.01,-17.07,25.87,-25.37
2116,-0.52,6.34,-8.09,0.00,0.00,-0.01,-17.07,25.87,-25.37
2127,-0.52,6.34,-8.09,0.00,0.00,-0.01,-17.07,25.87,-25.37
2138,-0.52,6.34,-8.08,0.00,0.00,-0.01,-17.07,25.87,-25.37
2149,-0.52,6.34,-8.08,0.00,0.00,-0.01,-17.07,25.87,-25.37
2160,-0.53,6.35,-8.07,0.00,-0.00,-0.01,-17.07,25.87,-25.37
2171,-0.53,6.35,-8.07,0.00,-0.00,-0.01,-17.07,25.87,-25.37
2182,-0.54,6.39,-8.04,-0.00,-0.00,-0.01,-17.07,25.87,-25.37
2193,-0.54,6.39,-8.04,-0.00,-0.00,-0.01,-17.07,25.87,-25.37
2204,-0.54,6.37,-8.05,0.00,0.00,-0.01,-17.07,25.87,-25.37
2215,-0.54,6.35,-8.09,0.00,0.00,-0.01,-17.24,27.50,-25.20
2226,-0.54,6.35,-8.09,0.00,0.00,-0.01,-17.24,27.50,-25.20
2237,-0.53,6.35,-8.12,0.00,0.00,-0.01,-17.24,27.50,-25.20
2248,-0.53,6.35,-8.12,0.00,0.00,-0.01,-17.24,27.50,-25.20
2259,-0.53,6.35,-8.07,0.00,-0.00,-0.01,-17.24,27.50,-25.20
2270,-0.53,6.35,-8.07,0.00,-0.00,-0.01,-17.24,27.50,-25.20
2281,-0.54,6.38,-8.08,0.00,0.00,-0.01,-17.24,27.50,-25.20
2292,-0.54,6.38,-8.08,0.00,0.00,-0.01,-17.24,27.50,-25.20
2303,-0.54,6.36,-8.07,0.00,0.00,-0.01,-17.24,27.50,-25.20
2314,-0.52,6.36,-8.10,0.00,0.00,-0.01,-17.24,27.50,-25.20
2325,-0.52,6.36,-8.10,0.00,0.00,-0.01,-17.24,27.50,-25.20
2336,-0.53,6.35,-8.10,0.00,0.00,-0.01,-17.24,27.50,-25.20
2347,-0.53,6.35,-8.10,0.00,0.00,-0.01,-17.24,27.50,-25.20
2358,-0.52,6.36,-8.10,0.00,0.00,-0.01,-17.07,25.87,-25.37
2369,-0.52,6.36,-8.10,0.00,0.00,-0.01,-17.07,25.87,-25.37
2380,-0.55,6.37,-8.07,0.00,0.00,-0.01,-17.07,25.87,-25.37
2391,-0.55,6.37,-8.07,0.00,0.00,-0.01,-17.07,25.87,-25.37
2402,-0.53,6.37,-8.05,0.00,0.00,-0.01,-17.07,25.87,-25.37
2413,-0.53,6.37,-8.05,0.00,0.00,-0.01,-17.07,25.87,-25.37
2424,-0.52,6.36,-8.08,0.00,0.00,-0.01,-17.07,25.87,-25.37
2435,-0.52,6.35,-8.09,0.00,0.00,-0.01,-17.07,25.87,-25.37
2446,-0.52,6.35,-8.09,0.00,0.00,-0.01,-17.07,25.87,-25.37
2457,-0.52,6.37,-8.06,-0.00,0.00,-0.01,-17.07,25.87,-25.37
2468,-0.52,6.37,-8.06,-0.00,0.00,-0.01,-17.07,25.87,-25.37
2479,-0.51,6.38,-8.10,0.00,-0.00,-0.01,-17.94,26.05,-26.22
2490,-0.51,6.38,-8.10,0.00,-0.00,-0.01,-17.94,26.05,-26.22
2506,-0.52,6.36,-8.04,0.00,0.00,-0.01,-17.94,26.05,-26.22
2512,-0.52,6.36,-8.04,0.00,0.00,-0.01,-17.94,26.05,-26.22
2523,-0.53,6.35,-8.10,0.00,0.00,-0.01,-17.94,26.05,-26.22
2534,-0.53,6.35,-8.09,0.00,-0.00,-0.01,-17.94,26.05,-26.22
2545,-0.53,6.35,-8.09,0.00,-0.00,-0.01,-17.94,26.05,-26.22
2556,-0.53,6.37,-8.09,-0.00,-0.00,-0.01,-17.94,26.05,-26.22
2567,-0.53,6.37,-8.09,-0.00,-0.00,-0.01,-17.94,26.05,-26.22
2578,-0.53,6.38,-8.07,-0.00,-0.00,-0.01,-17.94,26.05,-26.22
2589,-0.53,6.38,-8.07,-0.00,-0.00,-0.01,-17.94,26.05,-26.22
2600,-0.52,6.37,-8.08,0.00,0.00,-0.01,-17.24,26.41,-26.22
2611,-0.52,6.37,-8.08,0.00,0.00,-0.01,-17.24,26.41,-26.22
2622,-0.53,6.35,-8.10,0.00,-0.00,-0.01,-17.24,26.41,-26.22
2633,-0.53,6.35,-8.10,0.00,-0.00,-0.01,-17.24,26.41,-26.22
2644,-0.54,6.34,-8.09,0.00,0.00,-0.01,-17.24,26.41,-26.22
2655,-0.53,6.38,-8.08,-0.00,-0.00,-0.01,-17.24,26.41,-26.22
2666,-0.53,6.38,-8.08,-0.00,-0.00,-0.01,-17.24,26.41,-26.22
2677,-0.53,6.38,-8.06,0.00,-0.00,-0.01,-17.24,26.41,-26.22
2688,-0.53,6.38,-8.06,0.00,-0.00,-0.01,-17.24,26.41,-26.22
2699,-0.52,6.37,-8.07,0.00,0.00,-0.01,-17.24,26.41,-26.22
2710,-0.52,6.37,-8.07,0.00,0.00,-0.01,-17.24,26.41,-26.22
2721,-0.54,6.35,-8.08,0.00,0.00,-0.01,-17.24,26.41,-26.22
2732,-0.54,6.35,-8.08,0.00,0.00,-0.01,-17.24,26.41,-26.22
2743,-0.52,6.35,-8.09,-0.00,-0.00,-0.01,-17.07,26.23,-25.71
2754,-0.53,6.36,-8.06,-0.00,-0.00,-0.01,-17.07,26.23,-25.71
2765,-0.53,6.36,-8.06,-0.00,-0.00,-0.01,-17.07,26.23,-25.71
2776,-0.51,6.36,-8.08,0.00,0.00,-0.01,-17.07,26.23,-25.71
2787,-0.51,6.36,-8.08,0.00,0.00,-0.01,-17.07,26.23,-25.71
2798,-0.53,6.36,-8.08,0.00,-0.00,-0.01,-17.07,26.23,-25.71
2809,-0.53,6.36,-8.08,0.00,-0.00,-0.01,-17.07,26.23,-25.71
2820,-0.54,6.34,-8.09,0.00,-0.00,-0.01,-17.07,26.23,-25.71
2831,-0.54,6.34,-8.09,0.00,-0.00,-0.01,-17.07,26.23,-25.71
2842,-0.53,6.35,-8.08,0.00,0.00,-0.01,-17.07,26.23,-25.71
2853,-0.53,6.35,-8.08,0.00,0.00,-0.01,-17.07,26.23,-25.71
2864,-0.53,6.37,-8.10,0.00,0.00,-0.01,-17.77,25.87,-25.71
2875,-0.53,6.39,-8.07,0.00,0.00,-0.01,-17.77,25.87,-25.71
2886,-0.53,6.39,-8.07,0.00,0.00,-0.01,-17.77,25.87,-25.71
2897,-0.54,6.35,-8.05,0.00,0.00,-0.01,-17.77,25.87,-25.71
2908,-0.54,6.35,-8.05,0.00,0.00,-0.01,-17.77,25.87,-25.71
2919,-0.54,6.34,-8.09,0.00,0.00,-0.01,-17.77,25.87,-25.71
2930,-0.54,6.34,-8.09,0.00,0.00,-0.01,-17.77,25.87,-25.71
2941,-0.53,6.36,-8.05,0.00,-0.00,-0.01,-17.77,25.87,-25.71
2953,-0.53,6.36,-8.05,0.00,-0.00,-0.01,-17.77,25.87,-25.71
2963,-0.52,6.36,-8.08,0.00,-0.00,-0.01,-17.77,25.87,-25.71
2974,-0.52,6.37,-8.08,-0.00,0.00,-0.01,-17.77,25.87,-25.71
2985,-0.52,6.37,-8.08,-0.00,0.00,-0.01,-17.24,25.33,-25.54
2996,-0.53,6.36,-8.08,0.00,-0.00,-0.01,-17.24,25.33,-25.54
3007,-0.53,6.36,-8.08,0.00,-0.00,-0.01,-17.24,25.33,-25.54
3018,-0.54,6.35,-8.10,0.00,-0.00,-0.01,-17.24,25.33,-25.54
3029,-0.54,6.35,-8.10,0.00,-0.00,-0.01,-17.24,25.33,-25.54
3040,-0.53,6.37,-8.09,-0.00,0.00,-0.01,-17.24,25.33,-25.54
3051,-0.53,6.37,-8.09,-0.00,0.00,-0.01,-17.24,25.33,-25.54
3062,-0.53,6.36,-8.06,0.00,0.00,-0.01,-17.24,25.33,-25.54
3073,-0.53,6.36,-8.06,0.00,0.00,-0.01,-17.24,25.33,-25.54
3084,-0.52,6.36,-8.06,0.00,0.00,-0.01,-17.24,25.33,-25.54
3095,-0.52,6.35,-8.07,0.00,0.00,-0.01,-17.24,25.33,-25.54
3106,-0.52,6.35,-8.07,0.00,0.00,-0.01,-17.24,25.33,-25.54
3117,-0.51,6.34,-8.11,0.00,0.00,-0.01,-17.59,27.14,-26.90
3128,-0.51,6.34,-8.11,0.00,0.00,-0.01,-17.59,27.14,-26.90
3139,-0.53,6.36,-8.07,-0.00,0.00,-0.01,-17.59,27.14,-26.90
3150,-0.53,6.36,-8.07,-0.00,0.00,-0.01,-17.59,27.14,-26.90
3161,-0.54,6.37,-8.08,0.00,-0.00,-0.01,-17.59,27.14,-26.90
3172,-0.54,6.37,-8.08,0.00,-0.00,-0.01,-17.59,27.14,-26.90
3183,-0.52,6.37,-8.05,-0.00,-0.00,-0.01,-17.59,27.14,-26.90
3194,-0.52,6.37,-8.05,-0.00,-0.00,-0.01,-17.59,27.14,-26.90
3205,-0.52,6.35,-8.07,0.00,-0.00,-0.01,-17.59,27.14,-26.90
3216,-0.52,6.35,-8.08,0.00,0.00,-0.01,-17.59,27.14,-26.90
3227,-0.52,6.35,-8.08,0.00,0.00,-0.01,-17.59,27.14,-26.90
3238,-0.53,6.36,-8.10,0.00,-0.00,-0.01,-18.47,25.87,-25.37
3249,-0.53,6.36,-8.10,0.00,-0.00,-0.01,-18.47,25.87,-25.37
3260,-0.53,6.37,-8.04,0.00,-0.00,-0.01,-18.47,25.87,-25.37
3271,-0.53,6.37,-8.04,0.00,-0.00,-0.01,-18.47,25.87,-25.37
3282,-0.52,6.37,-8.07,0.00,-0.00,-0.01,-18.47,25.87,-25.37
3293,-0.52,6.37,-8.07,0.00,-0.00,-0.01,-18.47,25.87,-25.37
3304,-0.52,6.35,-8.06,-0.00,0.00,-0.01,-18.47,25.87,-25.37
3315,-0.53,6.34,-8.10,0.00,0.00,-0.01,-18.47,25.87,-25.37
3326,-0.53,6.34,-8.10,0.00,0.00,-0.01,-18.47,25.87,-25.37
3337,-0.52,6.35,-8.07,-0.00,0.00,-0.01,-18.47,25.87,-25.37
3348,-0.52,6.35,-8.07,-0.00,0.00,-0.01,-18.47,25.87,-25.37
3359,-0.52,6.37,-8.07,0.00,-0.00,-0.01,-17.42,25.87,-26.39
3370,-0.52,6.37,-8.07,0.00,-0.00,-0.01,-17.42,25.87,-26.39
3381,-0.53,6.36,-8.07,0.00,0.00,-0.01,-17.42,25.87,-26.39
3392,-0.53,6.36,-8.07,0.00,0.00,-0.01,-17.42,25.87,-26.39
3403,-0.54,6.35,-8.07,0.00,-0.00,-0.01,-17.42,25.87,-26.39
3414,-0.54,6.35,-8.07,0.00,-0.00,-0.01,-17.42,25.87,-26.39
3426,-0.54,6.36,-8.07,0.00,0.00,-0.01,-17.42,25.87,-26.39
3436,-0.52,6.37,-8.08,0.00,-0.00,-0.01,-17.42,25.87,-26.39
3447,-0.52,6.37,-8.08,0.00,-0.00,-0.01,-17.42,25.87,-26.39
3458,-0.51,6.36,-8.07,0.00,-0.00,-0.01,-17.42,25.87,-26.39
3469,-0.51,6.36,-8.07,0.00,-0.00,-0.01,-17.42,25.87,-26.39
3480,-0.53,6.37,-8.08,0.00,0.00,-0.01,-17.24,26.77,-26.56
3491,-0.53,6.37,-8.08,0.00,0.00,-0.01,-17.24,26.77,-26.56
3502,-0.54,6.36,-8.09,0.00,0.00,-0.01,-17.24,26.77,-26.56
3513,-0.54,6.36,-8.09,0.00,0.00,-0.01,-17.24,26.77,-26.56
3524,-0.55,6.35,-8.09,0.00,0.00,-0.01,-17.24,26.77,-26.56
3535,-0.52,6.37,-8.07,0.00,0.00,-0.01,-17.24,26.77,-26.56
3546,-0.52,6.37,-8.07,0.00,0.00,-0.01,-17.24,26.77,-26.56
3557,-0.52,6.36,-8.08,0.00,0.00,-0.01,-17.24,26.77,-26.56
3568,-0.52,6.36,-8.08,0.00,0.00,-0.01,-17.24,26.77,-26.56
3579,-0.52,6.36,-8.10,0.00,-0.00,-0.01,-17.24,26.77,-26.56
3590,-0.52,6.36,-8.10,0.00,-0.00,-0.01,-17.24,26.77,-26.56
3601,-0.53,6.36,-8.09,0.00,0.00,-0.01,-17.24,26.77,-26.56
3612,-0.53,6.36,-8.09,0.00,0.00,-0.01,-17.24,26.77,-26.56
3623,-0.54,6.34,-8.10,0.00,0.00,-0.01,-16.89,26.05,-26.22
3639,-0.54,6.34,-8.10,0.00,0.00,-0.01,-16.89,26.05,-26.22
3645,-0.52,6.35,-8.10,-0.00,-0.00,-0.01,-16.89,26.05,-26.22
3656,-0.52,6.38,-8.06,0.00,0.00,-0.01,-16.89,26.05,-26.22
3667,-0.52,6.38,-8.06,0.00,0.00,-0.01,-16.89,26.05,-26.22
3678,-0.52,6.36,-8.07,0.00,0.00,-0.01,-16.89,26.05,-26.22
3689,-0.52,6.36,-8.07,0.00,0.00,-0.01,-16.89,26.05,-26.22
3700,-0.54,6.34,-8.07,0.00,0.00,-0.01,-16.89,26.05,-26.22
3711,-0.54,6.34,-8.07,0.00,0.00,-0.01,-16.89,26.05,-26.22
3722,-0.53,6.33,-8.08,0.00,0.00,-0.01,-16.89,26.05,-26.22
3733,-0.53,6.33,-8.08,0.00,0.00,-0.01,-16.89,26.05,-26.22
3744,-0.53,6.35,-8.09,0.00,-0.00,-0.01,-16.72,26.59,-26.05
3755,-0.54,6.35,-8.09,0.00,0.00,-0.01,-16.72,26.59,-26.05
3766,-0.54,6.35,-8.09,0.00,0.00,-0.01,-16.72,26.59,-26.05
3777,-0.54,6.35,-8.08,0.00,0.00,-0.01,-16.72,26.59,-26.05
3788,-0.54,6.35,-8.08,0.00,0.00,-0.01,-16.72,26.59,-26.05
3799,-0.54,6.35,-8.08,0.00,0.00,-0.01,-16.72,26.59,-26.05
3810,-0.54,6.35,-8.08,0.00,0.00,-0.01,-16.72,26.59,-26.05
3821,-0.53,6.37,-8.09,0.00,0.00,-0.01,-16.72,26.59,-26.05
3832,-0.53,6.37,-8.09,0.00,0.00,-0.01,-16.72,26.59,-26.05
3843,-0.54,6.37,-8.08,0.00,0.00,-0.01,-16.72,26.59,-26.05
3854,-0.54,6.37,-8.08,0.00,0.00,-0.01,-16.72,26.59,-26.05
3865,-0.53,6.36,-8.09,-0.00,0.00,-0.01,-16.72,26.59,-26.05
3876,-0.53,6.35,-8.10,0.00,0.00,-0.01,-16.72,26.59,-26.05
3887,-0.53,6.35,-8.10,0.00,0.00,-0.01,-16.72,26.59,-26.05
3899,-0.54,6.34,-8.08,0.00,-0.00,-0.01,-16.72,26.59,-26.05
3909,-0.54,6.34,-8.08,0.00,-0.00,-0.01,-16.72,26.59,-26.05
3920,-0.52,6.36,-8.08,0.00,0.00,-0.01,-16.72,26.59,-26.05
3931,-0.52,6.36,-8.08,0.00,0.00,-0.01,-16.72,26.59,-26.05
3942,-0.52,6.35,-8.08,0.00,0.00,-0.01,-16.72,26.59,-26.05
3953,-0.52,6.35,-8.08,0.00,0.00,-0.01,-16.72,26.59,-26.05
3964,-0.52,6.35,-8.10,0.00,0.00,-0.01,-16.72,26.59,-26.05
3975,-0.53,6.36,-8.07,0.00,0.00,-0.01,-16.72,26.59,-26.05
3986,-0.53,6.36,-8.07,0.00,0.00,-0.01,-16.72,26.59,-26.05
3997,-0.53,6.36,-8.10,0.00,0.00,-0.01,-18.12,25.14,-24.69
4008,-0.53,6.36,-8.10,0.00,0.00,-0.01,-18.12,25.14,-24.69
4019,-0.54,6.36,-8.08,0.00,0.00,-0.01,-18.12,25.14,-24.69
4030,-0.54,6.36,-8.08,0.00,0.00,-0.01,-18.12,25.14,-24.69
4041,-0.54,6.36,-8.06,0.00,0.00,-0.01,-18.12,25.14,-24.69
4052,-0.54,6.36,-8.06,0.00,0.00,-0.01,-18.12,25.14,-24.69
4063,-0.52,6.35,-8.05,0.00,0.00,-0.01,-18.12,25.14,-24.69
4074,-0.52,6.35,-8.05,0.00,0.00,-0.01,-18.12,25.14,-24.69
4085,-0.52,6.36,-8.07,0.00,0.00,-0.01,-18.12,25.14,-24.69
4096,-0.54,6.35,-8.09,0.00,0.00,-0.01,-18.12,25.14,-24.69
4107,-0.54,6.35,-8.09,0.00,0.00,-0.01,-18.12,25.14,-24.69
4118,-0.52,6.36,-8.08,0.00,-0.00,-0.01,-16.54,25.33,-25.20
4129,-0.52,6.36,-8.08,0.00,-0.00,-0.01,-16.54,25.33,-25.20
4140,-0.52,6.37,-8.09,0.00,-0.00,-0.01,-16.54,25.33,-25.20
4151,-0.52,6.37,-8.09,0.00,-0.00,-0.01,-16.54,25.33,-25.20
4162,-0.52,6.37,-8.08,0.00,0.00,-0.01,-16.54,25.33,-25.20
4173,-0.52,6.37,-8.08,0.00,0.00,-0.01,-16.54,25.33,-25.20
4184,-0.55,6.35,-8.11,0.00,0.00,-0.01,-16.54,25.33,-25.20
4195,-0.55,6.35,-8.11,0.00,0.00,-0.01,-16.54,25.33,-25.20
4206,-0.53,6.36,-8.10,0.00,0.00,-0.01,-16.54,25.33,-25.20
4217,-0.53,6.35,-8.10,0.00,0.00,-0.01,-16.54,25.33,-25.20
4228,-0.53,6.35,-8.10,0.00,0.00,-0.01,-16.54,25.33,-25.20
4239,-0.54,6.36,-8.10,0.00,-0.00,-0.01,-17.42,25.51,-26.73
4250,-0.54,6.36,-8.10,0.00,-0.00,-0.01,-17.42,25.51,-26.73
4261,-0.51,6.37,-8.05,0.00,0.00,-0.01,-17.42,25.51,-26.73
4272,-0.51,6.37,-8.05,0.00,0.00,-0.01,-17.42,25.51,-26.73
4283,-0.55,6.35,-8.04,0.00,0.00,-0.01,-17.42,25.51,-26.73
4294,-0.55,6.35,-8.04,0.00,0.00,-0.01,-17.42,25.51,-26.73
4305,-0.54,6.36,-8.07,0.00,0.00,-0.01,-17.42,25.51,-26.73
4316,-0.54,6.36,-8.08,0.00,0.00,-0.01,-17.42,25.51,-26.73
4327,-0.54,6.36,-8.08,0.00,0.00,-0.01,-17.42,25.51,-26.73
4338,-0.53,6.37,-8.08,-0.00,0.00,-0.01,-17.42,25.51,-26.73
4349,-0.53,6.37,-8.08,-0.00,0.00,-0.01,-17.42,25.51,-26.73
4360,-0.53,6.37,-8.08,0.00,0.00,-0.01,-17.42,25.51,-26.73
4371,-0.53,6.37,-8.08,0.00,0.00,-0.01,-17.42,25.51,-26.73
4382,-0.53,6.36,-8.08,0.00,0.00,-0.01,-17.07,26.96,-25.71
4393,-0.53,6.36,-8.08,0.00,0.00,-0.01,-17.07,26.96,-25.71
4404,-0.54,6.34,-8.07,0.00,-0.00,-0.01,-17.07,26.96,-25.71
4415,-0.54,6.34,-8.07,0.00,-0.00,-0.01,-17.07,26.96,-25.71
4426,-0.53,6.35,-8.10,0.00,0.00,-0.01,-17.07,26.96,-25.71
4437,-0.53,6.37,-8.09,-0.00,0.00,-0.01,-17.07,26.96,-25.71
4448,-0.53,6.37,-8.09,-0.00,0.00,-0.01,-17.07,26.96,-25.71
4459,-0.53,6.37,-8.05,0.00,0.00,-0.01,-17.07,26.96,-25.71
4470,-0.53,6.37,-8.05,0.00,0.00,-0.01,-17.07,26.96,-25.71
4481,-0.53,6.37,-8.10,0.00,-0.00,-0.01,-17.07,26.96,-25.71
4492,-0.53,6.37,-8.10,0.00,-0.00,-0.01,-17.07,26.96,-25.71
4503,-0.53,6.36,-8.10,0.00,-0.00,-0.01,-18.65,26.41,-26.22
4514,-0.53,6.36,-8.10,0.00,-0.00,-0.01,-18.65,26.41,-26.22
4525,-0.53,6.37,-8.08,-0.00,0.00,-0.01,-18.65,26.41,-26.22
4536,-0.53,6.37,-8.09,-0.00,0.00,-0.01,-18.65,26.41,-26.22
4547,-0.53,6.37,-8.09,-0.00,0.00,-0.01,-18.65,26.41,-26.22
4558,-0.53,6.36,-8.08,0.00,-0.00,-0.01,-18.65,26.41,-26.22
4569,-0.53,6.36,-8.08,0.00,-0.00,-0.01,-18.65,26.41,-26.22
4580,-0.53,6.35,-8.06,0.00,-0.00,-0.01,-18.65,26.41,-26.22
4591,-0.53,6.35,-8.06,0.00,-0.00,-0.01,-18.65,26.41,-26.22
4602,-0.54,6.36,-8.08,0.00,0.00,-0.01,-18.65,26.41,-26.22
4614,-0.54,6.36,-8.08,0.00,0.00,-0.01,-18.65,26.41,-26.22
4624,-0.52,6.36,-8.08,0.00,0.00,-0.01,-16.72,25.51,-26.05
4635,-0.52,6.36,-8.08,0.00,0.00,-0.01,-16.72,25.51,-26.05
4646,-0.52,6.37,-8.09,-0.00,0.00,-0.01,-16.72,25.51,-26.05
4657,-0.54,6.36,-8.07,0.00,0.00,-0.01,-16.72,25.51,-26.05
4668,-0.54,6.36,-8.07,0.00,0.00,-0.01,-16.72,25.51,-26.05
4679,-0.54,6.34,-8.07,0.00,-0.00,-0.01,-16.72,25.51,-26.05
4690,-0.54,6.34,-8.07,0.00,-0.00,-0.01,-16.72,25.51,-26.05
4701,-0.51,6.34,-8.09,0.00,0.00,-0.01,-16.72,25.51,-26.05
4712,-0.51,6.34,-8.09,0.00,0.00,-0.01,-16.72,25.51,-26.05
4723,-0.51,6.36,-8.10,0.00,0.00,-0.01,-16.72,25.51,-26.05
4734,-0.51,6.36,-8.10,0.00,0.00,-0.01,-16.72,25.51,-26.05
4745,-0.54,6.37,-8.09,0.00,0.00,-0.01,-18.12,26.59,-26.73
4756,-0.52,6.35,-8.09,0.00,0.00,-0.01,-18.12,26.59,-26.73
4767,-0.52,6.35,-8.09,0.00,0.00,-0.01,-18.12,26.59,-26.73
4778,-0.52,6.35,-8.08,0.00,0.00,-0.01,-18.12,26.59,-26.73
4789,-0.52,6.35,-8.08,0.00,0.00,-0.01,-18.12,26.59,-26.73
4800,-0.53,6.36,-8.12,-0.00,0.00,-0.01,-18.12,26.59,-26.73
4811,-0.53,6.36,-8.12,-0.00,0.00,-0.01,-18.12,26.59,-26.73
4822,-0.52,6.34,-8.07,0.00,0.00,-0.01,-18.12,26.59,-26.73
4833,-0.52,6.34,-8.07,0.00,0.00,-0.01,-18.12,26.59,-26.73
4844,-0.53,6.36,-8.08,-0.00,0.00,-0.01,-18.12,26.59,-26.73
4855,-0.53,6.36,-8.08,-0.00,0.00,-0.01,-18.12,26.59,-26.73
4866,-0.54,6.36,-8.07,0.00,0.00,-0.01,-18.12,26.59,-26.73
4877,-0.53,6.34,-8.08,0.00,0.00,-0.01,-17.77,26.23,-25.03
4888,-0.53,6.34,-8.08,0.00,0.00,-0.01,-17.77,26.23,-25.03
4899,-0.55,6.34,-8.09,0.00,0.00,-0.01,-17.77,26.23,-25.03
4910,-0.55,6.34,-8.09,0.00,0.00,-0.01,-17.77,26.23,-25.03
4921,-0.53,6.36,-8.08,0.00,-0.00,-0.01,-17.77,26.23,-25.03
4932,-0.53,6.36,-8.08,0.00,-0.00,-0.01,-17.77,26.23,-25.03
4943,-0.54,6.36,-8.08,0.00,-0.00,-0.01,-17.77,26.23,-25.03
4954,-0.54,6.36,-8.08,0.00,-0.00,-0.01,-17.77,26.23,-25.03
4965,-0.55,6.34,-8.07,0.00,-0.00,-0.01,-17.77,26.23,-25.03
4976,-0.54,6.35,-8.07,0.00,-0.00,-0.01,-17.77,26.23,-25.03
4987,-0.54,6.35,-8.07,0.00,-0.00,-0.01,-17.77,26.23,-25.03
4998,-0.54,6.35,-8.11,0.00,0.00,-0.01,-17.42,26.96,-26.39
5009,-0.54,6.35,-8.11,0.00,0.00,-0.01,-17.42,26.96,-26.39
5020,-0.53,6.37,-8.06,0.00,-0.00,-0.01,-17.42,26.96,-26.39
5031,-0.53,6.37,-8.06,0.00,-0.00,-0.01,-17.42,26.96,-26.39
5042,-0.54,6.37,-8.09,-0.00,-0.00,-0.01,-17.42,26.96,-26.39
5053,-0.54,6.37,-8.09,-0.00,-0.00,-0.01,-17.42,26.96,-26.39
5064,-0.53,6.36,-8.07,-0.00,0.00,-0.01,-17.42,26.96,-26.39
5075,-0.53,6.36,-8.07,-0.00,0.00,-0.01,-17.42,26.96,-26.39
5087,-0.53,6.35,-8.06,-0.00,0.00,-0.01,-17.42,26.96,-26.39
5097,-0.53,6.35,-8.09,0.00,0.00,-0.01,-17.42,26.96,-26.39
5108,-0.53,6.35,-8.09,0.00,0.00,-0.01,-17.42,26.96,-26.39
5119,-0.55,6.35,-8.09,0.00,0.00,-0.01,-16.54,25.33,-26.90
5130,-0.55,6.35,-8.09,0.00,0.00,-0.01,-16.54,25.33,-26.90
5141,-0.53,6.36,-8.11,-0.00,0.00,-0.01,-16.54,25.33,-26.90
5152,-0.53,6.36,-8.11,-0.00,0.00,-0.01,-16.54,25.33,-26.90
5163,-0.53,6.36,-8.09,0.00,-0.00,-0.01,-16.54,25.33,-26.90
5174,-0.53,6.36,-8.09,0.00,-0.00,-0.01,-16.54,25.33,-26.90
5185,-0.53,6.35,-8.06,0.00,-0.00,-0.01,-16.54,25.33,-26.90
5196,-0.52,6.35,-8.09,0.00,-0.00,-0.01,-16.54,25.33,-26.90
5207,-0.52,6.35,-8.09,0.00,-0.00,-0.01,-16.54,25.33,-26.90
5218,-0.53,6.36,-8.10,0.00,-0.00,-0.01,-16.54,25.33,-26.90
5229,-0.53,6.36,-8.10,0.00,-0.00,-0.01,-16.54,25.33,-26.90
5240,-0.53,6.36,-8.09,0.00,-0.00,-0.01,-16.54,25.33,-26.90
5251,-0.53,6.36,-8.09,0.00,-0.00,-0.01,-16.54,25.33,-26.90
5262,-0.53,6.37,-8.09,0.00,0.00,-0.01,-17.77,26.23,-25.71
5273,-0.53,6.37,-8.09,0.00,0.00,-0.01,-17.77,26.23,-25.71
5284,-0.54,6.34,-8.09,0.00,-0.00,-0.01,-17.77,26.23,-25.71
5295,-0.54,6.34,-8.09,0.00,-0.00,-0.01,-17.77,26.23,-25.71
5306,-0.53,6.34,-8.10,-0.00,-0.00,-0.01,-17.77,26.23,-25.71
5317,-0.53,6.35,-8.08,-0.00,-0.00,-0.01,-17.77,26.23,-25.71
5328,-0.53,6.35,-8.08,-0.00,-0.00,-0.01,-17.77,26.23,-25.71
5345,-0.52,6.36,-8.07,0.00,0.00,-0.01,-17.77,26.23,-25.71
5350,-0.52,6.36,-8.07,0.00,0.00,-0.01,-17.77,26.23,-25.71
5361,-0.53,6.35,-8.07,-0.00,0.00,-0.01,-17.77,26.23,-25.71
5372,-0.53,6.35,-8.07,-0.00,0.00,-0.01,-17.77,26.23,-25.71
5383,-0.54,6.36,-8.10,-0.00,-0.00,-0.01,-17.24,26.05,-25.54
5394,-0.54,6.36,-8.10,-0.00,-0.00,-0.01,-17.24,26.05,-25.54
5405,-0.53,6.37,-8.10,-0.00,0.00,-0.01,-17.24,26.05,-25.54
5416,-0.53,6.37,-8.10,-0.00,0.00,-0.01,-17.24,26.05,-25.54
5427,-0.53,6.36,-8.08,0.00,0.00,-0.01,-17.24,26.05,-25.54
5438,-0.54,6.36,-8.10,0.00,0.00,-0.01,-17.24,26.05,-25.54
5449,-0.54,6.36,-8.10,0.00,0.00,-0.01,-17.24,26.05,-25.54
5460,-0.53,6.37,-8.08,-0.00,0.00,-0.01,-17.24,26.05,-25.54
5471,-0.53,6.37,-8.08,-0.00,0.00,-0.01,-17.24,26.05,-25.54
5482,-0.53,6.36,-8.08,0.00,-0.00,-0.01,-17.24,26.05,-25.54
5493,-0.53,6.36,-8.08,0.00,-0.00,-0.01,-17.24,26.05,-25.54
5504,-0.55,6.36,-8.09,0.00,-0.00,-0.01,-16.36,25.51,-26.39
5515,-0.55,6.36,-8.09,0.00,-0.00,-0.01,-16.36,25.51,-26.39
5526,-0.54,6.36,-8.09,0.00,0.00,-0.01,-16.36,25.51,-26.39
5537,-0.52,6.38,-8.07,0.00,0.00,-0.01,-16.36,25.51,-26.39
5548,-0.52,6.38,-8.07,0.00,0.00,-0.01,-16.36,25.51,-26.39
5559,-0.53,6.35,-8.09,0.00,0.00,-0.01,-16.36,25.51,-26.39
5570,-0.53,6.35,-8.09,0.00,0.00,-0.01,-16.36,25.51,-26.39
5581,-0.54,6.34,-8.10,0.00,0.00,-0.01,-16.36,25.51,-26.39
5592,-0.54,6.34,-8.10,0.00,0.00,-0.01,-16.36,25.51,-26.39
5603,-3.11,7.01,-8.55,-0.72,-0.09,-0.41,-16.36,25.51,-26.39
5614,-3.11,7.01,-8.55,-0.72,-0.09,-0.41,-16.36,25.51,-26.39
5625,-1.27,6.74,-7.75,-2.51,-0.07,-1.09,-16.36,25.51,-26.39
5636,-1.27,6.74,-7.75,-2.51,-0.07,-1.09,-16.36,25.51,-26.39
5647,1.20,7.88,-7.12,1.06,0.80,-0.56,-17.77,26.96,-24.01
5658,-0.29,6.46,-8.05,0.07,0.45,-0.55,-17.77,26.96,-24.01
5669,-0.29,6.46,-8.05,0.07,0.45,-0.55,-17.77,26.96,-24.01
5680,-0.77,6.61,-7.90,0.02,0.09,-0.12,-17.77,26.96,-24.01
5691,-0.77,6.61,-7.90,0.02,0.09,-0.12,-17.77,26.96,-24.01
5702,0.51,6.79,-7.81,0.00,-0.00,-0.00,-17.77,26.96,-24.01
5713,0.51,6.79,-7.81,0.00,-0.00,-0.00,-17.77,26.96,-24.01
5725,-0.24,6.63,-7.76,-0.04,0.02,-0.04,-17.77,26.96,-24.01
5735,-0.24,6.63,-7.76,-0.04,0.02,-0.04,-17.77,26.96,-24.01
5746,-0.80,6.53,-7.95,-0.01,0.16,-0.19,-17.77,26.96,-24.01
5757,-1.53,6.88,-7.64,-0.03,0.28,-0.33,-17.94,27.50,-24.18
5768,-1.53,6.88,-7.64,-0.03,0.28,-0.33,-17.94,27.50,-24.18
5779,-1.30,6.37,-7.96,-0.00,0.20,-0.24,-17.94,27.50,-24.18
5790,-1.30,6.37,-7.96,-0.00,0.20,-0.24,-17.94,27.50,-24.18
5801,-0.80,6.63,-7.89,-0.07,0.01,-0.04,-17.94,27.50,-24.18
5812,-0.80,6.63,-7.89,-0.07,0.01,-0.04,-17.94,27.50,-24.18
5823,-0.74,6.84,-7.79,-0.05,-0.01,-0.01,-17.94,27.50,-24.18
5834,-0.74,6.84,-7.79,-0.05,-0.01,-0.01,-17.94,27.50,-24.18
5845,-0.72,6.29,-7.89,0.10,-0.17,0.19,-17.94,27.50,-24.18
5856,-0.72,6.29,-7.89,0.10,-0.17,0.19,-17.94,27.50,-24.18
5867,-0.86,6.86,-7.61,0.00,-0.19,0.23,-17.94,27.50,-24.18
5878,-0.95,6.97,-7.53,0.67,0.31,0.09,-18.30,26.41,-25.54
5889,-0.95,6.97,-7.53,0.67,0.31,0.09,-18.30,26.41,-25.54
5900,-1.27,5.88,-9.53,1.28,0.76,0.10,-18.30,26.41,-25.54
5911,-1.27,5.88,-9.53,1.28,0.76,0.10,-18.30,26.41,-25.54
5922,0.43,8.57,-14.17,1.76,0.70,-0.05,-18.30,26.41,-25.54
5933,0.43,8.57,-14.17,1.76,0.70,-0.05,-18.30,26.41,-25.54
5944,-0.16,4.44,-10.66,6.47,0.07,0.32,-18.30,26.41,-25.54
5955,-0.16,4.44,-10.66,6.47,0.07,0.32,-18.30,26.41,-25.54
5966,-0.28,1.18,-8.69,8.53,-0.07,1.03,-18.30,26.41,-25.54
5977,-0.01,-0.35,-7.93,7.41,0.55,1.76,-18.30,26.41,-25.54
5988,-0.01,-0.35,-7.93,7.41,0.55,1.76,-18.30,26.41,-25.54
5999,0.82,0.30,-10.19,4.67,1.57,2.07,-13.56,7.39,-38.63
6010,0.82,0.30,-10.19,4.67,1.57,2.07,-13.56,7.39,-38.63
6021,2.64,0.60,-12.79,3.01,2.40,2.01,-13.56,7.39,-38.63
6032,2.64,0.60,-12.79,3.01,2.40,2.01,-13.56,7.39,-38.63
6043,2.50,1.67,-16.90,2.18,2.13,1.96,-13.56,7.39,-38.63
6054,2.50,1.67,-16.90,2.18,2.13,1.96,-13.56,7.39,-38.63
6065,2.41,3.43,-17.47,2.74,0.88,1.86,-13.56,7.39,-38.63
6076,2.41,3.43,-17.47,2.74,0.88,1.86,-13.56,7.39,-38.63
6087,1.83,3.93,-17.81,3.47,-0.59,1.12,-13.56,7.39,-38.63
6098,1.68,3.20,-14.52,5.39,-1.81,0.15,-13.56,7.39,-38.63
6109,1.68,3.20,-14.52,5.39,-1.81,0.15,-13.56,7.39,-38.63
6120,1.42,1.78,-11.02,7.36,-2.55,-0.64,-13.56,7.39,-38.63
6131,1.42,1.78,-11.02,7.36,-2.55,-0.64,-13.56,7.39,-38.63
6142,1.88,-0.10,-10.20,8.78,-2.94,-1.01,-13.20,-16.52,-36.25
6153,1.88,-0.10,-10.20,8.78,-2.94,-1.01,-13.20,-16.52,-36.25
6164,1.53,-0.63,-8.71,10.42,-3.47,-0.86,-13.20,-16.52,-36.25
6175,1.53,-0.63,-8.71,10.42,-3.47,-0.86,-13.20,-16.52,-36.25
6186,2.01,-1.93,-7.41,11.10,-4.29,-0.69,-13.20,-16.52,-36.25
6197,-0.10,-3.22,-3.69,10.97,-5.10,-0.58,-13.20,-16.52,-36.25
6208,-0.10,-3.22,-3.69,10.97,-5.10,-0.58,-13.20,-16.52,-36.25
6219,1.09,-4.87,1.08,10.33,-5.15,-0.54,-13.20,-16.52,-36.25
6230,1.09,-4.87,1.08,10.33,-5.15,-0.54,-13.20,-16.52,-36.25
6241,0.22,-7.19,2.32,6.60,-4.69,-0.78,-13.20,-16.52,-36.25
6252,0.22,-7.19,2.32,6.60,-4.69,-0.78,-13.20,-16.52,-36.25
6263,0.84,-7.77,-0.43,2.54,-4.39,-1.03,-17.77,-44.42,11.01
6274,0.84,-7.77,-0.43,2.54,-4.39,-1.03,-17.77,-44.42,11.01
6285,2.48,-9.80,-0.60,0.49,-4.75,-0.87,-17.77,-44.42,11.01
6296,2.48,-9.80,-0.60,0.49,-4.75,-0.87,-17.77,-44.42,11.01
6307,2.51,-14.83,2.26,-0.76,-5.34,-0.48,-17.77,-44.42,11.01
6318,1.40,-15.83,5.97,-3.71,-4.95,0.55,-17.77,-44.42,11.01
6329,1.40,-15.83,5.97,-3.71,-4.95,0.55,-17.77,-44.42,11.01
6340,-1.44,-12.08,2.96,-9.81,-4.64,1.46,-17.77,-44.42,11.01
6351,-1.44,-12.08,2.96,-9.81,-4.64,1.46,-17.77,-44.42,11.01
6362,1.90,1.55,0.37,-15.03,-5.30,0.91,-17.77,-44.42,11.01
6373,1.90,1.55,0.37,-15.03,-5.30,0.91,-17.77,-44.42,11.01
6384,-4.38,9.21,-1.42,-17.47,-5.40,-3.13,-14.61,-37.90,-18.23
6395,-4.38,9.21,-1.42,-17.47,-5.40,-3.13,-14.61,-37.90,-18.23
6406,2.62,3.13,-0.16,-15.18,-2.25,-6.81,-14.61,-37.90,-18.23
6417,2.62,3.13,-0.16,-15.18,-2.25,-6.81,-14.61,-37.90,-18.23
6428,7.70,-8.27,-27.17,-4.93,1.57,-7.47,-14.61,-37.90,-18.23
6439,3.78,-19.18,-5.13,5.80,-0.03,-4.48,-14.61,-37.90,-18.23
6450,3.78,-19.18,-5.13,5.80,-0.03,-4.48,-14.61,-37.90,-18.23
6461,3.00,-11.65,-7.19,-1.40,-1.21,-1.85,-14.61,-37.90,-18.23
6472,3.00,-11.65,-7.19,-1.40,-1.21,-1.85,-14.61,-37.90,-18.23
6483,0.48,-7.55,-8.56,-2.27,-1.01,-0.09,-14.61,-37.90,-18.23
6494,0.48,-7.55,-8.56,-2.27,-1.01,-0.09,-14.61,-37.90,-18.23
6505,0.35,-4.07,-8.58,-1.83,-0.86,0.54,-14.61,-37.90,-18.23
6516,0.35,-4.07,-8.58,-1.83,-0.86,0.54,-14.61,-37.90,-18.23
6527,-0.22,-2.84,-11.08,-1.82,-0.87,0.41,-5.30,-33.37,-29.96
6539,-1.00,-2.75,-11.88,-0.66,-1.32,0.18,-5.30,-33.37,-29.96
6549,-1.00,-2.75,-11.88,-0.66,-1.32,0.18,-5.30,-33.37,-29.96
6560,-0.45,-3.04,-7.70,0.35,-1.87,0.39,-5.30,-33.37,-29.96
6571,-0.45,-3.04,-7.70,0.35,-1.87,0.39,-5.30,-33.37,-29.96
6582,0.21,-2.98,-7.88,-0.33,-1.71,0.45,-5.30,-33.37,-29.96
6593,0.21,-2.98,-7.88,-0.33,-1.71,0.45,-5.30,-33.37,-29.96
6604,-1.99,-1.77,-10.72,-0.96,-1.67,0.05,-5.30,-33.37,-29.96
6615,-1.99,-1.77,-10.72,-0.96,-1.67,0.05,-5.30,-33.37,-29.96
6626,-0.88,-0.83,-11.36,-1.00,-2.34,-0.39,-5.30,-33.37,-29.96
6637,-0.88,-0.83,-11.36,-1.00,-2.34,-0.39,-5.30,-33.37,-29.96
6648,-1.35,0.04,-8.73,0.31,-2.75,-0.87,-13.56,-29.56,-29.45
6659,-2.53,-1.30,-5.89,2.13,-2.12,-1.39,-13.56,-29.56,-29.45
6670,-2.53,-1.30,-5.89,2.13,-2.12,-1.39,-13.56,-29.56,-29.45
6681,-1.68,-2.11,-9.11,2.71,-1.04,-1.90,-13.56,-29.56,-29.45
6692,-1.68,-2.11,-9.11,2.71,-1.04,-1.90,-13.56,-29.56,-29.45
6703,-1.27,-1.89,-10.37,4.24,-1.09,-2.10,-13.56,-29.56,-29.45
6714,-1.27,-1.89,-10.37,4.24,-1.09,-2.10,-13.56,-29.56,-29.45
6725,1.17,-4.13,-7.49,5.72,-1.80,-2.09,-13.56,-29.56,-29.45
6736,1.17,-4.13,-7.49,5.72,-1.80,-2.09,-13.56,-29.56,-29.45
6747,-2.66,-5.50,-5.73,4.90,-2.14,-2.09,-13.56,-29.56,-29.45
6758,-4.17,-8.15,-4.25,4.23,-2.14,-1.99,-10.04,-44.78,-8.37
6770,-4.17,-8.15,-4.25,4.23,-2.14,-1.99,-10.04,-44.78,-8.37
6780,-3.60,-12.88,-3.90,2.81,-2.00,-0.87,-10.04,-44.78,-8.37
6791,-3.60,-12.88,-3.90,2.81,-2.00,-0.87,-10.04,-44.78,-8.37
6802,-6.52,-12.71,-2.40,-0.16,-1.79,1.04,-10.04,-44.78,-8.37
6813,-6.52,-12.71,-2.40,-0.16,-1.79,1.04,-10.04,-44.78,-8.37
6824,-10.97,-5.82,-1.10,-5.86,-1.67,2.25,-10.04,-44.78,-8.37
6840,-10.97,-5.82,-1.10,-5.86,-1.67,2.25,-10.04,-44.78,-8.37
6846,-1.67,-2.34,-2.07,-10.84,-0.80,2.12,-10.04,-44.78,-8.37
6857,-1.67,-2.34,-2.07,-10.84,-0.80,2.12,-10.04,-44.78,-8.37
6868,-1.12,-1.73,-12.29,-11.14,-0.14,1.01,-10.04,-44.78,-8.37
6879,-6.53,-1.78,-12.23,-5.65,-0.48,1.17,-10.04,-44.78,-8.37
6890,-6.53,-1.78,-12.23,-5.65,-0.48,1.17,-10.04,-44.78,-8.37
6901,-8.21,-0.22,-10.28,-5.75,-1.83,1.11,-16.89,-30.47,-27.92
6912,-8.21,-0.22,-10.28,-5.75,-1.83,1.11,-16.89,-30.47,-27.92
6923,-4.16,0.85,-5.44,-4.73,-2.26,1.30,-16.89,-30.47,-27.92
6934,-4.16,0.85,-5.44,-4.73,-2.26,1.30,-16.89,-30.47,-27.92
6945,-8.03,5.62,-6.33,-2.69,-1.21,1.08,-16.89,-30.47,-27.92
6956,-8.03,5.62,-6.33,-2.69,-1.21,1.08,-16.89,-30.47,-27.92
6967,-6.72,7.77,-10.74,-1.16,-0.52,-0.07,-16.89,-30.47,-27.92
6978,-6.75,6.24,-10.75,3.57,-0.48,-1.23,-16.89,-30.47,-27.92
6989,-6.75,6.24,-10.75,3.57,-0.48,-1.23,-16.89,-30.47,-27.92
7000,-7.10,3.80,-6.87,9.13,-0.36,-1.72,-16.89,-30.47,-27.92
7011,-7.10,3.80,-6.87,9.13,-0.36,-1.72,-16.89,-30.47,-27.92
7022,-6.29,-1.79,-7.23,9.63,-0.13,-2.15,-22.86,-32.64,-21.80
7033,-6.29,-1.79,-7.23,9.63,-0.13,-2.15,-22.86,-32.64,-21.80
7045,-4.66,-11.16,-7.56,6.61,-0.70,-2.15,-22.86,-32.64,-21.80
7055,-4.66,-11.16,-7.56,6.61,-0.70,-2.15,-22.86,-32.64,-21.80
7066,-5.42,-12.01,-5.59,0.84,-1.96,-1.04,-22.86,-32.64,-21.80
7077,-5.42,-12.01,-5.59,0.84,-1.96,-1.04,-22.86,-32.64,-21.80
7088,-6.07,-7.45,-0.26,-2.13,-2.14,1.11,-22.86,-32.64,-21.80
7099,-7.24,-2.28,0.11,-4.57,-1.49,1.71,-22.86,-32.64,-21.80
7110,-7.24,-2.28,0.11,-4.57,-1.49,1.71,-22.86,-32.64,-21.80
7121,-9.24,-2.26,-2.76,-4.91,-0.57,1.30,-22.86,-32.64,-21.80
7132,-9.24,-2.26,-2.76,-4.91,-0.57,1.30,-22.86,-32.64,-21.80
7143,-9.50,-0.42,-13.10,-5.90,-0.14,1.06,-24.97,-28.66,-21.80
7154,-9.50,-0.42,-13.10,-5.90,-0.14,1.06,-24.97,-28.66,-21.80
7165,-8.57,0.68,-9.79,-5.02,-1.44,1.02,-24.97,-28.66,-21.80
7176,-8.57,0.68,-9.79,-5.02,-1.44,1.02,-24.97,-28.66,-21.80
7187,-8.36,0.46,-4.28,-3.60,-1.95,0.77,-24.97,-28.66,-21.80
7198,-7.84,0.94,-6.41,-4.20,-1.16,0.55,-24.97,-28.66,-21.80
7209,-7.84,0.94,-6.41,-4.20,-1.16,0.55,-24.97,-28.66,-21.80
7220,-6.68,3.57,-10.04,-4.12,-1.09,0.59,-24.97,-28.66,-21.80
7231,-6.68,3.57,-10.04,-4.12,-1.09,0.59,-24.97,-28.66,-21.80
7242,-7.16,4.00,-6.38,-1.85,-1.59,0.25,-24.97,-28.66,-21.80
7253,-7.16,4.00,-6.38,-1.85,-1.59,0.25,-24.97,-28.66,-21.80
7264,-7.75,4.36,-4.04,-0.15,-1.24,-0.55,-30.06,-16.16,-23.33
7275,-7.75,4.36,-4.04,-0.15,-1.24,-0.55,-30.06,-16.16,-23.33
7286,-8.21,1.20,-4.73,0.90,-0.49,-1.38,-30.06,-16.16,-23.33
7297,-8.21,1.20,-4.73,0.90,-0.49,-1.38,-30.06,-16.16,-23.33
7308,-8.14,-0.87,-6.24,1.07,-0.21,-1.64,-30.06,-16.16,-23.33
7319,-8.77,-2.46,-6.12,0.93,-0.52,-1.20,-30.06,-16.16,-23.33
7330,-8.77,-2.46,-6.12,0.93,-0.52,-1.20,-30.06,-16.16,-23.33
7341,-9.60,-1.66,-3.91,0.69,-0.69,-0.53,-30.06,-16.16,-23.33
7352,-9.60,-1.66,-3.91,0.69,-0.69,-0.53,-30.06,-16.16,-23.33
7363,-9.10,-0.16,-4.02,0.43,-0.29,-0.23,-30.06,-16.16,-23.33
7374,-9.10,-0.16,-4.02,0.43,-0.29,-0.23,-30.06,-16.16,-23.33
7385,-8.28,-0.52,-5.78,0.36,0.13,-0.33,-30.06,-16.16,-23.33
7396,-8.28,-0.52,-5.78,0.36,0.13,-0.33,-30.06,-16.16,-23.33
7407,-8.06,-0.53,-6.35,0.41,0.19,-0.31,-30.23,-23.95,-21.12
7418,-8.28,0.48,-6.68,0.41,0.10,-0.24,-30.23,-23.95,-21.12
7429,-8.28,0.48,-6.68,0.41,0.10,-0.24,-30.23,-23.95,-21.12
7440,-8.42,-0.34,-6.48,0.62,-0.05,-0.31,-30.23,-23.95,-21.12
7451,-8.42,-0.34,-6.48,0.62,-0.05,-0.31,-30.23,-23.95,-21.12
7462,-8.42,-0.93,-5.42,0.59,-0.20,-0.21,-30.23,-23.95,-21.12
7473,-8.42,-0.93,-5.42,0.59,-0.20,-0.21,-30.23,-23.95,-21.12
7484,-8.38,-0.60,-5.23,0.46,-0.14,-0.04,-30.23,-23.95,-21.12
7495,-8.38,-0.60,-5.23,0.46,-0.14,-0.04,-30.23,-23.95,-21.12
7506,-8.77,-0.50,-5.62,0.43,-0.09,-0.02,-30.23,-23.95,-21.12
7517,-8.77,-0.50,-5.62,0.43,-0.09,-0.02,-30.23,-23.95,-21.12
7528,-8.80,-1.01,-5.30,0.43,-0.12,-0.10,-28.30,-24.49,-18.57
7539,-8.60,-1.34,-5.75,0.22,-0.11,-0.04,-28.30,-24.49,-18.57
7550,-8.60,-1.34,-5.75,0.22,-0.11,-0.04,-28.30,-24.49,-18.57
7561,-8.45,-0.95,-5.21,0.07,-0.13,0.08,-28.30,-24.49,-18.57
7572,-8.45,-0.95,-5.21,0.07,-0.13,0.08,-28.30,-24.49,-18.57
7583,-8.50,-0.48,-5.55,0.01,-0.07,0.07,-28.30,-24.49,-18.57
7594,-8.50,-0.48,-5.55,0.01,-0.07,0.07,-28.30,-24.49,-18.57
7605,-8.38,-0.57,-5.79,0.09,-0.04,-0.09,-28.30,-24.49,-18.57
7616,-8.38,-0.57,-5.79,0.09,-0.04,-0.09,-28.30,-24.49,-18.57
7627,-8.31,-0.80,-5.72,0.21,-0.03,-0.10,-28.30,-24.49,-18.57
7638,-8.31,-0.80,-5.72,0.21,-0.03,-0.10,-28.30,-24.49,-18.57
7649,-8.69,-0.87,-5.77,0.22,-0.04,-0.03,-30.94,-25.76,-18.06
7660,-8.65,-0.86,-5.28,0.17,-0.07,-0.02,-30.94,-25.76,-18.06
7671,-8.65,-0.86,-5.28,0.17,-0.07,-0.02,-30.94,-25.76,-18.06
7682,-8.49,-0.53,-5.60,0.10,-0.02,-0.06,-30.94,-25.76,-18.06
7693,-8.49,-0.53,-5.60,0.10,-0.02,-0.06,-30.94,-25.76,-18.06
7704,-8.34,-0.52,-5.69,0.15,-0.02,-0.10,-30.94,-25.76,-18.06
7715,-8.34,-0.52,-5.69,0.15,-0.02,-0.10,-30.94,-25.76,-18.06
7726,-8.12,-0.76,-6.10,0.20,-0.08,-0.15,-30.94,-25.76,-18.06
7737,-8.12,-0.76,-6.10,0.20,-0.08,-0.15,-30.94,-25.76,-18.06
7748,-8.06,-1.42,-5.54,0.28,-0.21,-0.15,-30.94,-25.76,-18.06
7759,-9.69,-0.81,-5.42,0.19,-0.29,-0.07,-30.94,-25.76,-18.06
7770,-9.69,-0.81,-5.42,0.19,-0.29,-0.07,-30.94,-25.76,-18.06
7781,-9.21,-1.67,-4.53,0.07,-0.15,-0.01,-28.83,-27.21,-18.40
7797,-9.21,-1.67,-4.53,0.07,-0.15,-0.01,-28.83,-27.21,-18.40
7803,-8.48,-0.80,-6.04,-0.30,-0.04,0.09,-28.83,-27.21,-18.40
7814,-8.48,-0.80,-6.04,-0.30,-0.04,0.09,-28.83,-27.21,-18.40
7825,-9.83,-0.77,-4.12,-0.19,-0.33,0.22,-28.83,-27.21,-18.40
7836,-9.83,-0.77,-4.12,-0.19,-0.33,0.22,-28.83,-27.21,-18.40
7847,-8.79,-0.52,-6.17,-0.56,-0.24,0.24,-28.83,-27.21,-18.40
7858,-8.79,-0.52,-6.17,-0.56,-0.24,0.24,-28.83,-27.21,-18.40
7869,-8.83,-0.85,-4.49,-0.30,-0.45,0.31,-28.83,-27.21,-18.40
7880,-8.93,-0.47,-4.66,-0.33,-0.39,0.34,-28.83,-27.21,-18.40
7891,-8.93,-0.47,-4.66,-0.33,-0.39,0.34,-28.83,-27.21,-18.40
7902,-8.53,-0.00,-4.94,-0.18,-0.32,0.26,-31.81,-25.22,-17.55
7913,-8.53,-0.00,-4.94,-0.18,-0.32,0.26,-31.81,-25.22,-17.55
7924,-8.85,0.21,-5.03,-0.11,-0.21,0.09,-31.81,-25.22,-17.55
7935,-8.85,0.21,-5.03,-0.11,-0.21,0.09,-31.81,-25.22,-17.55
7946,-8.76,-0.86,-5.11,-0.05,-0.11,-0.11,-31.81,-25.22,-17.55
7958,-8.76,-0.86,-5.11,-0.05,-0.11,-0.11,-31.81,-25.22,-17.55
7968,-8.78,-0.57,-5.47,-0.16,-0.10,-0.19,-31.81,-25.22,-17.55
7979,-8.72,-1.89,-4.60,-0.21,-0.15,-0.25,-31.81,-25.22,-17.55
7990,-8.72,-1.89,-4.60,-0.21,-0.15,-0.25,-31.81,-25.22,-17.55
8001,-8.80,-1.18,-4.55,-0.46,-0.14,-0.08,-31.81,-25.22,-17.55
8012,-8.80,-1.18,-4.55,-0.46,-0.14,-0.08,-31.81,-25.22,-17.55
8023,-8.76,-0.24,-5.32,-0.38,-0.04,0.03,-31.46,-23.77,-17.89
8034,-8.76,-0.24,-5.32,-0.38,-0.04,0.03,-31.46,-23.77,-17.89
8045,-8.72,-0.79,-5.08,-0.10,-0.01,0.15,-31.46,-23.77,-17.89
8056,-8.72,-0.79,-5.08,-0.10,-0.01,0.15,-31.46,-23.77,-17.89
8067,-10.42,0.20,-3.88,0.07,0.06,0.31,-31.46,-23.77,-17.89
8078,-10.42,0.20,-3.88,0.07,0.06,0.31,-31.46,-23.77,-17.89
8089,-9.64,1.69,-5.44,-0.03,0.32,0.14,-31.46,-23.77,-17.89
8100,-9.59,-0.48,-3.28,0.37,0.36,-0.13,-31.46,-23.77,-17.89
8111,-9.59,-0.48,-3.28,0.37,0.36,-0.13,-31.46,-23.77,-17.89
8122,-7.50,0.26,-6.09,0.04,0.84,-0.23,-31.46,-23.77,-17.89
8133,-7.50,0.26,-6.09,0.04,0.84,-0.23,-31.46,-23.77,-17.89
8144,-7.23,-0.08,-6.45,0.28,0.68,-0.42,-31.46,-23.77,-17.89
8155,-7.23,-0.08,-6.45,0.28,0.68,-0.42,-31.46,-23.77,-17.89
8166,-7.49,-0.17,-5.76,0.60,0.43,-0.62,-31.99,-24.31,-18.40
8177,-7.49,-0.17,-5.76,0.60,0.43,-0.62,-31.99,-24.31,-18.40
8188,-7.78,-0.79,-6.18,0.83,0.40,-0.75,-31.99,-24.31,-18.40
8199,-7.83,-1.59,-6.61,0.81,0.19,-0.72,-31.99,-24.31,-18.40
8210,-7.83,-1.59,-6.61,0.81,0.19,-0.72,-31.99,-24.31,-18.40
8221,-8.22,-2.40,-6.13,0.67,-0.24,-0.44,-31.99,-24.31,-18.40
8232,-8.22,-2.40,-6.13,0.67,-0.24,-0.44,-31.99,-24.31,-18.40
8243,-10.41,-0.81,-5.31,0.23,-0.55,-0.04,-31.99,-24.31,-18.40
8254,-10.41,-0.81,-5.31,0.23,-0.55,-0.04,-31.99,-24.31,-18.40
8265,-9.62,-1.19,-3.70,0.10,-0.49,0.12,-31.99,-24.31,-18.40
8277,-9.62,-1.19,-3.70,0.10,-0.49,0.12,-31.99,-24.31,-18.40
8287,-9.18,-1.43,-4.72,-0.33,-0.20,0.02,-30.06,-28.48,-17.21
8298,-9.18,-1.43,-4.72,-0.33,-0.20,0.02,-30.06,-28.48,-17.21
8309,-8.43,-2.35,-6.17,-0.30,-0.16,0.19,-30.06,-28.48,-17.21
8320,-8.61,-1.76,-4.34,-0.31,-0.25,0.48,-30.06,-28.48,-17.21
8331,-8.61,-1.76,-4.34,-0.31,-0.25,0.48,-30.06,-28.48,-17.21
8342,-9.71,-1.96,-3.91,-0.15,-0.04,0.59,-30.06,-28.48,-17.21
8353,-9.71,-1.96,-3.91,-0.15,-0.04,0.59,-30.06,-28.48,-17.21
8364,-10.90,-0.67,-4.43,-0.23,0.21,0.60,-30.06,-28.48,-17.21
8375,-10.90,-0.67,-4.43,-0.23,0.21,0.60,-30.06,-28.48,-17.21
8386,-9.81,-0.15,-3.00,-0.48,0.57,0.26,-30.06,-28.48,-17.21
8397,-9.81,-0.15,-3.00,-0.48,0.57,0.26,-30.06,-28.48,-17.21
8408,-6.55,0.48,-7.44,-0.92,0.87,-0.20,-29.00,-25.22,-19.25
8419,-6.93,0.52,-6.38,-0.35,0.05,-0.35,-29.00,-25.22,-19.25
8430,-6.93,0.52,-6.38,-0.35,0.05,-0.35,-29.00,-25.22,-19.25
8441,-7.68,-0.35,-5.66,0.07,-0.45,-0.44,-29.00,-25.22,-19.25
8452,-7.68,-0.35,-5.66,0.07,-0.45,-0.44,-29.00,-25.22,-19.25
8463,-8.99,-1.12,-5.68,0.13,-0.41,-0.24,-29.00,-25.22,-19.25
8474,-8.99,-1.12,-5.68,0.13,-0.41,-0.24,-29.00,-25.22,-19.25
8485,-8.94,-0.12,-5.76,-0.08,-0.06,0.10,-29.00,-25.22,-19.25
8496,-8.94,-0.12,-5.76,-0.08,-0.06,0.10,-29.00,-25.22,-19.25
8507,-7.51,1.22,-7.79,-0.14,0.22,0.13,-29.00,-25.22,-19.25
8518,-7.51,1.22,-7.79,-0.14,0.22,0.13,-29.00,-25.22,-19.25
8529,-8.05,0.11,-6.48,0.36,-0.08,-0.14,-29.88,-26.85,-18.74
8540,-8.94,-1.57,-4.63,0.65,-0.23,-0.30,-29.88,-26.85,-18.74
8551,-8.94,-1.57,-4.63,0.65,-0.23,-0.30,-29.88,-26.85,-18.74
8562,-8.96,-2.00,-4.72,0.44,-0.04,-0.17,-29.88,-26.85,-18.74
8573,-8.96,-2.00,-4.72,0.44,-0.04,-0.17,-29.88,-26.85,-18.74
8584,-8.91,-1.38,-4.72,0.30,0.07,0.05,-29.88,-26.85,-18.74
8596,-8.91,-1.38,-4.72,0.30,0.07,0.05,-29.88,-26.85,-18.74
8606,-8.84,-1.15,-4.72,0.26,0.14,0.12,-29.88,-26.85,-18.74
8617,-8.84,-1.15,-4.72,0.26,0.14,0.12,-29.88,-26.85,-18.74
8628,-8.45,-1.09,-5.55,0.16,0.12,0.10,-29.88,-26.85,-18.74
8639,-8.45,-1.09,-5.55,0.16,0.12,0.10,-29.88,-26.85,-18.74
8650,-8.55,-1.24,-5.17,0.17,-0.01,0.06,-29.88,-26.85,-18.74
8661,-8.38,-1.07,-5.56,0.09,-0.05,0.09,-30.06,-25.58,-17.21
8672,-8.38,-1.07,-5.56,0.09,-0.05,0.09,-30.06,-25.58,-17.21
8683,-8.23,-0.60,-5.95,0.06,-0.11,0.13,-30.06,-25.58,-17.21
8694,-8.23,-0.60,-5.95,0.06,-0.11,0.13,-30.06,-25.58,-17.21
8705,-10.23,-0.13,-4.98,0.20,-0.26,0.09,-30.06,-25.58,-17.21
8716,-10.23,-0.13,-4.98,0.20,-0.26,0.09,-30.06,-25.58,-17.21
8727,-8.74,-1.61,-4.96,0.11,-0.07,-0.06,-30.06,-25.58,-17.21
8738,-8.74,-1.61,-4.96,0.11,-0.07,-0.06,-30.06,-25.58,-17.21
8749,-8.61,-1.13,-5.94,-0.17,-0.10,0.02,-30.06,-25.58,-17.21
8760,-9.09,-1.59,-4.23,-0.18,-0.27,0.04,-30.06,-25.58,-17.21
8771,-9.09,-1.59,-4.23,-0.18,-0.27,0.04,-30.06,-25.58,-17.21
8782,-8.78,-1.13,-5.66,-0.44,-0.13,0.03,-29.36,-24.85,-15.85
8793,-8.78,-1.13,-5.66,-0.44,-0.13,0.03,-29.36,-24.85,-15.85
8804,-8.48,-0.41,-5.01,-0.40,-0.15,-0.02,-29.36,-24.85,-15.85
8815,-8.48,-0.41,-5.01,-0.40,-0.15,-0.02,-29.36,-24.85,-15.85
8826,-8.53,-0.21,-5.57,-0.12,-0.03,-0.14,-29.36,-24.85,-15.85
8837,-8.53,-0.21,-5.57,-0.12,-0.03,-0.14,-29.36,-24.85,-15.85
8848,-8.59,-0.06,-5.10,0.20,0.06,-0.20,-29.36,-24.85,-15.85
8859,-8.59,-0.06,-5.10,0.20,0.06,-0.20,-29.36,-24.85,-15.85
8871,-8.65,-0.49,-5.53,0.41,0.15,-0.22,-29.36,-24.85,-15.85
8881,-9.07,-1.17,-4.87,0.47,0.13,-0.14,-29.36,-24.85,-15.85
8892,-9.07,-1.17,-4.87,0.47,0.13,-0.14,-29.36,-24.85,-15.85
8903,-8.67,-2.03,-4.97,0.28,0.13,0.02,-29.36,-27.75,-18.57
8914,-8.67,-2.03,-4.97,0.28,0.13,0.02,-29.36,-27.75,-18.57
8925,-8.89,-1.80,-4.94,0.07,0.10,0.19,-29.36,-27.75,-18.57
8941,-8.89,-1.80,-4.94,0.07,0.10,0.19,-29.36,-27.75,-18.57
8947,-8.89,-1.35,-5.61,-0.09,0.04,0.42,-29.36,-27.75,-18.57
8958,-8.89,-1.35,-5.61,-0.09,0.04,0.42,-29.36,-27.75,-18.57
8969,-8.87,0.03,-5.45,-0.36,-0.11,0.46,-29.36,-27.75,-18.57
8980,-8.77,0.11,-5.23,-0.35,-0.29,0.20,-29.36,-27.75,-18.57
8991,-8.77,0.11,-5.23,-0.35,-0.29,0.20,-29.36,-27.75,-18.57
9002,-8.81,-0.66,-4.92,-0.43,-0.31,-0.00,-29.36,-27.75,-18.57
9013,-8.81,-0.66,-4.92,-0.43,-0.31,-0.00,-29.36,-27.75,-18.57
9024,-8.63,-1.07,-4.96,-0.58,-0.24,-0.13,-29.36,-27.75,-18.57
9035,-8.63,-1.07,-4.96,-0.58,-0.24,-0.13,-29.36,-27.75,-18.57
9046,-8.60,-1.05,-5.53,-0.56,-0.18,-0.19,-30.76,-25.22,-17.21
9057,-8.60,-1.05,-5.53,-0.56,-0.18,-0.19,-30.76,-25.22,-17.21
9068,-8.81,-0.84,-4.58,-0.34,-0.13,-0.19,-30.76,-25.22,-17.21
9079,-8.81,-0.84,-4.58,-0.34,-0.13,-0.19,-30.76,-25.22,-17.21
9090,-9.69,-0.62,-4.59,-0.06,0.00,-0.07,-30.76,-25.22,-17.21
9101,-9.14,-0.29,-4.97,0.05,0.25,-0.00,-30.76,-25.22,-17.21
9112,-9.14,-0.29,-4.97,0.05,0.25,-0.00,-30.76,-25.22,-17.21
9123,-9.72,-0.48,-4.10,0.11,0.26,-0.18,-30.76,-25.22,-17.21
9134,-9.72,-0.48,-4.10,0.11,0.26,-0.18,-30.76,-25.22,-17.21
9145,-7.65,-0.55,-5.88,-0.12,0.44,-0.27,-30.76,-25.22,-17.21
9156,-7.65,-0.55,-5.88,-0.12,0.44,-0.27,-30.76,-25.22,-17.21
9167,-7.07,-0.62,-7.14,-0.10,0.21,-0.26,-30.06,-25.94,-18.23
9178,-7.07,-0.62,-7.14,-0.10,0.21,-0.26,-30.06,-25.94,-18.23
9189,-7.74,-0.60,-6.01,0.15,-0.24,-0.23,-30.06,-25.94,-18.23
9200,-8.40,-0.81,-5.63,0.21,-0.38,-0.25,-30.06,-25.94,-18.23
9211,-8.40,-0.81,-5.63,0.21,-0.38,-0.25,-30.06,-25.94,-18.23
9222,-9.68,-2.24,-3.07,0.36,-0.37,-0.21,-30.06,-25.94,-18.23
9233,-9.68,-2.24,-3.07,0.36,-0.37,-0.21,-30.06,-25.94,-18.23
9244,-8.45,-1.03,-4.87,0.02,0.07,-0.16,-30.06,-25.94,-18.23
9256,-8.45,-1.03,-4.87,0.02,0.07,-0.16,-30.06,-25.94,-18.23
9266,-9.13,-1.77,-4.98,0.17,0.06,-0.09,-30.06,-25.94,-18.23
9277,-9.13,-1.77,-4.98,0.17,0.06,-0.09,-30.06,-25.94,-18.23
9288,-9.27,-0.53,-4.74,0.09,0.04,0.12,-30.41,-27.75,-18.23
9299,-9.27,-0.53,-4.74,0.09,0.04,0.12,-30.41,-27.75,-18.23
9310,-8.82,-0.99,-5.17,0.15,0.11,0.14,-30.41,-27.75,-18.23
9321,-8.82,-1.24,-5.38,0.12,0.11,0.17,-30.41,-27.75,-18.23
9332,-8.82,-1.24,-5.38,0.12,0.11,0.17,-30.41,-27.75,-18.23
9343,-9.07,-1.15,-5.18,-0.03,0.03,0.22,-30.41,-27.75,-18.23
9354,-9.07,-1.15,-5.18,-0.03,0.03,0.22,-30.41,-27.75,-18.23
9365,-8.77,-1.17,-5.52,-0.25,-0.08,0.25,-30.41,-27.75,-18.23
9376,-8.77,-1.17,-5.52,-0.25,-0.08,0.25,-30.41,-27.75,-18.23
9387,-9.06,-0.19,-4.69,-0.39,-0.22,0.25,-30.41,-27.75,-18.23
9398,-9.06,-0.19,-4.69,-0.39,-0.22,0.25,-30.41,-27.75,-18.23
9409,-8.88,-0.98,-5.17,-0.42,-0.23,0.06,-30.41,-27.75,-18.23
9420,-8.86,-0.57,-4.53,-0.46,-0.26,0.01,-30.41,-24.85,-18.23
9431,-8.86,-0.57,-4.53,-0.46,-0.26,0.01,-30.41,-24.85,-17.55
9442,-8.80,-0.67,-5.16,-0.40,-0.14,-0.04,-30.41,-24.85,-17.55
9453,-8.80,-0.67,-5.16,-0.40,-0.14,-0.04,-30.41,-24.85,-17.55
9464,-8.60,-0.84,-4.60,-0.22,-0.09,-0.13,-30.41,-24.85,-17.55
9475,-8.60,-0.84,-4.60,-0.22,-0.09,-0.13,-30.41,-24.85,-17.55
9486,-8.58,-0.41,-4.99,-0.02,0.09,-0.14,-30.41,-24.85,-17.55
9497,-8.58,-0.41,-4.99,-0.02,0.09,-0.14,-30.41,-24.85,-17.55
9508,-8.54,-0.05,-5.56,0.19,0.24,-0.23,-30.41,-24.85,-17.55
9519,-8.54,-0.05,-5.56,0.19,0.24,-0.23,-30.41,-24.85,-17.55
9530,-8.88,-0.83,-5.26,0.46,0.21,-0.30,-30.41,-24.85,-17.55
9541,-9.11,-1.07,-5.63,0.23,0.05,-0.17,-30.76,-26.30,-16.87
9552,-9.11,-1.07,-5.63,0.23,0.05,-0.17,-30.76,-26.30,-16.87
9563,-9.02,-0.99,-4.45,-0.00,-0.10,-0.04,-30.76,-26.30,-16.87
9574,-9.02,-0.99,-4.45,-0.00,-0.10,-0.04,-30.76,-26.30,-16.87
9585,-9.12,-1.40,-4.83,-0.18,-0.04,-0.03,-30.76,-26.30,-16.87
9596,-9.12,-1.40,-4.83,-0.18,-0.04,-0.03,-30.76,-26.30,-16.87
9607,-8.91,-1.10,-5.52,-0.35,-0.13,0.08,-30.76,-26.30,-16.87
9618,-8.91,-1.10,-5.52,-0.35,-0.13,0.08,-30.76,-26.30,-16.87
9629,-8.92,-0.21,-4.78,-0.42,-0.23,0.13,-30.76,-26.30,-16.87
9640,-8.92,-0.21,-4.78,-0.42,-0.23,0.13,-30.76,-26.30,-16.87
9651,-8.95,-0.75,-4.85,-0.37,-0.21,0.00,-30.76,-26.30,-16.87
9662,-8.87,-0.80,-4.70,-0.35,-0.19,-0.07,-29.71,-24.85,-17.21
9673,-8.87,-0.80,-4.70,-0.35,-0.19,-0.07,-29.71,-24.85,-17.21
9684,-8.85,-1.42,-4.38,-0.28,-0.11,-0.13,-29.71,-24.85,-17.21
9695,-8.85,-1.42,-4.38,-0.28,-0.11,-0.13,-29.71,-24.85,-17.21
9706,-8.77,-0.72,-4.85,-0.15,0.03,-0.10,-29.71,-24.85,-17.21
9717,-8.77,-0.72,-4.85,-0.15,0.03,-0.10,-29.71,-24.85,-17.21
9728,-8.58,-0.57,-5.15,0.05,0.19,-0.10,-29.71,-24.85,-17.21
9739,-8.58,-0.57,-5.15,0.05,0.19,-0.10,-29.71,-24.85,-17.21
9750,-8.68,-0.35,-5.49,0.21,0.24,-0.14,-29.71,-24.85,-17.21
9761,-9.06,-0.69,-5.67,0.22,0.09,-0.10,-29.71,-24.85,-17.21
9772,-9.06,-0.69,-5.67,0.22,0.09,-0.10,-29.71,-24.85,-17.21
9783,-9.21,-0.34,-4.46,0.03,-0.06,0.04,-30.41,-26.30,-17.21
9794,-9.21,-0.34,-4.46,0.03,-0.06,0.04,-30.41,-26.30,-17.21
9805,-8.99,-1.16,-4.43,-0.11,-0.05,-0.01,-30.41,-26.30,-17.21
9816,-8.99,-1.16,-4.43,-0.11,-0.05,-0.01,-30.41,-26.30,-17.21
9827,-8.91,-1.11,-5.31,-0.20,-0.03,0.04,-30.41,-26.30,-17.21
9838,-8.91,-1.11,-5.31,-0.20,-0.03,0.04,-30.41,-26.30,-17.21
9849,-8.96,-0.61,-5.46,-0.32,-0.14,0.10,-30.41,-26.30,-17.21
9860,-8.96,-0.61,-5.46,-0.32,-0.14,0.10,-30.41,-26.30,-17.21
9871,-8.88,-0.25,-4.87,-0.35,-0.23,0.06,-30.41,-26.30,-17.21
9882,-8.93,-0.75,-4.46,-0.33,-0.20,-0.06,-30.41,-26.30,-17.21
9893,-8.93,-0.75,-4.46,-0.33,-0.20,-0.06,-30.41,-26.30,-17.21
9904,-8.84,-0.85,-4.66,-0.27,-0.11,-0.14,-30.41,-26.30,-17.21
9915,-8.84,-0.85,-4.66,-0.27,-0.11,-0.14,-30.41,-26.30,-17.21
9926,-8.77,-1.05,-4.88,-0.14,-0.02,-0.19,-30.06,-24.85,-18.57
9937,-8.77,-1.05,-4.88,-0.14,-0.02,-0.19,-30.06,-24.85,-18.57
9948,-8.65,-1.18,-4.99,0.03,0.11,-0.14,-30.06,-24.85,-18.57
9959,-8.65,-1.18,-4.99,0.03,0.11,-0.14,-30.06,-24.85,-18.57
9970,-8.38,-0.02,-5.47,0.16,0.23,-0.02,-30.06,-24.85,-18.57
9981,-8.61,-0.16,-5.66,0.30,0.14,-0.09,-30.06,-24.85,-18.57
9992,-8.61,-0.16,-5.66,0.30,0.14,-0.09,-30.06,-24.85,-18.57
10003,-9.19,-1.11,-4.94,0.18,-0.01,-0.06,-30.06,-24.85,-18.57
10014,-9.19,-1.11,-4.94,0.18,-0.01,-0.06,-30.06,-24.85,-18.57
10025,-9.10,-0.80,-3.84,-0.07,-0.07,0.01,-30.06,-24.85,-18.57
10036,-9.10,-0.80,-3.84,-0.07,-0.07,0.01,-30.06,-24.85,-18.57
10047,-9.27,-1.38,-5.07,-0.20,-0.00,0.02,-30.06,-24.85,-17.55
10059,-9.27,-1.38,-5.07,-0.20,-0.00,0.02,-30.06,-24.85,-17.55
10069,-8.85,-0.94,-5.39,-0.42,-0.16,0.18,-30.06,-24.85,-17.55
10080,-8.85,-0.94,-5.39,-0.42,-0.16,0.18,-30.06,-24.85,-17.55
10091,-9.01,0.32,-4.47,-0.51,-0.25,0.20,-30.06,-24.85,-17.55
10102,-8.78,0.30,-5.69,-0.51,-0.17,-0.07,-30.06,-24.85,-17.55
10113,-8.78,0.30,-5.69,-0.51,-0.17,-0.07,-30.06,-24.85,-17.55
10124,-8.78,-1.20,-4.69,-0.27,-0.23,-0.29,-30.06,-24.85,-17.55
10135,-8.78,-1.20,-4.69,-0.27,-0.23,-0.29,-30.06,-24.85,-17.55
10146,-9.44,-1.58,-3.91,-0.09,-0.11,-0.18,-30.06,-24.85,-17.55
10157,-9.44,-1.58,-3.91,-0.09,-0.11,-0.18,-30.06,-24.85,-17.55
10168,-9.15,-2.86,-4.26,0.10,0.23,0.11,-28.83,-23.95,-18.06
10179,-9.15,-2.86,-4.26,0.10,0.23,0.11,-28.83,-23.95,-18.06
10190,-10.64,-2.56,-1.89,0.15,0.52,0.58,-28.83,-23.95,-18.06
10201,-7.67,1.50,-6.14,-0.43,1.06,0.49,-28.83,-23.95,-18.06
10212,-7.67,1.50,-6.14,-0.43,1.06,0.49,-28.83,-23.95,-18.06
10223,-6.73,1.39,-7.56,-0.02,0.53,-0.24,-28.83,-23.95,-18.06
10234,-6.73,1.39,-7.56,-0.02,0.53,-0.24,-28.83,-23.95,-18.06
10245,-8.31,-1.39,-4.75,0.63,-0.33,-0.69,-28.83,-23.95,-18.06
10256,-8.31,-1.39,-4.75,0.63,-0.33,-0.69,-28.83,-23.95,-18.06
10267,-9.55,-1.46,-4.94,0.41,-0.27,-0.33,-28.83,-23.95,-18.06
10278,-9.55,-1.46,-4.94,0.41,-0.27,-0.33,-28.83,-23.95,-18.06
10289,-8.91,1.39,-6.07,-0.16,0.07,0.13,-28.83,-23.95,-18.06
10300,-8.91,1.39,-6.07,-0.16,0.07,0.13,-28.83,-23.95,-18.06
10311,-7.86,1.43,-6.53,-0.01,0.16,0.16,-30.06,-24.13,-18.91
10322,-8.44,1.69,-5.99,0.32,-0.00,0.02,-30.06,-24.13,-18.91
10333,-8.44,1.69,-5.99,0.32,-0.00,0.02,-30.06,-24.13,-18.91
10344,-9.29,-0.86,-4.51,0.84,-0.14,-0.28,-30.06,-24.13,-18.91
10355,-9.29,-0.86,-4.51,0.84,-0.14,-0.28,-30.06,-24.13,-18.91
10366,-9.05,-2.73,-4.25,0.67,0.00,-0.28,-30.06,-24.13,-18.91
10377,-9.05,-2.73,-4.25,0.67,0.00,-0.28,-30.06,-24.13,-18.91
10388,-8.93,-1.96,-4.87,0.32,0.12,-0.03,-30.06,-24.13,-18.91
10400,-8.93,-1.96,-4.87,0.32,0.12,-0.03,-30.06,-24.13,-18.91
10410,-9.01,-1.70,-4.52,0.15,0.11,0.02,-30.06,-24.13,-18.91
10421,-8.80,-1.50,-5.21,-0.03,0.16,0.05,-29.88,-26.85,-18.74
10432,-8.80,-1.50,-5.21,-0.03,0.16,0.05,-29.88,-26.85,-18.74
10443,-8.55,-0.27,-5.66,-0.22,0.16,0.13,-29.88,-26.85,-18.74
10454,-8.55,-0.27,-5.66,-0.22,0.16,0.13,-29.88,-26.85,-18.74
10465,-8.58,-0.11,-5.57,-0.09,0.05,0.03,-29.88,-26.85,-18.74
10476,-8.58,-0.11,-5.57,-0.09,0.05,0.03,-29.88,-26.85,-18.74
10487,-8.72,-0.57,-5.28,0.06,-0.04,-0.07,-29.88,-26.85,-18.74
10498,-8.72,-0.57,-5.28,0.06,-0.04,-0.07,-29.88,-26.85,-18.74
10509,-9.05,-0.86,-4.97,0.11,-0.05,-0.10,-29.88,-26.85,-18.74
10520,-9.05,-0.86,-4.97,0.11,-0.05,-0.10,-29.88,-26.85,-18.74
10531,-8.95,-1.63,-4.70,0.04,0.01,-0.12,-29.88,-26.85,-18.74
10542,-8.91,-1.60,-4.98,-0.14,0.07,-0.06,-29.71,-25.58,-19.25
10553,-8.91,-1.60,-4.98,-0.14,0.07,-0.06,-29.71,-25.58,-19.25
10564,-8.97,-1.43,-4.90,-0.30,0.08,-0.02,-29.71,-25.58,-19.25
10575,-8.97,-1.43,-4.90,-0.30,0.08,-0.02,-29.71,-25.58,-19.25
10586,-8.74,-1.01,-5.18,-0.49,0.09,-0.05,-29.71,-25.58,-19.25
10597,-8.74,-1.01,-5.18,-0.49,0.09,-0.05,-29.71,-25.58,-19.25
10608,-8.28,-0.58,-5.55,-0.53,0.07,-0.13,-29.71,-25.58,-19.25
10619,-8.28,-0.58,-5.55,-0.53,0.07,-0.13,-29.71,-25.58,-19.25
10630,-8.22,-0.68,-5.53,-0.27,0.03,-0.05,-29.71,-25.58,-19.25
10641,-8.47,0.29,-5.83,-0.16,0.07,0.19,-29.71,-25.58,-19.25
10652,-8.47,0.29,-5.83,-0.16,0.07,0.19,-29.71,-25.58,-19.25
10663,-8.56,0.62,-6.08,0.05,-0.01,0.11,-29.71,-25.58,-19.25
10674,-8.56,0.62,-6.08,0.05,-0.01,0.11,-29.71,-25.58,-19.25
10685,-8.56,-0.87,-5.31,0.42,-0.18,-0.11,-29.00,-24.49,-20.27
10696,-8.56,-0.87,-5.31,0.42,-0.18,-0.11,-29.00,-24.49,-20.27
10707,-8.94,-1.15,-4.93,0.41,-0.15,-0.02,-29.00,-24.49,-20.27
10718,-8.94,-1.15,-4.93,0.41,-0.15,-0.02,-29.00,-24.49,-20.27
10729,-9.44,-0.58,-4.83,0.34,-0.09,-0.01,-29.00,-24.49,-20.27
10740,-9.44,-0.58,-4.83,0.34,-0.09,-0.01,-29.00,-24.49,-20.27
10751,-8.80,-2.06,-4.51,0.29,-0.02,-0.13,-29.00,-24.49,-20.27
10762,-8.81,-1.40,-5.13,0.01,0.01,-0.06,-29.00,-24.49,-20.27
10773,-8.81,-1.40,-5.13,0.01,0.01,-0.06,-29.00,-24.49,-20.27
10784,-8.83,-1.25,-4.89,-0.12,0.04,-0.02,-29.00,-24.49,-20.27
10795,-8.83,-1.25,-4.89,-0.12,0.04,-0.02,-29.00,-24.49,-20.27
10806,-8.52,-0.45,-5.93,-0.34,0.16,0.03,-27.95,-26.67,-19.59
10817,-8.52,-0.45,-5.93,-0.34,0.16,0.03,-27.95,-26.67,-19.59
10828,-8.43,0.20,-6.13,-0.32,0.10,-0.04,-27.95,-26.67,-19.59
10839,-8.43,0.20,-6.13,-0.32,0.10,-0.04,-27.95,-26.67,-19.59
10850,-8.41,-0.43,-5.37,-0.03,0.01,-0.09,-27.95,-26.67,-19.59
10861,-8.41,-0.43,-5.37,-0.03,0.01,-0.09,-27.95,-26.67,-19.59
10872,-8.50,-0.20,-5.38,0.06,0.02,-0.03,-27.95,-26.67,-19.59
10883,-8.95,-0.36,-5.18,0.25,-0.03,-0.09,-27.95,-26.67,-19.59
10894,-8.95,-0.36,-5.18,0.25,-0.03,-0.09,-27.95,-26.67,-19.59
10905,-9.08,-1.18,-4.44,0.42,0.01,-0.14,-27.95,-26.67,-19.59
10916,-9.08,-1.18,-4.44,0.42,0.01,-0.14,-27.95,-26.67,-19.59
10927,-8.50,-1.42,-5.33,0.33,0.15,-0.09,-28.48,-26.12,-18.40
10938,-8.50,-1.42,-5.33,0.33,0.15,-0.09,-28.48,-26.12,-18.40
10949,-8.47,-1.02,-5.72,0.24,0.10,-0.03,-28.48,-26.12,-18.40
10960,-8.47,-1.02,-5.72,0.24,0.10,-0.03,-28.48,-26.12,-18.40
10971,-8.93,-1.59,-4.93,0.33,-0.04,-0.10,-28.48,-26.12,-18.40
10982,-8.87,-1.84,-4.81,0.25,0.04,-0.05,-28.48,-26.12,-18.40
10993,-8.87,-1.84,-4.81,0.25,0.04,-0.05,-28.48,-26.12,-18.40
11004,-8.47,-1.18,-5.38,0.05,0.11,0.06,-28.48,-26.12,-18.40
11015,-8.47,-1.18,-5.38,0.05,0.11,0.06,-28.48,-26.12,-18.40
11027,-8.61,-0.83,-5.51,0.00,0.03,-0.00,-28.48,-26.12,-18.40
11037,-8.61,-0.83,-5.51,0.00,0.03,-0.00,-28.48,-26.12,-18.40
11048,-8.68,-1.20,-5.25,0.03,-0.02,-0.07,-28.48,-26.12,-18.40
11059,-8.68,-1.20,-5.25,0.03,-0.02,-0.07,-28.48,-26.12,-18.40
11070,-8.46,-0.95,-5.54,-0.04,0.00,-0.02,-29.36,-27.03,-18.91
11081,-8.46,-0.95,-5.54,-0.04,0.00,-0.02,-29.36,-27.03,-18.91
11092,-8.36,-0.86,-5.55,0.05,-0.03,0.01,-29.36,-27.03,-18.91
11103,-8.53,-0.88,-5.51,0.13,-0.09,-0.02,-29.36,-27.03,-18.91
11114,-8.53,-0.88,-5.51,0.13,-0.09,-0.02,-29.36,-27.03,-18.91
11125,-8.86,-1.35,-4.90,0.20,-0.14,-0.06,-29.36,-27.03,-18.91
11136,-8.86,-1.35,-4.90,0.20,-0.14,-0.06,-29.36,-27.03,-18.91
11147,-8.77,-1.14,-5.09,0.21,-0.05,0.00,-29.36,-27.03,-18.91
11158,-8.77,-1.14,-5.09,0.21,-0.05,0.00,-29.36,-27.03,-18.91
11169,-8.91,-1.06,-5.05,0.23,-0.01,0.01,-29.36,-27.03,-18.91
11180,-8.91,-1.06,-5.05,0.23,-0.01,0.01,-29.36,-27.03,-18.91
11191,-8.73,-1.42,-4.94,0.20,-0.01,-0.04,-29.36,-27.75,-17.55
11207,-8.62,-1.33,-5.32,0.14,0.01,-0.00,-29.36,-27.75,-17.55
11213,-8.62,-1.33,-5.32,0.14,0.01,-0.00,-29.36,-27.75,-17.55
11224,-8.80,-1.18,-4.99,0.17,-0.00,0.07,-29.36,-27.75,-17.55
11235,-8.80,-1.18,-4.99,0.17,-0.00,0.07,-29.36,-27.75,-17.55
11246,-8.62,-1.17,-5.29,0.17,0.05,0.07,-29.36,-27.75,-17.55
11257,-8.62,-1.17,-5.29,0.17,0.05,0.07,-29.36,-27.75,-17.55
11268,-8.78,-1.61,-4.98,0.15,0.03,-0.01,-29.36,-27.75,-17.55
11279,-8.78,-1.61,-4.98,0.15,0.03,-0.01,-29.36,-27.75,-17.55
11290,-8.52,-1.48,-5.12,0.06,0.05,-0.01,-29.36,-27.75,-17.55
11302,-8.52,-1.48,-5.12,0.06,0.05,-0.01,-29.36,-27.75,-17.55
11312,-8.29,-1.17,-5.49,0.03,0.05,0.00,-28.30,-27.03,-17.55
11323,-8.29,-1.10,-5.62,0.14,-0.01,0.00,-28.30,-27.03,-17.55
11334,-8.29,-1.10,-5.62,0.14,-0.01,0.00,-28.30,-27.03,-17.55
11345,-8.16,-1.05,-5.80,0.21,-0.10,0.00,-28.30,-27.03,-17.55
11356,-8.16,-1.05,-5.80,0.21,-0.10,0.00,-28.30,-27.03,-17.55
11367,-10.52,-1.09,-4.07,0.25,-0.30,-0.01,-28.30,-27.03,-17.55
11378,-10.52,-1.09,-4.07,0.25,-0.30,-0.01,-28.30,-27.03,-17.55
11389,-8.89,-1.65,-4.91,-0.01,-0.01,-0.09,-28.30,-27.03,-17.55
11400,-8.89,-1.65,-4.91,-0.01,-0.01,-0.09,-28.30,-27.03,-17.55
11411,-8.71,-1.18,-6.12,-0.21,-0.04,0.00,-28.30,-27.03,-17.55
11422,-10.09,-1.29,-4.25,-0.24,-0.42,0.05,-29.88,-28.30,-17.72
11433,-10.09,-1.29,-4.25,-0.24,-0.42,0.05,-29.88,-28.30,-17.72
11444,-8.71,-0.99,-5.37,-0.57,-0.41,0.02,-29.88,-28.30,-17.72
11455,-8.71,-0.99,-5.37,-0.57,-0.41,0.02,-29.88,-28.30,-17.72
11466,-8.68,-1.31,-3.68,-0.50,-0.36,-0.03,-29.88,-28.30,-17.72
11477,-8.68,-1.31,-3.68,-0.50,-0.36,-0.03,-29.88,-28.30,-17.72
11488,-8.58,-0.94,-5.20,-0.32,-0.09,-0.06,-29.88,-28.30,-17.72
11499,-8.58,-0.94,-5.20,-0.32,-0.09,-0.06,-29.88,-28.30,-17.72
11510,-8.58,-0.62,-5.25,-0.02,0.01,-0.13,-29.88,-28.30,-17.72
11521,-8.58,-0.62,-5.25,-0.02,0.01,-0.13,-29.88,-28.30,-17.72
11532,-9.00,-0.60,-5.01,0.22,0.11,-0.26,-29.88,-28.30,-17.72
11543,-8.39,-2.07,-4.89,0.35,0.19,-0.39,-29.88,-28.30,-17.72
11554,-8.39,-2.07,-4.89,0.35,0.19,-0.39,-29.88,-28.30,-17.72
11565,-9.11,-2.38,-5.07,0.23,0.15,-0.21,-29.18,-27.93,-17.04
11576,-9.11,-2.38,-5.07,0.23,0.15,-0.21,-29.18,-27.93,-17.04
11587,-9.06,-2.16,-4.48,0.04,0.10,0.07,-29.18,-27.93,-17.04
11598,-9.06,-2.16,-4.48,0.04,0.10,0.07,-29.18,-27.93,-17.04
11609,-8.99,-2.16,-4.58,-0.08,0.15,0.24,-29.18,-27.93,-17.04
11620,-8.99,-2.16,-4.58,-0.08,0.15,0.24,-29.18,-27.93,-17.04
11631,-8.95,-0.70,-5.30,-0.33,0.11,0.29,-29.18,-27.93,-17.04
11642,-9.04,0.14,-4.85,-0.34,0.03,0.20,-29.18,-27.93,-17.04
11658,-9.04,0.14,-4.85,-0.34,0.03,0.20,-29.18,-27.93,-17.04
11664,-7.36,-0.25,-7.07,-0.48,0.04,-0.02,-29.18,-27.93,-17.04
11675,-7.36,-0.25,-7.07,-0.48,0.04,-0.02,-29.18,-27.93,-17.04
11686,-10.14,-0.47,-5.83,-0.09,-0.48,-0.06,-29.18,-26.48,-18.06
11697,-10.14,-0.47,-5.83,-0.09,-0.48,-0.06,-29.18,-26.48,-18.06
11708,-8.91,-1.52,-3.92,-0.08,-0.33,-0.10,-29.18,-26.48,-18.06
11719,-8.91,-1.52,-3.92,-0.08,-0.33,-0.10,-29.18,-26.48,-18.06
11730,-8.88,-1.75,-5.24,-0.34,-0.17,-0.25,-29.18,-26.48,-18.06
11741,-8.88,-1.75,-5.24,-0.34,-0.17,-0.25,-29.18,-26.48,-18.06
11752,-9.01,-1.80,-3.89,-0.14,-0.20,-0.18,-29.18,-26.48,-18.06
11763,-8.46,-1.16,-5.10,-0.14,0.04,-0.08,-29.18,-26.48,-18.06
11775,-8.46,-1.16,-5.10,-0.14,0.04,-0.08,-29.18,-26.48,-18.06
11785,-8.44,-0.69,-5.23,0.03,0.15,-0.02,-29.18,-26.48,-18.06
11796,-8.44,-0.69,-5.23,0.03,0.15,-0.02,-29.18,-26.48,-18.06
11807,-8.55,-0.09,-6.02,0.15,0.25,-0.02,-28.30,-26.67,-17.89
11818,-8.55,-0.09,-6.02,0.15,0.25,-0.02,-28.30,-26.67,-17.89
11829,-9.05,-1.43,-5.18,0.44,0.05,-0.07,-28.30,-26.67,-17.89
11840,-9.05,-1.43,-5.18,0.44,0.05,-0.07,-28.30,-26.67,-17.89
11851,-8.74,-2.27,-4.43,0.29,0.02,0.08,-28.30,-26.67,-17.89
11862,-8.74,-2.27,-4.43,0.29,0.02,0.08,-28.30,-26.67,-17.89
11873,-8.95,-1.81,-4.69,0.00,0.03,0.25,-28.30,-26.67,-17.89
11884,-8.94,-1.06,-4.71,-0.22,-0.07,0.34,-28.30,-26.67,-17.89
11895,-8.94,-1.06,-4.71,-0.22,-0.07,0.34,-28.30,-26.67,-17.89
11906,-8.95,-0.47,-5.04,-0.37,-0.11,0.23,-28.30,-26.67,-17.89
11917,-8.95,-0.47,-5.04,-0.37,-0.11,0.23,-28.30,-26.67,-17.89
11928,-8.99,-1.31,-5.04,-0.40,-0.20,0.01,-28.30,-26.67,-17.89
11939,-8.99,-1.31,-5.04,-0.40,-0.20,0.01,-28.30,-26.67,-17.89
11950,-8.85,-0.62,-4.83,-0.53,-0.27,-0.08,-29.00,-27.03,-17.89
11961,-8.85,-0.62,-4.83,-0.53,-0.27,-0.08,-29.00,-27.03,-17.89
11972,-8.79,-1.01,-4.92,-0.51,-0.22,-0.28,-29.00,-27.03,-17.89
11983,-9.14,-1.94,-4.40,-0.29,-0.10,-0.24,-29.00,-27.03,-17.89
11994,-9.14,-1.94,-4.40,-0.29,-0.10,-0.24,-29.00,-27.03,-17.89
12005,-8.10,-2.11,-4.05,-0.07,0.19,-0.00,-29.00,-27.03,-17.89
12016,-8.10,-2.11,-4.05,-0.07,0.19,-0.00,-29.00,-27.03,-17.89
12027,-9.97,-1.53,-3.64,0.08,0.30,0.08,-29.00,-27.03,-17.89
12038,-9.97,-1.53,-3.64,0.08,0.30,0.08,-29.00,-27.03,-17.89
12049,-8.04,-0.17,-5.24,-0.05,0.66,0.14,-29.00,-27.03,-17.89
12060,-8.04,-0.17,-5.24,-0.05,0.66,0.14,-29.00,-27.03,-17.89
12071,-6.91,0.05,-7.50,-0.08,0.45,-0.03,-31.11,-25.22,-17.55
12082,-6.91,0.05,-7.50,-0.08,0.45,-0.03,-31.11,-25.22,-17.55
12093,-7.94,-0.52,-5.99,0.25,-0.23,-0.03,-31.11,-25.22,-17.55
12104,-9.69,0.61,-4.76,0.19,-0.46,0.04,-31.11,-25.22,-17.55
12115,-9.69,0.61,-4.76,0.19,-0.46,0.04,-31.11,-25.22,-17.55
12126,-9.29,-1.94,-3.08,0.32,-0.42,-0.19,-31.11,-25.22,-17.55
12137,-9.29,-1.94,-3.08,0.32,-0.42,-0.19,-31.11,-25.22,-17.55
12148,-8.82,-2.33,-4.97,-0.32,-0.15,-0.23,-31.11,-25.22,-17.55
12159,-8.82,-2.33,-4.97,-0.32,-0.15,-0.23,-31.11,-25.22,-17.55
12170,-9.19,-1.70,-4.32,-0.42,-0.27,0.04,-31.11,-25.22,-17.55
12181,-9.19,-1.70,-4.32,-0.42,-0.27,0.04,-31.11,-25.22,-17.55
12192,-9.13,-0.92,-4.37,-0.40,-0.18,0.14,-30.76,-27.75,-19.59
12203,-8.61,-0.70,-4.79,-0.22,0.01,0.12,-30.76,-27.75,-19.59
12214,-8.61,-0.70,-4.79,-0.22,0.01,0.12,-30.76,-27.75,-19.59
12225,-8.79,-0.14,-5.09,-0.03,0.19,0.08,-30.76,-27.75,-19.59
12236,-8.79,-0.14,-5.09,-0.03,0.19,0.08,-30.76,-27.75,-19.59
12247,-8.36,-0.19,-5.59,0.30,0.26,-0.05,-30.76,-27.75,-19.59
12258,-8.36,-0.19,-5.59,0.30,0.26,-0.05,-30.76,-27.75,-19.59
12269,-9.03,-0.93,-4.69,0.64,0.24,-0.22,-30.76,-27.75,-19.59
12280,-9.03,-0.93,-4.69,0.64,0.24,-0.22,-30.76,-27.75,-19.59
12291,-8.95,-1.15,-5.69,0.29,0.23,-0.30,-30.76,-27.75,-19.59
12302,-8.95,-1.15,-5.69,0.29,0.23,-0.30,-30.76,-27.75,-19.59
12313,-8.94,-1.77,-4.93,0.04,-0.09,-0.26,-30.76,-27.75,-19.59
12324,-9.22,-1.34,-4.56,-0.35,-0.23,-0.12,-28.13,-26.12,-18.74
12335,-9.22,-1.34,-4.56,-0.35,-0.23,-0.12,-28.13,-26.12,-18.74
12346,-8.97,-1.14,-5.00,-0.52,-0.24,-0.06,-28.13,-26.12,-18.74
12357,-8.97,-1.14,-5.00,-0.52,-0.24,-0.06,-28.13,-26.12,-18.74
12368,-8.96,-0.94,-4.84,-0.41,-0.23,0.01,-28.13,-26.12,-18.74
12379,-8.96,-0.94,-4.84,-0.41,-0.23,0.01,-28.13,-26.12,-18.74
12390,-8.81,-1.08,-4.86,-0.28,-0.18,0.07,-28.13,-26.12,-18.74
12401,-8.81,-1.08,-4.86,-0.28,-0.18,0.07,-28.13,-26.12,-18.74
12412,-8.98,-0.92,-4.52,-0.17,-0.09,0.08,-28.13,-26.12,-18.74
12423,-8.81,-0.90,-4.65,-0.14,0.00,-0.03,-28.13,-26.12,-18.74
12434,-8.81,-0.90,-4.65,-0.14,0.00,-0.03,-28.13,-26.12,-18.74
12445,-8.78,-0.64,-5.18,-0.10,-0.01,-0.13,-29.18,-25.03,-18.74
12456,-8.78,-0.64,-5.18,-0.10,-0.01,-0.13,-29.18,-25.03,-18.74
12467,-8.89,-1.31,-4.33,0.03,-0.07,-0.29,-29.18,-25.03,-18.74
12478,-8.89,-1.31,-4.33,0.03,-0.07,-0.29,-29.18,-25.03,-18.74
12489,-8.18,-1.51,-5.42,0.04,0.06,-0.30,-29.18,-25.03,-18.74
12500,-8.18,-1.51,-5.42,0.04,0.06,-0.30,-29.18,-25.03,-18.74
12511,-8.98,-1.19,-4.81,0.11,0.02,-0.21,-29.18,-25.03,-18.74
12522,-8.98,-1.19,-4.81,0.11,0.02,-0.21,-29.18,-25.03,-18.74
12533,-8.71,-0.73,-5.23,0.06,0.11,-0.11,-29.18,-25.03,-18.74
12544,-8.76,-0.50,-5.63,0.12,0.05,-0.02,-29.18,-25.03,-18.74
12555,-8.76,-0.50,-5.63,0.12,0.05,-0.02,-29.18,-25.03,-18.74
12566,-9.68,-1.27,-3.95,0.33,-0.10,0.06,-29.71,-27.03,-18.91
12577,-9.68,-1.27,-3.95,0.33,-0.10,0.06,-29.71,-27.03,-18.91
12588,-8.91,-1.66,-4.40,0.21,0.06,0.17,-29.71,-27.03,-18.91
12599,-8.91,-1.66,-4.40,0.21,0.06,0.17,-29.71,-27.03,-18.91
12610,-8.99,-1.00,-4.71,0.08,0.10,0.33,-29.71,-27.03,-18.91
12621,-8.99,-1.00,-4.71,0.08,0.10,0.33,-29.71,-27.03,-18.91
12632,-9.09,-1.26,-5.38,-0.02,0.05,0.26,-29.71,-27.03,-18.91
12643,-9.06,-1.38,-4.75,-0.21,-0.12,0.19,-29.71,-27.03,-18.91
12654,-9.06,-1.38,-4.75,-0.21,-0.12,0.19,-29.71,-27.03,-18.91
12665,-8.85,-1.23,-4.92,-0.46,-0.21,0.15,-29.71,-27.03,-18.91
12676,-8.85,-1.23,-4.92,-0.46,-0.21,0.15,-29.71,-27.03,-18.91
12687,-8.89,-0.47,-4.95,-0.55,-0.25,0.09,-29.71,-27.03,-18.91
12698,-8.89,-0.47,-4.95,-0.55,-0.25,0.09,-29.71,-27.03,-18.91
12709,-8.68,-0.78,-4.78,-0.44,-0.21,-0.08,-29.71,-27.03,-18.91
12720,-8.68,-0.78,-4.78,-0.44,-0.21,-0.08,-29.71,-27.03,-18.91
12736,-8.96,-0.85,-4.26,-0.18,-0.05,-0.11,-29.71,-27.03,-18.91
12742,-8.96,-0.85,-4.26,-0.18,-0.05,-0.11,-29.71,-27.03,-18.91
12753,-8.67,-0.18,-5.18,0.03,0.18,-0.10,-29.71,-27.03,-18.91
12764,-8.83,-0.58,-5.10,0.35,0.23,-0.21,-29.71,-27.03,-18.91
12775,-8.83,-0.58,-5.10,0.35,0.23,-0.21,-29.71,-27.03,-18.91
12786,-9.01,-1.41,-5.40,0.38,0.18,-0.17,-29.71,-27.03,-18.91
12797,-9.01,-1.41,-5.40,0.38,0.18,-0.17,-29.71,-27.03,-18.91
12808,-9.07,-1.22,-4.69,0.10,-0.04,-0.00,-29.71,-27.03,-18.91
12819,-9.07,-1.22,-4.69,0.10,-0.04,-0.00,-29.71,-27.03,-18.91
12830,-9.14,-1.19,-4.14,-0.12,-0.09,0.05,-30.41,-25.22,-18.23
12841,-9.14,-1.19,-4.14,-0.12,-0.09,0.05,-30.41,-25.22,-18.23
12852,-9.11,-1.25,-5.08,-0.32,-0.07,0.06,-30.41,-25.22,-18.23
12863,-8.94,-0.58,-4.59,-0.42,-0.20,0.09,-30.41,-25.22,-18.23
12874,-8.94,-0.58,-4.59,-0.42,-0.20,0.09,-30.41,-25.22,-18.23
12885,-8.99,-0.19,-4.98,-0.37,-0.18,0.04,-30.41,-25.22,-18.23
12896,-8.99,-0.19,-4.98,-0.37,-0.18,0.04,-30.41,-25.22,-18.23
12907,-9.20,-1.06,-3.93,-0.28,-0.17,-0.12,-30.41,-25.22,-18.23
12918,-9.20,-1.06,-3.93,-0.28,-0.17,-0.12,-30.41,-25.22,-18.23
12929,-8.74,-1.49,-4.89,-0.25,-0.00,-0.20,-30.41,-25.22,-18.23
12940,-8.74,-1.49,-4.89,-0.25,-0.00,-0.20,-30.41,-25.22,-18.23
12951,-8.57,-1.20,-4.62,-0.11,0.08,-0.12,-29.36,-25.22,-19.25
12962,-8.57,-1.20,-4.62,-0.11,0.08,-0.12,-29.36,-25.22,-19.25
12973,-8.42,-1.10,-5.40,0.03,0.21,-0.01,-29.36,-25.22,-19.25
12984,-8.83,0.16,-5.40,0.12,0.25,0.13,-29.36,-25.22,-19.25
12995,-8.83,0.16,-5.40,0.12,0.25,0.13,-29.36,-25.22,-19.25
13006,-8.67,-0.50,-5.61,0.15,0.11,0.05,-29.36,-25.22,-19.25
13017,-8.67,-0.50,-5.61,0.15,0.11,0.05,-29.36,-25.22,-19.25
13028,-9.41,-1.24,-4.30,0.10,-0.17,0.02,-29.36,-25.22,-19.25
13039,-9.41,-1.24,-4.30,0.10,-0.17,0.02,-29.36,-25.22,-19.25
13050,-9.17,-0.65,-4.09,-0.16,-0.13,0.05,-29.36,-25.22,-19.25
13061,-9.17,-0.65,-4.09,-0.16,-0.13,0.05,-29.36,-25.22,-19.25
13072,-9.10,-0.94,-5.09,-0.28,-0.04,0.02,-28.65,-24.85,-19.59
13083,-9.10,-0.94,-5.09,-0.28,-0.04,0.02,-28.65,-24.85,-19.59
13094,-9.27,-0.38,-4.62,-0.38,-0.18,0.05,-28.65,-24.85,-19.59
13105,-9.02,-0.14,-4.60,-0.45,-0.21,-0.04,-28.65,-24.85,-19.59
13116,-9.02,-0.14,-4.60,-0.45,-0.21,-0.04,-28.65,-24.85,-19.59
13127,-8.83,-1.26,-4.90,-0.39,-0.15,-0.18,-28.65,-24.85,-19.59
13138,-8.83,-1.26,-4.90,-0.39,-0.15,-0.18,-28.65,-24.85,-19.59
13149,-9.25,-1.53,-4.30,-0.32,-0.09,-0.16,-28.65,-24.85,-19.59
13160,-9.25,-1.53,-4.30,-0.32,-0.09,-0.16,-28.65,-24.85,-19.59
13171,-8.81,-1.69,-4.93,-0.21,0.12,-0.03,-28.65,-24.85,-19.59
13182,-8.81,-1.69,-4.93,-0.21,0.12,-0.03,-28.65,-24.85,-19.59
13193,-9.30,-0.13,-5.14,-0.08,0.24,0.19,-28.65,-24.85,-19.59
13204,-9.70,-0.07,-3.30,0.34,0.40,0.29,-30.94,-23.95,-21.12
13215,-9.70,-0.07,-3.30,0.34,0.40,0.29,-30.94,-23.95,-21.12
13226,-7.64,1.17,-6.31,0.21,0.88,0.12,-30.94,-23.95,-21.12
13237,-7.64,1.17,-6.31,0.21,0.88,0.12,-30.94,-23.95,-21.12
13248,-7.68,0.24,-6.97,0.51,0.51,-0.17,-30.94,-23.95,-21.12
13259,-7.68,0.24,-6.97,0.51,0.51,-0.17,-30.94,-23.95,-21.12
13270,-8.24,0.30,-5.95,0.75,-0.02,-0.17,-30.94,-23.95,-21.12
13281,-8.24,0.30,-5.95,0.75,-0.02,-0.17,-30.94,-23.95,-21.12
13292,-11.26,-0.45,-4.09,0.82,-0.40,-0.26,-30.94,-23.95,-21.12
13303,-11.26,-0.45,-4.09,0.82,-0.40,-0.26,-30.94,-23.95,-21.12
13314,-8.50,-2.03,-4.45,0.41,-0.14,-0.42,-30.94,-23.95,-21.12
13325,-9.42,-3.23,-4.08,0.07,-0.08,-0.26,-30.23,-26.85,-18.40
13336,-9.42,-3.23,-4.08,0.07,-0.08,-0.26,-30.23,-26.85,-18.40
13347,-9.33,-2.19,-4.29,-0.06,0.02,0.07,-30.23,-26.85,-18.40
13358,-9.33,-2.19,-4.29,-0.06,0.02,0.07,-30.23,-26.85,-18.40
13369,-8.50,-2.28,-5.28,-0.17,0.15,0.27,-30.23,-26.85,-18.40
13380,-8.50,-2.28,-5.28,-0.17,0.15,0.27,-30.23,-26.85,-18.40
13391,-10.16,-0.94,-2.85,-0.22,0.09,0.46,-30.23,-26.85,-18.40
13402,-10.16,-0.94,-2.85,-0.22,0.09,0.46,-30.23,-26.85,-18.40
13413,-7.97,1.25,-5.87,-0.54,0.57,0.24,-30.23,-26.85,-18.40
13424,-6.88,0.23,-7.33,-0.20,0.48,-0.24,-30.23,-26.85,-18.40
13435,-6.88,0.23,-7.33,-0.20,0.48,-0.24,-30.23,-26.85,-18.40
13446,-7.58,-0.71,-6.61,0.21,-0.01,-0.23,-28.65,-25.94,-20.61
13457,-7.58,-0.71,-6.61,0.21,-0.01,-0.23,-28.65,-25.94,-20.61
13468,-8.35,0.46,-6.24,0.15,-0.33,-0.03,-28.65,-25.94,-20.61
13479,-8.35,0.46,-6.24,0.15,-0.33,-0.03,-28.65,-25.94,-20.61
13490,-11.03,-1.77,-1.93,0.53,-0.63,-0.18,-28.65,-25.94,-20.61
13501,-11.03,-1.77,-1.93,0.53,-0.63,-0.18,-28.65,-25.94,-20.61
13512,-8.52,-1.49,-4.74,-0.00,-0.14,-0.27,-28.65,-25.94,-20.61
13523,-8.52,-1.49,-4.74,-0.00,-0.14,-0.27,-28.65,-25.94,-20.61
13534,-9.95,-2.15,-4.51,-0.20,-0.25,-0.13,-28.65,-25.94,-20.61
13545,-8.94,-0.94,-5.14,-0.52,-0.37,0.08,-28.65,-25.94,-20.61
13556,-8.94,-0.94,-5.14,-0.52,-0.37,0.08,-28.65,-25.94,-20.61
13567,-8.96,-0.79,-4.59,-0.60,-0.39,0.14,-28.65,-25.94,-20.61
13578,-8.96,-0.79,-4.59,-0.60,-0.39,0.14,-28.65,-25.94,-20.61
13589,-8.82,-0.27,-4.97,-0.52,-0.31,0.12,-30.58,-23.22,-18.40
13600,-8.82,-0.27,-4.97,-0.52,-0.31,0.12,-30.58,-23.22,-18.40
13611,-8.98,-0.46,-4.49,-0.29,-0.22,0.01,-30.58,-23.22,-18.40
13622,-8.98,-0.46,-4.49,-0.29,-0.22,0.01,-30.58,-23.22,-18.40
13633,-8.67,-1.25,-4.61,-0.05,0.00,-0.05,-30.58,-23.22,-18.40
13644,-9.25,-0.92,-4.71,0.16,0.07,0.00,-30.58,-23.22,-18.40
13655,-9.25,-0.92,-4.71,0.16,0.07,0.00,-30.58,-23.22,-18.40
13666,-9.72,-0.41,-3.68,0.32,0.24,0.11,-30.58,-23.22,-18.40
13677,-9.72,-0.41,-3.68,0.32,0.24,0.11,-30.58,-23.22,-18.40
13688,-8.11,-0.57,-5.36,0.20,0.58,-0.02,-30.58,-23.22,-18.40
13699,-8.11,-0.57,-5.36,0.20,0.58,-0.02,-30.58,-23.22,-18.40
13710,-8.14,-0.95,-5.94,0.37,0.43,-0.10,-28.48,-25.76,-20.10
13721,-8.14,-0.95,-5.94,0.37,0.43,-0.10,-28.48,-25.76,-20.10
13732,-8.27,-0.68,-5.77,0.36,0.10,-0.05,-28.48,-25.76,-20.10
13743,-8.27,-0.68,-5.77,0.36,0.10,-0.05,-28.48,-25.76,-20.10
13754,-8.14,-0.80,-5.88,0.26,-0.22,-0.06,-28.48,-25.76,-20.10
13765,-10.30,-1.80,-2.61,0.28,-0.43,-0.03,-28.48,-25.76,-20.10
13776,-10.30,-1.80,-2.61,0.28,-0.43,-0.03,-28.48,-25.76,-20.10
13787,-8.12,-0.74,-5.80,-0.34,-0.02,-0.17,-28.48,-25.76,-20.10
13798,-8.12,-0.74,-5.80,-0.34,-0.02,-0.17,-28.48,-25.76,-20.10
13809,-9.47,-2.34,-3.77,-0.23,-0.25,-0.22,-28.48,-25.76,-20.10
13820,-9.47,-2.34,-3.77,-0.23,-0.25,-0.22,-28.48,-25.76,-20.10
13831,-9.14,-1.45,-4.71,-0.42,-0.11,-0.05,-30.06,-24.85,-18.57
13842,-9.14,-1.45,-4.71,-0.42,-0.11,-0.05,-30.06,-24.85,-18.57
13853,-9.58,-2.38,-3.75,-0.24,0.07,0.13,-30.06,-24.85,-18.57
13864,-10.06,-2.20,-4.06,-0.20,0.23,0.38,-30.06,-24.85,-18.57
13875,-10.06,-2.20,-4.06,-0.20,0.23,0.38,-30.06,-24.85,-18.57
13886,-9.51,-0.85,-3.27,-0.24,0.52,0.65,-30.06,-24.85,-18.57
13897,-9.51,-0.85,-3.27,-0.24,0.52,0.65,-30.06,-24.85,-18.57
13908,-7.29,2.04,-7.11,-0.40,0.60,0.18,-30.06,-24.85,-18.57
13919,-7.29,2.04,-7.11,-0.40,0.60,0.18,-30.06,-24.85,-18.57
13930,-8.20,-1.25,-4.90,0.46,-0.12,-0.59,-30.06,-24.85,-18.57
13941,-8.20,-1.25,-4.90,0.46,-0.12,-0.59,-30.06,-24.85,-18.57
13952,-9.00,-2.63,-4.69,0.38,-0.25,-0.50,-30.06,-24.85,-18.57
13963,-9.00,-2.63,-4.69,0.38,-0.25,-0.50,-30.06,-24.85,-18.57
13974,-9.14,-0.92,-4.94,-0.01,-0.09,0.07,-28.65,-24.49,-20.27
13985,-8.64,1.40,-5.58,-0.28,0.19,0.46,-28.65,-24.49,-20.27
13996,-8.64,1.40,-5.58,-0.28,0.19,0.46,-28.65,-24.49,-20.27
14007,-7.89,2.94,-7.22,-0.02,0.29,0.45,-28.65,-24.49,-20.27
14018,-7.89,2.94,-7.22,-0.02,0.29,0.45,-28.65,-24.49,-20.27
14029,-8.33,2.24,-6.09,0.46,-0.00,0.06,-28.65,-24.49,-20.27
14040,-8.33,2.24,-6.09,0.46,-0.00,0.06,-28.65,-24.49,-20.27
14051,-9.11,-0.37,-5.21,1.01,-0.18,-0.31,-28.65,-24.49,-20.27
14062,-9.11,-0.37,-5.21,1.01,-0.18,-0.31,-28.65,-24.49,-20.27
14073,-9.11,-2.79,-4.15,0.91,-0.11,-0.31,-28.65,-24.49,-20.27
14084,-9.11,-2.79,-4.15,0.91,-0.11,-0.31,-28.65,-24.49,-20.27
14095,-9.10,-2.76,-3.98,0.53,-0.00,-0.11,-27.95,-25.22,-18.57
14106,-9.11,-2.45,-4.36,0.27,0.08,-0.05,-27.95,-25.22,-18.57
14117,-9.11,-2.45,-4.36,0.27,0.08,-0.05,-27.95,-25.22,-18.57
14128,-8.87,-2.15,-4.58,0.07,0.16,0.07,-27.95,-25.22,-18.57
14139,-8.87,-2.15,-4.58,0.07,0.16,0.07,-27.95,-25.22,-18.57
14150,-8.63,-0.48,-5.50,-0.16,0.21,0.20,-27.95,-25.22,-18.57
14161,-8.63,-0.48,-5.50,-0.16,0.21,0.20,-27.95,-25.22,-18.57
14172,-8.43,-0.06,-5.82,-0.13,0.08,0.07,-27.95,-25.22,-18.57
14183,-8.43,-0.06,-5.82,-0.13,0.08,0.07,-27.95,-25.22,-18.57
14194,-8.32,-0.60,-5.47,0.05,-0.11,-0.10,-27.95,-25.22,-18.57
14205,-9.96,-0.86,-5.00,0.08,-0.24,-0.18,-29.18,-27.21,-18.06
14216,-9.96,-0.86,-5.00,0.08,-0.24,-0.18,-29.18,-27.21,-18.06
14227,-9.00,-1.37,-4.58,-0.03,-0.06,-0.11,-29.18,-27.21,-18.06
14238,-9.00,-1.37,-4.58,-0.03,-0.06,-0.11,-29.18,-27.21,-18.06
14249,-8.69,-1.14,-5.31,-0.08,0.07,0.02,-29.18,-27.21,-18.06
14260,-8.69,-1.14,-5.31,-0.08,0.07,0.02,-29.18,-27.21,-18.06
14271,-8.97,-1.05,-4.50,0.12,-0.01,0.10,-29.18,-27.21,-18.06
14282,-8.97,-1.05,-4.50,0.12,-0.01,0.10,-29.18,-27.21,-18.06
14293,-8.88,-1.23,-4.92,0.12,0.08,0.18,-29.18,-27.21,-18.06
14304,-8.88,-1.23,-4.92,0.12,0.08,0.18,-29.18,-27.21,-18.06
14315,-8.94,-0.43,-5.38,-0.02,0.06,0.19,-29.18,-27.21,-18.06
14326,-8.84,-1.43,-5.04,-0.02,-0.10,-0.03,-28.13,-26.12,-18.40
14337,-8.84,-1.43,-5.04,-0.02,-0.10,-0.03,-28.13,-26.12,-18.40
14348,-9.10,-1.10,-5.09,-0.29,-0.19,-0.08,-28.13,-26.12,-18.40
14359,-9.10,-1.10,-5.09,-0.29,-0.19,-0.08,-28.13,-26.12,-18.40
14370,-9.09,-1.10,-4.61,-0.53,-0.28,-0.17,-28.13,-26.12,-18.40
14381,-9.09,-1.10,-4.61,-0.53,-0.28,-0.17,-28.13,-26.12,-18.40
14392,-8.74,-1.09,-5.26,-0.58,-0.26,-0.18,-28.13,-26.12,-18.40
14403,-8.74,-1.09,-5.26,-0.58,-0.26,-0.18,-28.13,-26.12,-18.40
14414,-8.80,-0.79,-4.77,-0.37,-0.25,-0.01,-28.13,-26.12,-18.40
14425,-8.52,-0.74,-5.29,-0.07,-0.13,0.17,-28.13,-26.12,-18.40
14436,-8.52,-0.74,-5.29,-0.07,-0.13,0.17,-28.13,-26.12,-18.40
14447,-8.87,-0.18,-4.75,0.22,-0.04,0.21,-28.13,-26.12,-18.40
14458,-8.87,-0.18,-4.75,0.22,-0.04,0.21,-28.13,-26.12,-18.40
14469,-8.71,-0.85,-4.30,0.42,0.10,0.12,-29.00,-25.22,-18.91
14480,-8.71,-0.85,-4.30,0.42,0.10,0.12,-29.00,-25.22,-18.91
14491,-9.03,-1.01,-4.89,0.37,0.24,0.07,-29.00,-25.22,-18.91
14502,-9.03,-1.01,-4.89,0.37,0.24,0.07,-29.00,-25.22,-18.91
14513,-9.15,-1.39,-4.98,0.23,0.13,-0.02,-29.00,-25.22,-18.91
14524,-9.15,-1.39,-4.98,0.23,0.13,-0.02,-29.00,-25.22,-18.91
14535,-8.87,-1.95,-4.81,0.03,0.07,-0.02,-29.00,-25.22,-18.91
14546,-9.76,0.02,-4.45,-0.28,0.01,-0.01,-29.00,-25.22,-18.91
14557,-9.76,0.02,-4.45,-0.28,0.01,-0.01,-29.00,-25.22,-18.91
14568,-8.69,-0.93,-4.56,-0.25,0.17,-0.25,-29.00,-25.22,-18.91
14579,-8.69,-0.93,-4.56,-0.25,0.17,-0.25,-29.00,-25.22,-18.91
14590,-7.75,-0.55,-6.27,-0.26,0.34,-0.25,-27.95,-26.67,-19.25
14601,-7.75,-0.55,-6.27,-0.26,0.34,-0.25,-27.95,-26.67,-19.25
14612,-7.75,-0.58,-6.17,0.08,0.08,-0.19,-27.95,-26.67,-19.25
14623,-7.75,-0.58,-6.17,0.08,0.08,-0.19,-27.95,-26.67,-19.25
14634,-8.54,-0.26,-5.96,0.16,-0.22,-0.06,-27.95,-26.67,-19.25
14645,-9.42,-1.43,-3.24,0.24,-0.38,-0.07,-27.95,-26.67,-19.25
14656,-9.42,-1.43,-3.24,0.24,-0.38,-0.07,-27.95,-26.67,-19.25
14667,-8.89,-1.08,-5.06,-0.22,-0.06,-0.15,-27.95,-26.67,-19.25
14678,-8.89,-1.08,-5.06,-0.22,-0.06,-0.15,-27.95,-26.67,-19.25
14689,-9.19,-1.42,-4.12,-0.16,-0.19,-0.10,-27.95,-26.67,-19.25
14700,-9.19,-1.42,-4.12,-0.16,-0.19,-0.10,-27.95,-26.67,-19.25
14711,-9.15,-1.45,-4.82,-0.36,-0.16,-0.00,-29.18,-26.48,-18.74
14722,-9.15,-1.45,-4.82,-0.36,-0.16,-0.00,-29.18,-26.48,-18.74
14733,-8.72,-1.58,-4.87,-0.45,-0.20,0.11,-29.18,-26.48,-18.74
14744,-8.72,-1.58,-4.87,-0.45,-0.20,0.11,-29.18,-26.48,-18.74
14755,-8.93,-0.69,-4.59,-0.47,-0.20,0.18,-29.18,-26.48,-18.74
14766,-8.86,-0.68,-4.89,-0.40,-0.11,0.05,-29.18,-26.48,-18.74
14777,-8.86,-0.68,-4.89,-0.40,-0.11,0.05,-29.18,-26.48,-18.74
14788,-8.84,-0.87,-4.75,-0.27,-0.04,-0.08,-29.18,-26.48,-18.74
14804,-8.84,-0.87,-4.75,-0.27,-0.04,-0.08,-29.18,-26.48,-18.74
14810,-8.63,-0.68,-4.93,-0.11,0.04,-0.10,-29.18,-26.48,-18.74
14821,-8.63,-0.68,-4.93,-0.11,0.04,-0.10,-29.18,-26.48,-18.74
14832,-8.57,-0.49,-4.68,0.08,0.15,-0.09,-29.18,-26.48,-18.74
14843,-8.57,-0.49,-4.68,0.08,0.15,-0.09,-29.18,-26.48,-18.74
14854,-8.61,-0.44,-5.36,0.20,0.24,-0.07,-29.88,-25.03,-19.76
14865,-8.80,-0.57,-5.57,0.26,0.12,-0.07,-29.88,-25.03,-19.76
14876,-8.80,-0.57,-5.57,0.26,0.12,-0.07,-29.88,-25.03,-19.76
14887,-9.31,-1.39,-4.48,0.23,-0.07,-0.03,-29.88,-25.03,-19.76
14898,-9.31,-1.39,-4.48,0.23,-0.07,-0.03,-29.88,-25.03,-19.76
14909,-9.18,-0.72,-4.37,-0.05,-0.07,0.06,-29.88,-25.03,-19.76
14920,-9.18,-0.72,-4.37,-0.05,-0.07,0.06,-29.88,-25.03,-19.76
14931,-9.13,-0.94,-4.64,-0.16,-0.03,0.02,-29.88,-25.03,-19.76
14942,-9.13,-0.94,-4.64,-0.16,-0.03,0.02,-29.88,-25.03,-19.76
14953,-9.17,-0.78,-5.12,-0.32,-0.10,0.04,-29.88,-25.03,-19.76
14964,-9.17,-0.78,-5.12,-0.32,-0.10,0.04,-29.88,-25.03,-19.76
14975,-9.06,-0.45,-4.89,-0.44,-0.21,0.01,-29.71,-24.49,-18.91
14986,-8.71,-0.50,-5.07,-0.42,-0.21,-0.03,-29.71,-24.49,-18.91
14997,-8.71,-0.50,-5.07,-0.42,-0.21,-0.03,-29.71,-24.49,-18.91
15008,-8.88,-1.24,-4.48,-0.24,-0.15,-0.04,-29.71,-24.49,-18.91
15019,-8.88,-1.24,-4.48,-0.24,-0.15,-0.04,-29.71,-24.49,-18.91
15030,-9.39,-1.28,-4.12,-0.12,0.02,0.02,-29.71,-24.49,-18.91
15041,-9.39,-1.28,-4.12,-0.12,0.02,0.02,-29.71,-24.49,-18.91
15052,-8.27,-1.12,-5.60,-0.16,0.18,0.07,-29.71,-24.49,-18.91
15063,-8.27,-1.12,-5.60,-0.16,0.18,0.07,-29.71,-24.49,-18.91
15074,-9.63,-1.19,-3.28,0.09,0.09,0.16,-29.71,-24.49,-18.91
15085,-9.63,-1.19,-3.28,0.09,0.09,0.16,-29.71,-24.49,-18.91
15096,-8.20,0.14,-5.30,-0.07,0.50,0.12,-30.06,-24.13,-19.25
15107,-7.70,0.18,-6.66,0.17,0.44,-0.08,-30.06,-24.13,-19.25
15118,-7.70,0.18,-6.66,0.17,0.44,-0.08,-30.06,-24.13,-19.25
15129,-8.26,-0.39,-6.00,0.41,0.00,-0.10,-30.06,-24.13,-19.25
15140,-8.26,-0.39,-6.00,0.41,0.00,-0.10,-30.06,-24.13,-19.25
15151,-10.65,-0.49,-3.54,0.36,-0.34,-0.05,-30.06,-24.13,-19.25
15162,-10.65,-0.49,-3.54,0.36,-0.34,-0.05,-30.06,-24.13,-19.25
15173,-8.89,-1.15,-4.26,0.02,-0.12,-0.16,-30.06,-24.13,-19.25
15184,-8.89,-1.15,-4.26,0.02,-0.12,-0.16,-30.06,-24.13,-19.25
15195,-9.34,-1.38,-5.00,-0.23,-0.16,-0.10,-30.06,-24.13,-19.25
15206,-9.14,-0.82,-4.37,-0.38,-0.28,0.01,-30.06,-24.13,-19.25
15217,-9.14,-0.82,-4.37,-0.38,-0.28,0.01,-30.06,-24.13,-19.25
15228,-8.99,-0.45,-4.67,-0.34,-0.17,0.05,-29.18,-24.67,-18.74
15239,-8.99,-0.45,-4.67,-0.34,-0.17,0.05,-29.18,-24.67,-18.74
15250,-8.86,-0.63,-4.84,-0.10,-0.00,0.02,-29.18,-24.67,-18.74
15261,-8.86,-0.63,-4.84,-0.10,-0.00,0.02,-29.18,-24.67,-18.74
15272,-8.51,-0.22,-5.32,0.00,0.16,0.02,-29.18,-24.67,-18.74
15283,-8.51,-0.22,-5.32,0.00,0.16,0.02,-29.18,-24.67,-18.74
15294,-8.67,-0.49,-4.88,0.34,0.15,-0.07,-29.18,-24.67,-18.74
15305,-8.67,-0.49,-4.88,0.34,0.15,-0.07,-29.18,-24.67,-18.74
15316,-8.93,-0.68,-4.72,0.40,0.24,-0.15,-29.18,-24.67,-18.74
15327,-8.67,-0.81,-5.51,0.21,0.24,-0.24,-29.18,-24.67,-18.74
15338,-8.67,-0.81,-5.51,0.21,0.24,-0.24,-29.18,-24.67,-18.74
15349,-9.06,-1.98,-4.60,0.13,-0.06,-0.31,-29.36,-25.22,-19.59
15360,-9.06,-1.98,-4.60,0.13,-0.06,-0.31,-29.36,-25.22,-19.59
15371,-8.93,-1.73,-4.69,-0.25,-0.12,-0.17,-29.36,-25.22,-19.59
15382,-8.93,-1.73,-4.69,-0.25,-0.12,-0.17,-29.36,-25.22,-19.59
15393,-9.55,-1.45,-4.28,-0.38,-0.06,-0.04,-29.36,-25.22,-19.59
15404,-9.55,-1.45,-4.28,-0.38,-0.06,-0.04,-29.36,-25.22,-19.59
15415,-8.85,-2.17,-4.89,-0.15,0.14,0.18,-29.36,-25.22,-19.59
15426,-10.23,-3.07,-3.47,-0.03,0.15,0.50,-29.36,-25.22,-19.59
15437,-10.23,-3.07,-3.47,-0.03,0.15,0.50,-29.36,-25.22,-19.59
15448,-9.54,-1.25,-3.79,-0.25,0.49,0.88,-29.36,-25.22,-19.59
15459,-9.54,-1.25,-3.79,-0.25,0.49,0.88,-29.36,-25.22,-19.59
15470,-7.48,4.07,-8.45,-0.63,0.61,0.62,-29.36,-23.04,-19.93
15481,-7.48,4.07,-8.45,-0.63,0.61,0.62,-29.36,-23.04,-19.93
15492,-8.60,-0.00,-4.55,0.38,-0.25,-0.45,-29.36,-23.04,-19.93
15503,-8.60,-0.00,-4.55,0.38,-0.25,-0.45,-29.36,-23.04,-19.93
15514,-9.10,-2.55,-4.51,0.46,-0.33,-0.70,-29.36,-23.04,-19.93
15525,-9.10,-2.55,-4.51,0.46,-0.33,-0.70,-29.36,-23.04,-19.93
15536,-9.01,-1.71,-4.62,0.00,-0.15,-0.24,-29.36,-23.04,-19.93
15547,-8.69,0.36,-5.27,-0.33,0.10,0.20,-29.36,-23.04,-19.93
15558,-8.69,0.36,-5.27,-0.33,0.10,0.20,-29.36,-23.04,-19.93
15569,-8.37,2.15,-6.56,-0.29,0.24,0.33,-29.36,-23.04,-19.93
15580,-8.37,2.15,-6.56,-0.29,0.24,0.33,-29.36,-23.04,-19.93
15591,-8.59,2.75,-6.36,0.12,0.15,0.22,-29.36,-23.04,-19.93
15602,-8.59,2.75,-6.36,0.12,0.15,0.22,-29.36,-23.04,-19.93
15613,-8.65,1.23,-5.52,0.59,0.05,-0.08,-28.13,-23.59,-19.76
15624,-8.65,1.23,-5.52,0.59,0.05,-0.08,-28.13,-23.59,-19.76
15635,-8.71,-1.68,-4.41,0.97,-0.02,-0.30,-28.13,-23.59,-19.76
15646,-8.92,-2.21,-4.64,0.76,0.03,-0.16,-28.13,-23.59,-19.76
15657,-8.92,-2.21,-4.64,0.76,0.03,-0.16,-28.13,-23.59,-19.76
15668,-8.89,-2.34,-4.59,0.56,0.07,0.05,-28.13,-23.59,-19.76
15679,-8.89,-2.34,-4.59,0.56,0.07,0.05,-28.13,-23.59,-19.76
15690,-8.72,-1.54,-5.22,0.31,0.06,0.20,-28.13,-23.59,-19.76
15701,-8.72,-1.54,-5.22,0.31,0.06,0.20,-28.13,-23.59,-19.76
15712,-8.50,-1.09,-5.26,0.14,-0.08,0.15,-28.13,-23.59,-19.76
15723,-8.50,-1.09,-5.26,0.14,-0.08,0.15,-28.13,-23.59,-19.76
15734,-9.58,-0.94,-5.01,0.00,-0.24,0.11,-29.00,-25.94,-19.59
15745,-9.58,-0.94,-5.01,0.00,-0.24,0.11,-29.00,-25.94,-19.59
15756,-9.13,-1.25,-4.48,-0.22,-0.15,0.16,-29.00,-25.94,-19.59
15767,-8.52,-0.17,-6.03,-0.48,-0.11,0.07,-29.00,-25.94,-19.59
15778,-8.52,-0.17,-6.03,-0.48,-0.11,0.07,-29.00,-25.94,-19.59
15789,-9.31,-0.79,-3.98,-0.21,-0.28,-0.07,-29.00,-25.94,-19.59
15800,-9.31,-0.79,-3.98,-0.21,-0.28,-0.07,-29.00,-25.94,-19.59
15811,-8.55,-0.32,-5.06,-0.21,-0.04,-0.16,-29.00,-25.94,-19.59
15822,-8.55,-0.32,-5.06,-0.21,-0.04,-0.16,-29.00,-25.94,-19.59
15833,-8.69,-0.21,-4.80,0.10,0.07,-0.25,-29.00,-25.94,-19.59
15844,-8.69,-0.21,-4.80,0.10,0.07,-0.25,-29.00,-25.94,-19.59
15855,-8.51,0.03,-5.52,0.36,0.21,-0.28,-29.71,-24.49,-18.23
15866,-8.80,-1.09,-4.95,0.60,0.23,-0.29,-29.71,-24.49,-18.23
15877,-8.80,-1.09,-4.95,0.60,0.23,-0.29,-29.71,-24.49,-18.23
15888,-9.55,-1.05,-5.04,0.49,0.21,-0.16,-29.71,-24.49,-18.23
15899,-9.55,-1.05,-5.04,0.49,0.21,-0.16,-29.71,-24.49,-18.23
15910,-8.90,-1.74,-4.88,0.25,0.09,-0.03,-29.71,-24.49,-18.23
15921,-8.90,-1.74,-4.88,0.25,0.09,-0.03,-29.71,-24.49,-18.23
15932,-9.03,-2.14,-4.76,-0.00,0.02,0.14,-29.71,-24.49,-18.23
15943,-9.03,-2.14,-4.76,-0.00,0.02,0.14,-29.71,-24.49,-18.23
15954,-8.81,-1.07,-5.33,-0.33,-0.11,0.35,-29.71,-24.49,-18.23
15965,-8.81,-1.07,-5.33,-0.33,-0.11,0.35,-29.71,-24.49,-18.23
15976,-9.13,-0.23,-5.32,-0.49,-0.27,0.34,-29.36,-25.22,-19.25
15987,-8.91,-0.33,-4.85,-0.52,-0.38,0.18,-29.36,-25.22,-19.25
15998,-8.91,-0.33,-4.85,-0.52,-0.38,0.18,-29.36,-25.22,-19.25
16009,-8.69,-0.38,-4.85,-0.54,-0.37,0.04,-29.36,-25.22,-19.25
16020,-8.69,-0.38,-4.85,-0.54,-0.37,0.04,-29.36,-25.22,-19.25
16031,-8.90,-0.64,-4.37,-0.43,-0.27,-0.09,-29.36,-25.22,-19.25
16042,-8.90,-0.64,-4.37,-0.43,-0.27,-0.09,-29.36,-25.22,-19.25
16053,-8.78,-1.10,-4.71,-0.32,-0.12,-0.19,-29.36,-25.22,-19.25
16064,-8.78,-1.10,-4.71,-0.32,-0.12,-0.19,-29.36,-25.22,-19.25
16075,-8.80,-1.12,-4.65,-0.24,-0.03,-0.19,-29.36,-25.22,-19.25
16086,-8.52,-0.61,-5.12,-0.11,0.08,-0.18,-29.36,-25.22,-19.25
16097,-8.52,-0.61,-5.12,-0.11,0.08,-0.18,-29.36,-25.22,-19.25
16108,-8.68,-0.31,-5.34,0.12,0.14,-0.24,-30.41,-25.22,-19.25
16119,-8.68,-0.31,-5.34,0.12,0.14,-0.24,-30.41,-25.22,-19.25
16130,-8.60,-0.10,-5.10,0.32,0.17,-0.26,-30.41,-25.22,-19.25
16141,-8.60,-0.10,-5.10,0.32,0.17,-0.26,-30.41,-25.22,-19.25
16152,-9.11,-1.47,-4.95,0.39,0.13,-0.20,-30.41,-25.22,-19.25
16163,-9.11,-1.47,-4.95,0.39,0.13,-0.20,-30.41,-25.22,-19.25
16174,-9.13,-1.10,-4.49,0.16,0.04,-0.01,-30.41,-25.22,-19.25
16185,-9.13,-1.10,-4.49,0.16,0.04,-0.01,-30.41,-25.22,-19.25
16196,-9.02,-1.47,-4.30,0.05,0.03,0.08,-30.41,-25.22,-19.25
16207,-9.10,-1.28,-5.21,-0.13,0.05,0.21,-30.41,-25.22,-19.25
16218,-9.10,-1.28,-5.21,-0.13,0.05,0.21,-30.41,-25.22,-19.25
16229,-9.05,-0.45,-5.08,-0.36,-0.10,0.28,-29.53,-25.03,-19.76
16240,-9.05,-0.45,-5.08,-0.36,-0.10,0.28,-29.53,-25.03,-19.76
16251,-8.99,-0.42,-4.70,-0.43,-0.26,0.21,-29.53,-25.03,-19.76
16262,-8.99,-0.42,-4.70,-0.43,-0.26,0.21,-29.53,-25.03,-19.76
16273,-9.01,-0.29,-4.53,-0.45,-0.26,0.06,-29.53,-25.03,-19.76
16284,-9.01,-0.29,-4.53,-0.45,-0.26,0.06,-29.53,-25.03,-19.76
16295,-8.89,-0.45,-4.81,-0.41,-0.17,-0.09,-29.53,-25.03,-19.76
16306,-8.89,-0.45,-4.81,-0.41,-0.17,-0.09,-29.53,-25.03,-19.76
16317,-8.84,-0.98,-4.63,-0.27,-0.11,-0.23,-29.53,-25.03,-19.76
16328,-8.67,-0.41,-4.71,-0.05,0.06,-0.21,-29.53,-25.03,-19.76
16339,-8.67,-0.41,-4.71,-0.05,0.06,-0.21,-29.53,-25.03,-19.76
16350,-8.68,-0.57,-5.18,0.17,0.20,-0.27,-29.71,-24.85,-18.57
16361,-8.68,-0.57,-5.18,0.17,0.20,-0.27,-29.71,-24.85,-18.57
16372,-8.73,-0.28,-5.11,0.27,0.22,-0.23,-29.71,-24.85,-18.57
16383,-8.73,-0.28,-5.11,0.27,0.22,-0.23,-29.71,-24.85,-18.57
16394,-9.14,-1.01,-4.99,0.31,0.12,-0.16,-29.71,-24.85,-18.57
16405,-9.14,-1.01,-4.99,0.31,0.12,-0.16,-29.71,-24.85,-18.57
16416,-9.13,-0.86,-4.11,0.20,0.04,0.01,-29.71,-24.85,-18.57
16427,-8.95,-1.08,-4.98,0.13,0.11,0.05,-29.71,-24.85,-18.57
16438,-8.95,-1.08,-4.98,0.13,0.11,0.05,-29.71,-24.85,-18.57
16449,-9.01,-1.26,-4.72,0.03,0.03,0.08,-29.71,-24.85,-18.57
16460,-9.01,-1.26,-4.72,0.03,0.03,0.08,-29.71,-24.85,-18.57
16471,-9.07,-0.92,-5.12,-0.20,-0.06,0.08,-29.71,-24.85,-18.57
16482,-9.07,-0.92,-5.12,-0.20,-0.06,0.08,-29.71,-24.85,-18.57
16493,-9.10,-0.60,-5.22,-0.39,-0.16,0.05,-29.00,-24.85,-19.59
16504,-9.10,-0.60,-5.22,-0.39,-0.16,0.05,-29.00,-24.85,-19.59
16515,-8.93,-0.51,-4.89,-0.52,-0.22,-0.06,-29.00,-24.85,-19.59
16526,-8.93,-0.51,-4.89,-0.52,-0.22,-0.06,-29.00,-24.85,-19.59
16537,-8.89,-0.29,-4.77,-0.46,-0.23,-0.12,-29.00,-24.85,-19.59
16548,-8.72,-0.92,-4.67,-0.22,-0.21,-0.13,-29.00,-24.85,-19.59
16559,-8.72,-0.92,-4.67,-0.22,-0.21,-0.13,-29.00,-24.85,-19.59
16570,-8.93,-0.22,-4.92,-0.01,-0.10,0.02,-29.00,-24.85,-19.59
16581,-8.93,-0.22,-4.92,-0.01,-0.10,0.02,-29.00,-24.85,-19.59
16592,-8.90,-0.95,-4.80,0.24,-0.04,0.02,-29.00,-24.85,-19.59
16603,-8.90,-0.95,-4.80,0.24,-0.04,0.02,-29.00,-24.85,-19.59
16614,-8.92,-1.11,-4.52,0.33,0.01,0.12,-28.83,-24.67,-18.40
16625,-8.92,-1.11,-4.52,0.33,0.01,0.12,-28.83,-24.67,-18.40
16636,-9.15,-1.60,-4.07,0.34,0.11,0.23,-28.83,-24.67,-18.40
16652,-8.97,-1.88,-4.84,0.23,0.26,0.30,-28.83,-24.67,-18.40
16658,-8.97,-1.88,-4.84,0.23,0.26,0.30,-28.83,-24.67,-18.40
16669,-9.91,-0.67,-4.48,0.02,0.18,0.34,-28.83,-24.67,-18.40
16680,-9.91,-0.67,-4.48,0.02,0.18,0.34,-28.83,-24.67,-18.40
16691,-9.40,-0.17,-4.08,-0.05,0.29,0.21,-28.83,-24.67,-18.40
16702,-9.40,-0.17,-4.08,-0.05,0.29,0.21,-28.83,-24.67,-18.40
16713,-8.10,-0.51,-5.69,0.04,0.20,-0.36,-28.83,-24.67,-18.40
16724,-8.10,-0.51,-5.69,0.04,0.20,-0.36,-28.83,-24.67,-18.40
16735,-8.90,-3.03,-3.75,0.29,-0.06,-0.52,-29.71,-23.77,-18.57
16746,-8.90,-3.03,-3.75,0.29,-0.06,-0.52,-29.71,-23.77,-18.57
16757,-9.02,-1.11,-4.69,-0.11,0.15,-0.05,-29.71,-23.77,-18.57
16768,-8.56,1.99,-6.36,-0.38,0.36,0.27,-29.71,-23.77,-18.57
16779,-8.56,1.99,-6.36,-0.38,0.36,0.27,-29.71,-23.77,-18.57
16790,-8.54,2.02,-6.08,0.00,0.29,0.18,-29.71,-23.77,-18.57
16801,-8.54,2.02,-6.08,0.00,0.29,0.18,-29.71,-23.77,-18.57
16812,-8.26,1.95,-6.51,0.26,0.28,0.10,-29.71,-23.77,-18.57
16823,-8.26,1.95,-6.51,0.26,0.28,0.10,-29.71,-23.77,-18.57
16834,-8.27,1.21,-6.01,0.52,0.09,-0.10,-29.71,-23.77,-18.57
16845,-8.27,1.21,-6.01,0.52,0.09,-0.10,-29.71,-23.77,-18.57
16856,-8.74,-1.80,-4.44,0.94,-0.10,-0.34,-29.71,-23.77,-18.57
16867,-9.18,-2.58,-4.34,0.74,-0.04,-0.26,-29.00,-25.22,-19.25
16878,-9.18,-2.58,-4.34,0.74,-0.04,-0.26,-29.00,-25.22,-19.25
16889,-8.93,-2.49,-4.59,0.43,0.03,-0.13,-29.00,-25.22,-19.25
16900,-8.93,-2.49,-4.59,0.43,0.03,-0.13,-29.00,-25.22,-19.25
16911,-8.72,-2.24,-4.46,0.12,0.01,-0.07,-29.00,-25.22,-19.25
16922,-8.72,-2.24,-4.46,0.12,0.01,-0.07,-29.00,-25.22,-19.25
16933,-8.32,-1.03,-5.38,-0.11,0.03,0.03,-29.00,-25.22,-19.25
16944,-8.32,-1.03,-5.38,-0.11,0.03,0.03,-29.00,-25.22,-19.25
16955,-8.28,-0.65,-5.87,-0.14,-0.12,-0.00,-29.00,-25.22,-19.25
16966,-8.28,-0.65,-5.87,-0.14,-0.12,-0.00,-29.00,-25.22,-19.25
16977,-9.72,-1.65,-3.34,0.03,-0.26,0.00,-29.00,-25.22,-19.25
16988,-8.46,-0.35,-5.77,-0.27,0.13,0.08,-27.78,-25.03,-19.42
16999,-8.46,-0.35,-5.77,-0.27,0.13,0.08,-27.78,-25.03,-19.42
17010,-9.06,-0.71,-5.26,0.07,-0.02,0.10,-27.78,-25.03,-19.42
17021,-9.06,-0.71,-5.26,0.07,-0.02,0.10,-27.78,-25.03,-19.42
17032,-9.05,-1.58,-4.61,0.16,-0.09,0.17,-27.78,-25.03,-19.42
17043,-9.05,-1.58,-4.61,0.16,-0.09,0.17,-27.78,-25.03,-19.42
17054,-9.21,-0.65,-4.97,-0.10,-0.09,0.35,-27.78,-25.03,-19.42
17065,-9.21,-0.65,-4.97,-0.10,-0.09,0.35,-27.78,-25.03,-19.42
17076,-9.19,-0.47,-4.78,-0.26,-0.20,0.31,-27.78,-25.03,-19.42
17087,-8.88,-0.90,-5.31,-0.42,-0.23,0.10,-27.78,-25.03,-19.42
17098,-8.88,-0.90,-5.31,-0.42,-0.23,0.10,-27.78,-25.03,-19.42
17109,-8.93,-1.06,-4.67,-0.58,-0.29,-0.03,-29.88,-23.22,-19.08
17120,-8.93,-1.06,-4.67,-0.58,-0.29,-0.03,-29.88,-23.22,-19.08
17131,-8.73,-1.08,-4.60,-0.76,-0.26,-0.19,-29.88,-23.22,-19.08
17142,-8.73,-1.08,-4.60,-0.76,-0.26,-0.19,-29.88,-23.22,-19.08
17153,-9.22,-0.67,-4.39,-0.63,-0.15,-0.20,-29.88,-23.22,-19.08
17164,-9.22,-0.67,-4.39,-0.63,-0.15,-0.20,-29.88,-23.22,-19.08
17175,-8.26,-0.88,-4.30,-0.30,0.14,-0.04,-29.88,-23.22,-19.08
17186,-8.26,-0.88,-4.30,-0.30,0.14,-0.04,-29.88,-23.22,-19.08
17197,-10.10,0.32,-4.47,-0.04,0.18,-0.08,-29.88,-23.22,-19.08
17208,-8.63,-0.05,-4.47,0.08,0.43,-0.18,-29.88,-23.22,-19.08
17219,-8.63,-0.05,-4.47,0.08,0.43,-0.18,-29.88,-23.22,-19.08
17230,-7.26,-0.28,-7.00,-0.06,0.38,-0.38,-29.88,-23.22,-19.08
17241,-7.26,-0.28,-7.00,-0.06,0.38,-0.38,-29.88,-23.22,-19.08
17252,-8.21,-0.82,-5.62,0.24,-0.14,-0.34,-29.36,-24.49,-20.95
17263,-8.21,-0.82,-5.62,0.24,-0.14,-0.34,-29.36,-24.49,-20.95
17274,-8.60,-0.51,-5.26,0.22,-0.25,-0.25,-29.36,-24.49,-20.95
17285,-8.60,-0.51,-5.26,0.22,-0.25,-0.25,-29.36,-24.49,-20.95
17296,-9.29,-1.66,-3.81,0.37,-0.21,-0.18,-29.36,-24.49,-20.95
17307,-9.29,-1.66,-3.81,0.37,-0.21,-0.18,-29.36,-24.49,-20.95
17318,-8.49,-1.41,-5.03,0.13,0.05,-0.09,-29.36,-24.49,-20.95
17329,-9.26,-1.47,-4.27,0.20,0.01,0.09,-29.36,-24.49,-20.95
17340,-9.26,-1.47,-4.27,0.20,0.01,0.09,-29.36,-24.49,-20.95
17351,-8.95,-1.10,-5.07,0.12,0.08,0.22,-29.36,-24.49,-20.95
17362,-8.95,-1.10,-5.07,0.12,0.08,0.22,-29.36,-24.49,-20.95
17373,-8.94,-0.87,-5.19,0.05,0.02,0.34,-29.36,-24.49,-20.61
17384,-8.94,-0.87,-5.19,0.05,0.02,0.34,-29.36,-24.49,-20.61
17395,-9.34,-0.71,-5.08,-0.10,-0.14,0.37,-29.36,-24.49,-20.61
17406,-9.34,-0.71,-5.08,-0.10,-0.14,0.37,-29.36,-24.49,-20.61
17417,-8.88,-0.76,-4.80,-0.28,-0.28,0.22,-29.36,-24.49,-20.61
17428,-9.15,-0.97,-4.18,-0.44,-0.30,0.03,-29.36,-24.49,-20.61
17439,-9.15,-0.97,-4.18,-0.44,-0.30,0.03,-29.36,-24.49,-20.61
17450,-8.62,-0.15,-4.93,-0.55,-0.20,-0.10,-29.36,-24.49,-20.61
17461,-8.62,-0.15,-4.93,-0.55,-0.20,-0.10,-29.36,-24.49,-20.61
17472,-8.69,0.11,-4.92,-0.34,-0.07,-0.27,-29.36,-24.49,-20.61
17483,-8.69,0.11,-4.92,-0.34,-0.07,-0.27,-29.36,-24.49,-20.61
17494,-8.84,-0.13,-4.79,0.07,0.11,-0.42,-29.53,-23.59,-18.40
17505,-8.84,-0.13,-4.79,0.07,0.11,-0.42,-29.53,-23.59,-18.40
17516,-8.68,-0.67,-5.24,0.36,0.22,-0.41,-29.53,-23.59,-18.40
17527,-8.68,-0.67,-5.24,0.36,0.22,-0.41,-29.53,-23.59,-18.40
17538,-9.27,-1.27,-4.34,0.55,0.21,-0.20,-29.53,-23.59,-18.40
17549,-9.07,-2.52,-4.90,0.53,0.27,0.03,-29.53,-23.59,-18.40
17560,-9.07,-2.52,-4.90,0.53,0.27,0.03,-29.53,-23.59,-18.40
17571,-9.13,-1.76,-5.11,0.14,0.19,0.34,-29.53,-23.59,-18.40
17582,-9.13,-1.76,-5.11,0.14,0.19,0.34,-29.53,-23.59,-18.40
17593,-10.25,0.05,-3.20,-0.04,0.11,0.34,-29.53,-23.59,-18.40
17604,-10.25,0.05,-3.20,-0.04,0.11,0.34,-29.53,-23.59,-18.40
17615,-8.44,-0.61,-4.58,-0.15,0.50,-0.04,-29.00,-23.04,-19.93
17626,-8.44,-0.61,-4.58,-0.15,0.50,-0.04,-29.00,-23.04,-19.93
17637,-7.37,-0.34,-7.25,-0.24,0.59,-0.10,-29.00,-23.04,-19.93
17648,-7.97,0.01,-6.45,0.09,0.02,-0.03,-29.00,-23.04,-19.93
17659,-7.97,0.01,-6.45,0.09,0.02,-0.03,-29.00,-23.04,-19.93
17670,-8.50,-0.33,-5.24,0.33,-0.31,-0.08,-29.00,-23.04,-19.93
17681,-8.50,-0.33,-5.24,0.33,-0.31,-0.08,-29.00,-23.04,-19.93
17692,-8.72,-0.64,-5.21,0.36,-0.34,-0.16,-29.00,-23.04,-19.93
17703,-8.72,-0.64,-5.21,0.36,-0.34,-0.16,-29.00,-23.04,-19.93
17714,-10.03,-2.30,-2.74,0.47,-0.35,-0.16,-29.00,-23.04,-19.93
17725,-10.03,-2.30,-2.74,0.47,-0.35,-0.16,-29.00,-23.04,-19.93
17736,-8.71,-1.68,-4.79,0.03,-0.00,-0.18,-29.00,-23.04,-19.93
17747,-8.71,-1.68,-4.79,0.03,-0.00,-0.18,-29.00,-23.04,-19.93
17758,-8.99,-1.55,-4.67,-0.04,-0.00,-0.10,-27.60,-25.22,-20.95
17769,-8.70,-1.00,-5.22,-0.11,0.05,-0.05,-27.60,-25.22,-20.95
17780,-8.70,-1.00,-5.22,-0.11,0.05,-0.05,-27.60,-25.22,-20.95
17791,-8.74,-0.77,-5.44,-0.06,0.01,-0.02,-27.60,-25.22,-20.95
17802,-8.74,-0.77,-5.44,-0.06,0.01,-0.02,-27.60,-25.22,-20.95
17813,-8.91,-0.68,-5.11,-0.02,-0.10,-0.03,-27.60,-25.22,-20.95
17824,-8.91,-0.68,-5.11,-0.02,-0.10,-0.03,-27.60,-25.22,-20.95
17835,-8.94,-1.14,-4.69,-0.05,-0.14,-0.05,-27.60,-25.22,-20.95
17846,-8.94,-1.14,-4.69,-0.05,-0.14,-0.05,-27.60,-25.22,-20.95
17857,-9.03,-0.92,-4.55,-0.12,-0.12,-0.02,-27.60,-25.22,-20.95
17868,-9.29,-1.34,-4.66,-0.08,-0.04,-0.04,-27.95,-24.49,-18.57
17879,-9.29,-1.34,-4.66,-0.08,-0.04,-0.04,-27.95,-24.49,-18.57
17890,-9.10,-2.15,-4.10,-0.10,0.07,0.02,-27.95,-24.49,-18.57
17901,-9.10,-2.15,-4.10,-0.10,0.07,0.02,-27.95,-24.49,-18.57
17912,-8.50,-1.32,-5.48,-0.29,0.16,0.12,-27.95,-24.49,-18.57
17923,-8.50,-1.32,-5.48,-0.29,0.16,0.12,-27.95,-24.49,-18.57
17934,-9.70,-0.99,-3.63,-0.16,0.07,0.15,-27.95,-24.49,-18.57
17945,-9.70,-0.99,-3.63,-0.16,0.07,0.15,-27.95,-24.49,-18.57
17956,-8.23,0.06,-5.39,-0.27,0.47,0.07,-27.95,-24.49,-18.57
17967,-8.23,0.06,-5.39,-0.27,0.47,0.07,-27.95,-24.49,-18.57
17978,-7.44,0.34,-7.13,-0.13,0.39,-0.16,-27.95,-24.49,-18.57
17989,-8.20,-0.87,-5.50,0.32,-0.06,-0.29,-29.00,-25.58,-20.27
18000,-8.20,-0.87,-5.50,0.32,-0.06,-0.29,-29.00,-25.58,-20.27
18011,-8.39,-0.57,-5.97,0.21,-0.19,-0.18,-29.00,-25.58,-20.27
18022,-8.39,-0.57,-5.97,0.21,-0.19,-0.18,-29.00,-25.58,-20.27
18033,-9.83,-2.36,-2.68,0.40,-0.36,-0.14,-29.00,-25.58,-20.27
18044,-9.83,-2.36,-2.68,0.40,-0.36,-0.14,-29.00,-25.58,-20.27
18055,-8.44,-1.54,-5.07,-0.06,-0.02,-0.14,-29.00,-25.58,-20.27
18066,-8.44,-1.54,-5.07,-0.06,-0.02,-0.14,-29.00,-25.58,-20.27
18077,-9.39,-1.78,-4.78,-0.11,-0.17,0.00,-29.00,-25.58,-20.27
18088,-9.08,-0.98,-5.14,-0.37,-0.26,0.13,-29.00,-25.58,-20.27
18099,-9.08,-0.98,-5.14,-0.37,-0.26,0.13,-29.00,-25.58,-20.27
18110,-8.88,-0.60,-4.94,-0.54,-0.36,0.11,-29.00,-25.58,-20.27
18121,-8.88,-0.60,-4.94,-0.54,-0.36,0.11,-29.00,-25.58,-20.27
18132,-8.65,-0.93,-4.96,-0.58,-0.39,0.08,-27.78,-24.31,-19.42
18143,-8.65,-0.93,-4.96,-0.58,-0.39,0.08,-27.78,-24.31,-19.42
18154,-8.75,-0.91,-4.38,-0.51,-0.34,0.07,-27.78,-24.31,-19.42
18165,-8.75,-0.91,-4.38,-0.51,-0.34,0.07,-27.78,-24.31,-19.42
18176,-9.20,-1.46,-4.03,-0.26,-0.16,0.08,-27.78,-24.31,-19.42
18187,-9.20,-1.46,-4.03,-0.26,-0.16,0.08,-27.78,-24.31,-19.42
18198,-8.40,-2.00,-4.61,-0.08,0.16,0.15,-27.78,-24.31,-19.42
18209,-9.83,-0.92,-4.09,0.05,0.20,0.27,-27.78,-24.31,-19.42
18220,-9.83,-0.92,-4.09,0.05,0.20,0.27,-27.78,-24.31,-19.42
18231,-9.35,0.47,-3.63,0.15,0.49,0.31,-27.78,-24.31,-19.42
18242,-9.35,0.47,-3.63,0.15,0.49,0.31,-27.78,-24.31,-19.42
18253,-7.72,0.79,-6.80,0.14,0.86,-0.00,-28.83,-23.95,-20.78
18264,-7.72,0.79,-6.80,0.14,0.86,-0.00,-28.83,-23.95,-20.78
18275,-7.89,-0.38,-6.65,0.51,0.42,-0.25,-28.83,-23.95,-20.78
18286,-7.89,-0.38,-6.65,0.51,0.42,-0.25,-28.83,-23.95,-20.78
18297,-8.03,-0.65,-5.94,0.49,-0.11,-0.21,-28.83,-23.95,-20.78
18308,-8.51,-0.64,-5.54,0.36,-0.45,-0.16,-28.83,-23.95,-20.78
18319,-8.51,-0.64,-5.54,0.36,-0.45,-0.16,-28.83,-23.95,-20.78
18330,-9.79,-2.13,-2.83,0.31,-0.44,-0.17,-28.83,-23.95,-20.78
18341,-9.79,-2.13,-2.83,0.31,-0.44,-0.17,-28.83,-23.95,-20.78
18352,-8.50,-2.52,-4.99,-0.43,-0.09,-0.29,-28.83,-23.95,-20.78
18363,-8.50,-2.52,-4.99,-0.43,-0.09,-0.29,-28.83,-23.95,-20.78
18374,-9.06,-1.91,-4.45,-0.46,-0.20,-0.04,-30.06,-25.22,-20.95
18385,-9.06,-1.91,-4.45,-0.46,-0.20,-0.04,-30.06,-25.22,-20.95
18396,-8.91,-1.29,-4.65,-0.48,-0.03,0.11,-30.06,-25.22,-20.95
18407,-8.91,-1.29,-4.65,-0.48,-0.03,0.11,-30.06,-25.22,-20.95
18418,-9.38,-0.93,-4.35,-0.33,0.09,0.24,-30.06,-25.22,-20.95
18429,-8.53,0.03,-6.12,-0.47,0.20,0.32,-30.06,-25.22,-20.95
18440,-8.53,0.03,-6.12,-0.47,0.20,0.32,-30.06,-25.22,-20.95
18451,-9.39,0.03,-4.01,-0.15,-0.07,0.30,-30.06,-25.22,-20.95
18462,-9.39,0.03,-4.01,-0.15,-0.07,0.30,-30.06,-25.22,-20.95
18473,-8.17,1.21,-6.47,-0.41,0.02,0.12,-30.06,-25.22,-20.95
18484,-8.17,1.21,-6.47,-0.41,0.02,0.12,-30.06,-25.22,-20.95
18495,-9.46,0.55,-5.52,-0.02,-0.34,-0.15,-30.06,-25.22,-20.95
18506,-9.46,0.55,-5.52,-0.02,-0.34,-0.15,-30.06,-25.22,-20.95
18517,-8.90,-0.97,-4.32,0.09,-0.25,-0.25,-30.23,-23.95,-19.76
18528,-8.90,-0.97,-4.32,0.09,-0.25,-0.25,-30.23,-23.95,-19.76
18539,-8.50,-1.21,-5.68,-0.09,-0.06,-0.35,-30.23,-23.95,-19.76
18550,-9.05,-1.24,-3.94,0.10,-0.12,-0.25,-30.23,-23.95,-19.76
18561,-9.05,-1.24,-3.94,0.10,-0.12,-0.25,-30.23,-23.95,-19.76
18572,-8.84,-0.52,-4.99,0.13,0.06,-0.19,-30.23,-23.95,-19.76
18583,-8.84,-0.52,-4.99,0.13,0.06,-0.19,-30.23,-23.95,-19.76
18594,-8.76,-1.15,-4.71,0.23,0.10,-0.18,-30.23,-23.95,-19.76
18605,-8.76,-1.15,-4.71,0.23,0.10,-0.18,-30.23,-23.95,-19.76
18616,-9.14,-0.68,-4.87,0.20,0.12,0.02,-30.23,-23.95,-19.76
18627,-9.14,-0.68,-4.87,0.20,0.12,0.02,-30.23,-23.95,-19.76
18638,-9.01,-1.13,-4.69,0.19,0.11,0.12,-29.36,-24.49,-19.59
18649,-8.97,-1.12,-4.97,0.09,0.08,0.27,-29.36,-24.49,-19.59
18660,-8.97,-1.12,-4.97,0.09,0.08,0.27,-29.36,-24.49,-19.59
18671,-9.04,-0.61,-5.05,-0.15,-0.02,0.38,-29.36,-24.49,-19.59
18682,-9.04,-0.61,-5.05,-0.15,-0.02,0.38,-29.36,-24.49,-19.59
18693,-9.12,-0.19,-4.59,-0.29,-0.15,0.28,-29.36,-24.49,-19.59
18704,-9.12,-0.19,-4.59,-0.29,-0.15,0.28,-29.36,-24.49,-19.59
18715,-9.24,-0.70,-4.63,-0.34,-0.21,0.06,-29.36,-24.49,-19.59
18726,-9.24,-0.70,-4.63,-0.34,-0.21,0.06,-29.36,-24.49,-19.59
18737,-8.99,-0.43,-4.90,-0.48,-0.23,-0.04,-29.36,-24.49,-19.59
18748,-8.99,-0.43,-4.90,-0.48,-0.23,-0.04,-29.36,-24.49,-19.59
18759,-9.03,-0.87,-3.94,-0.47,-0.22,-0.15,-29.36,-21.96,-20.27
18770,-8.99,-0.56,-4.95,-0.41,-0.07,-0.19,-29.36,-21.96,-20.27
18781,-8.99,-0.56,-4.95,-0.41,-0.07,-0.19,-29.36,-21.96,-20.27
18792,-9.61,-0.90,-3.82,-0.15,0.02,-0.14,-29.36,-21.96,-20.27
18803,-9.61,-0.90,-3.82,-0.15,0.02,-0.14,-29.36,-21.96,-20.27
18814,-8.32,-0.69,-5.32,-0.13,0.32,-0.04,-29.36,-21.96,-20.27
18825,-8.32,-0.69,-5.32,-0.13,0.32,-0.04,-29.36,-21.96,-20.27
18836,-9.56,0.13,-4.59,0.04,0.19,-0.12,-29.36,-21.96,-20.27
18847,-9.56,0.13,-4.59,0.04,0.19,-0.12,-29.36,-21.96,-20.27
18858,-8.24,-0.03,-5.15,0.10,0.31,-0.23,-29.36,-21.96,-20.27
18869,-7.66,-0.29,-6.62,0.13,0.24,-0.23,-29.36,-21.96,-20.27
18880,-7.66,-0.29,-6.62,0.13,0.24,-0.23,-29.36,-21.96,-20.27
18891,-10.27,0.41,-5.69,0.38,-0.16,-0.13,-29.00,-23.77,-20.61
18902,-10.27,0.41,-5.69,0.38,-0.16,-0.13,-29.00,-23.77,-20.61
18913,-8.98,-1.60,-4.16,0.37,-0.08,-0.18,-29.00,-23.77,-20.61
18924,-8.98,-1.60,-4.16,0.37,-0.08,-0.18,-29.00,-23.77,-20.61
18935,-8.88,-1.53,-5.18,0.04,0.06,-0.01,-29.00,-23.77,-20.61
18946,-8.88,-1.53,-5.18,0.04,0.06,-0.01,-29.00,-23.77,-20.61
18957,-9.32,-0.87,-4.14,0.08,-0.04,0.16,-29.00,-23.77,-20.61
18968,-9.32,-0.87,-4.14,0.08,-0.04,0.16,-29.00,-23.77,-20.61
18979,-8.98,-0.95,-4.87,0.01,0.01,0.15,-29.00,-23.77,-20.61
18990,-9.09,-0.41,-5.04,-0.13,-0.08,0.13,-29.00,-23.77,-20.61
19001,-9.09,-0.41,-5.04,-0.13,-0.08,0.13,-29.00,-23.77,-20.61
19012,-9.24,-0.33,-4.96,-0.24,-0.18,-0.03,-27.78,-22.14,-19.76
19023,-9.24,-0.33,-4.96,-0.24,-0.18,-0.03,-27.78,-22.14,-19.76
19034,-9.22,-0.47,-4.67,-0.35,-0.24,-0.20,-27.78,-22.14,-19.76
19045,-9.22,-0.47,-4.67,-0.35,-0.24,-0.20,-27.78,-22.14,-19.76
19056,-8.78,-0.33,-5.01,-0.35,-0.25,-0.29,-27.78,-22.14,-19.76
19067,-8.78,-0.33,-5.01,-0.35,-0.25,-0.29,-27.78,-22.14,-19.76
19078,-8.72,-1.17,-5.05,-0.08,-0.16,-0.19,-27.78,-22.14,-19.76
19089,-8.90,-1.44,-4.36,0.11,-0.11,-0.00,-27.78,-22.14,-19.76
19100,-8.90,-1.44,-4.36,0.11,-0.11,-0.00,-27.78,-22.14,-19.76
19111,-8.89,-1.72,-4.44,0.20,-0.01,0.20,-27.78,-22.14,-19.76
19122,-8.89,-1.72,-4.44,0.20,-0.01,0.20,-27.78,-22.14,-19.76
19133,-9.11,-0.86,-4.27,0.16,0.09,0.39,-28.83,-24.31,-20.10
19144,-9.11,-0.86,-4.27,0.16,0.09,0.39,-28.83,-24.31,-20.10
19155,-9.02,-1.10,-4.36,0.13,0.25,0.41,-28.83,-24.31,-20.10
19166,-9.02,-1.10,-4.36,0.13,0.25,0.41,-28.83,-24.31,-20.10
19177,-9.59,0.53,-4.90,0.00,0.33,0.41,-28.83,-24.31,-20.10
19188,-9.59,0.53,-4.90,0.00,0.33,0.41,-28.83,-24.31,-20.10
19199,-10.04,0.55,-4.00,0.22,0.38,0.13,-28.83,-24.31,-20.10
19210,-7.75,-0.38,-5.35,0.15,0.71,-0.19,-28.83,-24.31,-20.10
19221,-7.75,-0.38,-5.35,0.15,0.71,-0.19,-28.83,-24.31,-20.10
19232,-7.86,-0.42,-6.41,0.26,0.63,-0.18,-28.83,-24.31,-20.10
19243,-7.86,-0.42,-6.41,0.26,0.63,-0.18,-28.83,-24.31,-20.10
19254,-8.21,0.46,-5.41,0.44,0.29,-0.24,-28.83,-23.95,-20.78
19265,-8.21,0.46,-5.41,0.44,0.29,-0.24,-28.83,-23.95,-20.78
19276,-8.03,-0.43,-6.00,0.62,0.14,-0.44,-28.83,-23.95,-20.78
19287,-8.03,-0.43,-6.00,0.62,0.14,-0.44,-28.83,-23.95,-20.78
19298,-8.65,-1.40,-5.97,0.59,-0.16,-0.42,-28.83,-23.95,-20.78
19309,-9.93,-0.81,-4.68,0.36,-0.44,-0.21,-28.83,-23.95,-20.78
19320,-9.93,-0.81,-4.68,0.36,-0.44,-0.21,-28.83,-23.95,-20.78
19331,-9.48,-1.64,-3.59,0.23,-0.32,-0.11,-28.83,-23.95,-20.78
19342,-9.48,-1.64,-3.59,0.23,-0.32,-0.11,-28.83,-23.95,-20.78
19353,-9.00,-2.83,-5.18,-0.17,-0.08,-0.09,-28.83,-23.95,-20.78
19364,-9.00,-2.83,-5.18,-0.17,-0.08,-0.09,-28.83,-23.95,-20.78
19375,-9.13,-2.62,-4.51,-0.19,-0.14,0.31,-28.83,-23.95,-20.78
19386,-9.13,-2.62,-4.51,-0.19,-0.14,0.31,-28.83,-23.95,-20.78
19397,-8.97,-1.64,-4.23,-0.26,0.01,0.63,-28.65,-24.85,-19.59
19408,-8.97,-1.64,-4.23,-0.26,0.01,0.63,-28.65,-24.85,-19.59
19419,-10.34,-2.01,-3.60,-0.23,0.16,0.75,-28.65,-24.85,-19.59
19430,-10.52,-2.67,-2.20,-0.42,0.67,0.89,-28.65,-24.85,-19.59
19441,-10.52,-2.67,-2.20,-0.42,0.67,0.89,-28.65,-24.85,-19.59
19452,-8.26,-2.80,-4.30,-0.86,1.39,0.97,-28.65,-24.85,-19.59
19463,-8.26,-2.80,-4.30,-0.86,1.39,0.97,-28.65,-24.85,-19.59
19474,-8.73,-1.78,-4.87,-0.94,1.50,1.23,-28.65,-24.85,-19.59
19485,-8.73,-1.78,-4.87,-0.94,1.50,1.23,-28.65,-24.85,-19.59
19496,-8.71,-0.66,-4.42,-1.02,1.64,1.37,-28.65,-24.85,-19.59
19507,-8.71,-0.66,-4.42,-1.02,1.64,1.37,-28.65,-24.85,-19.59
19518,-6.96,1.35,-6.33,-1.25,1.96,1.39,-26.72,-18.15,-24.86
19529,-6.96,1.35,-6.33,-1.25,1.96,1.39,-26.72,-18.15,-24.86
19540,-5.32,3.75,-8.61,-0.83,1.84,1.22,-26.72,-18.15,-24.86
19551,-5.67,5.37,-8.98,0.20,1.17,0.66,-26.72,-18.15,-24.86
19562,-5.67,5.37,-8.98,0.20,1.17,0.66,-26.72,-18.15,-24.86
19573,-7.53,4.54,-7.18,1.87,0.58,-0.09,-26.72,-18.15,-24.86
19584,-7.53,4.54,-7.18,1.87,0.58,-0.09,-26.72,-18.15,-24.86
19595,-8.89,3.50,-5.03,3.14,0.64,-0.63,-26.72,-18.15,-24.86
19606,-8.89,3.50,-5.03,3.14,0.64,-0.63,-26.72,-18.15,-24.86
19617,-4.52,1.72,-5.68,3.68,1.41,-1.41,-26.72,-18.15,-24.86
19628,-4.52,1.72,-5.68,3.68,1.41,-1.41,-26.72,-18.15,-24.86
19639,-5.91,0.17,-9.56,2.26,1.61,-2.24,-21.46,-26.12,-25.88
19650,-7.41,-1.60,-10.84,1.99,0.40,-2.07,-21.46,-26.12,-25.88
19661,-7.41,-1.60,-10.84,1.99,0.40,-2.07,-21.46,-26.12,-25.88
19672,-7.89,-4.78,-5.38,2.84,-0.64,-1.17,-21.46,-26.12,-25.88
19683,-7.89,-4.78,-5.38,2.84,-0.64,-1.17,-21.46,-26.12,-25.88
19694,-8.06,-5.47,-3.93,0.01,-0.35,-0.45,-21.46,-26.12,-25.88
19705,-8.06,-5.47,-3.93,0.01,-0.35,-0.45,-21.46,-26.12,-25.88
19716,-6.35,-4.27,-7.65,-3.03,0.28,0.21,-21.46,-26.12,-25.88
19727,-6.35,-4.27,-7.65,-3.03,0.28,0.21,-21.46,-26.12,-25.88
19738,-6.83,-1.95,-8.61,-3.30,0.29,0.94,-21.46,-26.12,-25.88
19749,-6.83,-1.95,-8.61,-3.30,0.29,0.94,-21.46,-26.12,-25.88
19760,-6.71,1.14,-8.64,-4.01,-0.28,1.42,-21.46,-26.12,-25.88
19771,-7.85,2.47,-6.80,-4.13,-0.75,1.22,-21.28,-21.96,-30.13
19782,-7.85,2.47,-6.80,-4.13,-0.75,1.22,-21.28,-21.96,-30.13
19793,-7.81,2.57,-6.29,-4.07,-0.75,0.69,-21.28,-21.96,-30.13
19804,-7.81,2.57,-6.29,-4.07,-0.75,0.69,-21.28,-21.96,-30.13
19815,-7.65,1.36,-6.34,-3.73,-0.71,0.30,-21.28,-21.96,-30.13
19826,-7.65,1.36,-6.34,-3.73,-0.71,0.30,-21.28,-21.96,-30.13
19837,-7.22,2.41,-7.67,-3.89,-0.89,0.07,-21.28,-21.96,-30.13
19848,-7.22,2.41,-7.67,-3.89,-0.89,0.07,-21.28,-21.96,-30.13
19859,-7.38,3.70,-7.37,-3.23,-1.11,-0.15,-21.28,-21.96,-30.13
19870,-7.61,2.61,-5.05,-2.01,-1.09,-0.30,-21.28,-21.96,-30.13
19881,-7.61,2.61,-5.05,-2.01,-1.09,-0.30,-21.28,-21.96,-30.13
19892,-7.65,2.67,-5.85,-2.17,-0.94,-0.31,-27.25,-3.84,-30.81
19903,-7.65,2.67,-5.85,-2.17,-0.94,-0.31,-27.25,-3.84,-30.81
19914,-8.08,3.78,-5.84,-2.06,-0.84,-0.32,-27.25,-3.84,-30.81
19925,-8.08,3.78,-5.84,-2.06,-0.84,-0.32,-27.25,-3.84,-30.81
19936,-7.74,4.16,-5.93,-1.58,-0.77,-0.53,-27.25,-3.84,-30.81
19947,-7.74,4.16,-5.93,-1.58,-0.77,-0.53,-27.25,-3.84,-30.81
19958,-8.23,3.06,-5.04,-0.47,-0.63,-0.70,-27.25,-3.84,-30.81
19969,-8.23,3.06,-5.04,-0.47,-0.63,-0.70,-27.25,-3.84,-30.81
19980,-8.67,1.39,-4.34,0.39,-0.31,-0.61,-27.25,-3.84,-30.81
19991,-7.88,1.87,-5.08,0.18,0.06,-0.31,-27.25,-3.84,-30.81
20002,-7.88,1.87,-5.08,0.18,0.06,-0.31,-27.25,-3.84,-30.81
20013,-8.13,3.29,-6.42,0.15,0.11,-0.27,-26.02,-4.38,-28.94
20024,-8.13,3.29,-6.42,0.15,0.11,-0.27,-26.02,-4.38,-28.94
20035,-8.54,2.07,-5.56,0.56,-0.03,-0.44,-26.02,-4.38,-28.94
20046,-8.54,2.07,-5.56,0.56,-0.03,-0.44,-26.02,-4.38,-28.94
20057,-8.42,1.28,-5.08,0.62,-0.07,-0.25,-26.02,-4.38,-28.94
20068,-8.42,1.28,-5.08,0.62,-0.07,-0.25,-26.02,-4.38,-28.94
20079,-8.40,2.89,-5.30,0.36,0.03,0.10,-26.02,-4.38,-28.94
20090,-8.35,3.01,-5.22,0.45,0.10,0.06,-26.02,-4.38,-28.94
20101,-8.35,3.01,-5.22,0.45,0.10,0.06,-26.02,-4.38,-28.94
20112,-8.23,2.93,-5.72,0.45,0.09,-0.08,-26.02,-4.38,-28.94
20123,-8.23,2.93,-5.72,0.45,0.09,-0.08,-26.02,-4.38,-28.94
20134,-8.59,2.14,-5.47,0.46,-0.03,-0.20,-26.02,-4.38,-28.94
20145,-8.59,2.14,-5.47,0.46,-0.03,-0.20,-26.02,-4.38,-28.94
20156,-8.98,2.04,-4.94,0.42,-0.12,-0.18,-27.78,-5.47,-30.30
20167,-8.98,2.04,-4.94,0.42,-0.12,-0.18,-27.78,-5.47,-30.30
20178,-8.90,1.21,-4.70,0.39,-0.04,-0.18,-27.78,-5.47,-30.30
20189,-8.90,1.21,-4.70,0.39,-0.04,-0.18,-27.78,-5.47,-30.30
20200,-7.94,1.36,-5.29,0.12,0.18,-0.03,-27.78,-5.47,-30.30
20211,-7.90,2.70,-6.31,0.07,0.18,0.10,-27.78,-5.47,-30.30
20222,-7.90,2.70,-6.31,0.07,0.18,0.10,-27.78,-5.47,-30.30
20233,-7.99,2.71,-5.89,0.27,0.07,0.08,-27.78,-5.47,-30.30
20244,-7.99,2.71,-5.89,0.27,0.07,0.08,-27.78,-5.47,-30.30
20255,-8.10,2.78,-5.76,0.32,-0.00,0.03,-27.78,-5.47,-30.30
20266,-8.10,2.78,-5.76,0.32,-0.00,0.03,-27.78,-5.47,-30.30
20277,-8.19,2.62,-5.37,0.52,-0.02,-0.02,-27.42,-6.56,-28.94
20288,-8.19,2.62,-5.37,0.52,-0.02,-0.02,-27.42,-6.56,-28.94
20299,-8.62,2.42,-5.54,0.59,-0.05,-0.19,-27.42,-6.56,-28.94
20310,-8.61,1.36,-5.29,0.55,-0.07,-0.35,-27.42,-6.56,-28.94
20321,-8.61,1.36,-5.29,0.55,-0.07,-0.35,-27.42,-6.56,-28.94
20332,-8.31,1.33,-5.62,0.28,-0.08,-0.29,-27.42,-6.56,-28.94
20343,-8.31,1.33,-5.62,0.28,-0.08,-0.29,-27.42,-6.56,-28.94
20354,-9.09,0.62,-4.45,0.13,-0.13,-0.18,-27.42,-6.56,-28.94
20365,-9.09,0.62,-4.45,0.13,-0.13,-0.18,-27.42,-6.56,-28.94
20376,-8.04,2.08,-7.12,-0.39,-0.05,-0.01,-27.42,-6.56,-28.94
20387,-8.04,2.08,-7.12,-0.39,-0.05,-0.01,-27.42,-6.56,-28.94
20398,-8.95,1.24,-5.07,-0.19,-0.49,0.07,-29.00,-7.46,-28.09
20409,-8.95,1.24,-5.07,-0.19,-0.49,0.07,-29.00,-7.46,-28.09
20420,-8.70,1.14,-5.28,-0.26,-0.41,0.26,-29.00,-7.46,-28.09
20431,-8.92,0.68,-4.93,-0.17,-0.20,0.42,-29.00,-7.46,-28.09
20442,-8.92,0.68,-4.93,-0.17,-0.20,0.42,-29.00,-7.46,-28.09
20458,-9.35,1.72,-5.72,-0.29,0.01,0.52,-29.00,-7.46,-28.09
20464,-9.35,1.72,-5.72,-0.29,0.01,0.52,-29.00,-7.46,-28.09
20475,-9.94,1.25,-3.00,-0.04,0.19,0.49,-29.00,-7.46,-28.09
20486,-9.94,1.25,-3.00,-0.04,0.19,0.49,-29.00,-7.46,-28.09
20497,-7.69,4.31,-6.29,-0.60,0.86,0.27,-29.00,-7.46,-28.09
20508,-7.69,4.31,-6.29,-0.60,0.86,0.27,-29.00,-7.46,-28.09
20519,-6.82,3.09,-6.61,-0.26,0.64,-0.35,-29.00,-7.46,-28.09
20530,-6.81,3.39,-6.13,-0.26,0.14,-0.45,-29.00,-7.46,-28.09
20541,-6.81,3.39,-6.13,-0.26,0.14,-0.45,-27.60,-7.10,-28.77
20552,-7.88,3.83,-5.72,-0.21,-0.17,-0.32,-27.60,-7.10,-28.77
20563,-7.88,3.83,-5.72,-0.21,-0.17,-0.32,-27.60,-7.10,-28.77
20574,-8.34,4.08,-5.10,0.02,-0.28,-0.14,-27.60,-7.10,-28.77
20585,-8.34,4.08,-5.10,0.02,-0.28,-0.14,-27.60,-7.10,-28.77
20596,-8.49,3.28,-4.61,0.35,-0.21,-0.27,-27.60,-7.10,-28.77
20607,-8.49,3.28,-4.61,0.35,-0.21,-0.27,-27.60,-7.10,-28.77
20618,-9.00,1.18,-5.17,0.65,-0.05,-0.46,-27.60,-7.10,-28.77
20629,-9.00,1.18,-5.17,0.65,-0.05,-0.46,-27.60,-7.10,-28.77
20640,-9.00,0.08,-5.25,0.51,-0.01,-0.33,-27.60,-7.10,-28.77
20651,-8.54,0.26,-5.32,0.19,0.05,-0.03,-26.02,-8.37,-28.26
20662,-8.54,0.26,-5.32,0.19,0.05,-0.03,-26.02,-8.37,-28.26
20673,-8.58,2.19,-6.08,-0.09,0.11,0.14,-26.02,-8.37,-28.26
20684,-8.58,2.19,-6.08,-0.09,0.11,0.14,-26.02,-8.37,-28.26
20695,-8.31,1.97,-5.59,0.02,0.06,0.05,-26.02,-8.37,-28.26
20706,-8.31,1.97,-5.59,0.02,0.06,0.05,-26.02,-8.37,-28.26
20717,-8.06,2.64,-5.86,-0.00,0.04,0.02,-26.02,-8.37,-28.26
20728,-8.06,2.64,-5.86,-0.00,0.04,0.02,-26.02,-8.37,-28.26
20739,-8.33,2.37,-5.66,0.08,-0.02,-0.10,-26.02,-8.37,-28.26
20750,-8.33,2.37,-5.66,0.08,-0.02,-0.10,-26.02,-8.37,-28.26
20761,-8.28,1.78,-5.53,0.11,-0.02,-0.20,-26.02,-8.37,-28.26
20772,-8.14,1.78,-5.80,0.07,-0.02,-0.22,-28.30,-9.64,-29.79
20783,-8.14,1.78,-5.80,0.07,-0.02,-0.22,-28.30,-9.64,-29.79
20794,-8.62,1.85,-5.55,0.10,-0.09,-0.20,-28.30,-9.64,-29.79
20805,-8.62,1.85,-5.55,0.10,-0.09,-0.20,-28.30,-9.64,-29.79
20816,-8.38,1.09,-5.09,0.19,-0.03,-0.08,-28.30,-9.64,-29.79
20827,-8.38,1.09,-5.09,0.19,-0.03,-0.08,-28.30,-9.64,-29.79
20838,-7.97,1.89,-5.85,0.05,0.08,0.02,-28.30,-9.64,-29.79
20849,-7.97,1.89,-5.85,0.05,0.08,0.02,-28.30,-9.64,-29.79
20860,-8.89,1.48,-5.70,0.17,-0.03,0.06,-28.30,-9.64,-29.79
20871,-8.58,1.93,-5.38,0.12,-0.10,0.17,-28.30,-9.64,-29.79
20882,-8.58,1.93,-5.38,0.12,-0.10,0.17,-28.30,-9.64,-29.79
20893,-8.90,1.19,-4.91,0.13,-0.17,0.20,-29.00,-10.36,-27.75
20904,-8.90,1.19,-4.91,0.13,-0.17,0.20,-29.00,-10.36,-27.75
20915,-8.74,1.87,-5.53,-0.29,-0.19,0.32,-29.00,-10.36,-27.75
20926,-8.74,1.87,-5.53,-0.29,-0.19,0.32,-29.00,-10.36,-27.75
20937,-8.56,2.18,-5.51,-0.45,-0.26,0.19,-29.00,-10.36,-27.75
20948,-8.56,2.18,-5.51,-0.45,-0.26,0.19,-29.00,-10.36,-27.75
20959,-8.91,1.38,-5.16,-0.36,-0.18,0.03,-29.00,-10.36,-27.75
20970,-8.91,1.38,-5.16,-0.36,-0.18,0.03,-29.00,-10.36,-27.75
20981,-8.44,2.71,-5.99,-0.72,-0.09,-0.01,-29.00,-10.36,-27.75
20992,-8.20,2.35,-5.10,-0.32,-0.14,-0.20,-29.00,-10.36,-27.75
21003,-8.20,2.35,-5.10,-0.32,-0.14,-0.20,-29.00,-10.36,-27.75
21014,-8.36,2.14,-4.66,0.11,0.04,-0.15,-29.00,-10.36,-27.75
21025,-8.36,2.14,-4.66,0.11,0.04,-0.15,-29.00,-10.36,-27.75
21036,-8.15,3.14,-5.45,0.35,0.28,-0.20,-27.95,-9.64,-28.09
21047,-8.15,3.14,-5.45,0.35,0.28,-0.20,-27.95,-9.64,-28.09
21058,-8.59,1.30,-5.10,0.74,0.30,-0.31,-27.95,-9.64,-28.09
21069,-8.59,1.30,-5.10,0.74,0.30,-0.31,-27.95,-9.64,-28.09
21080,-8.30,1.19,-6.20,0.32,0.19,-0.13,-27.95,-9.64,-28.09
21091,-9.16,1.54,-4.45,0.01,-0.14,-0.00,-27.95,-9.64,-28.09
21107,-9.16,1.54,-4.45,0.01,-0.14,-0.00,-27.95,-9.64,-28.09
21113,-8.61,1.47,-5.63,-0.25,-0.05,0.03,-27.95,-9.64,-28.09
21124,-8.61,1.47,-5.63,-0.25,-0.05,0.03,-27.95,-9.64,-28.09
21135,-8.71,2.24,-5.75,-0.42,-0.10,0.03,-27.95,-9.64,-28.09
21146,-8.71,2.24,-5.75,-0.42,-0.10,0.03,-27.95,-9.64,-28.09
21157,-8.78,1.98,-5.04,-0.30,-0.16,-0.09,-27.42,-10.54,-26.90
21168,-8.78,1.98,-5.04,-0.30,-0.16,-0.09,-27.42,-10.54,-26.90
21179,-8.33,1.72,-5.77,-0.40,-0.07,-0.22,-27.42,-10.54,-26.90
21190,-8.33,1.72,-5.77,-0.40,-0.07,-0.22,-27.42,-10.54,-26.90
21201,-8.45,1.14,-4.99,-0.23,-0.07,-0.26,-27.42,-10.54,-26.90
21212,-8.15,1.06,-5.51,-0.15,0.11,-0.07,-27.42,-10.54,-26.90
21223,-8.15,1.06,-5.51,-0.15,0.11,-0.07,-27.42,-10.54,-26.90
21234,-8.14,2.49,-5.94,-0.06,0.09,0.16,-27.42,-10.54,-26.90
21245,-8.14,2.49,-5.94,-0.06,0.09,0.16,-27.42,-10.54,-26.90
21256,-8.17,2.94,-4.78,0.22,0.06,0.15,-27.42,-10.54,-26.90
21267,-8.17,2.94,-4.78,0.22,0.06,0.15,-27.42,-10.54,-26.90
21278,-8.39,2.73,-5.29,0.40,0.24,0.03,-26.20,-7.10,-29.11
21289,-8.39,2.73,-5.29,0.40,0.24,0.03,-26.20,-7.10,-29.11
21300,-8.77,2.09,-5.69,0.36,0.24,-0.10,-26.20,-7.10,-29.11
21311,-8.44,1.28,-5.89,0.13,0.05,-0.18,-26.20,-7.10,-29.11
21322,-8.44,1.28,-5.89,0.13,0.05,-0.18,-26.20,-7.10,-29.11
21333,-9.11,0.79,-4.49,-0.01,-0.20,-0.15,-26.20,-7.10,-29.11
21344,-9.11,0.79,-4.49,-0.01,-0.20,-0.15,-26.20,-7.10,-29.11
21355,-8.70,1.56,-5.78,-0.45,-0.09,-0.04,-26.20,-7.10,-29.11
21366,-8.70,1.56,-5.78,-0.45,-0.09,-0.04,-26.20,-7.10,-29.11
21377,-8.60,2.34,-5.91,-0.57,-0.17,-0.08,-26.20,-7.10,-29.11
21388,-8.60,2.34,-5.91,-0.57,-0.17,-0.08,-26.20,-7.10,-29.11
21399,-8.38,1.46,-4.67,-0.28,-0.24,-0.19,-26.20,-7.10,-29.11
21410,-8.38,1.46,-4.67,-0.28,-0.24,-0.19,-26.20,-7.10,-29.11
21421,-8.30,1.80,-5.48,-0.30,-0.04,-0.10,-27.78,-9.09,-27.58
21432,-8.38,1.55,-5.18,-0.03,0.02,-0.06,-27.78,-9.09,-27.58
21443,-8.38,1.55,-5.18,-0.03,0.02,-0.06,-27.78,-9.09,-27.58
21454,-8.12,2.44,-5.59,0.07,0.14,0.05,-27.78,-9.09,-27.58
21465,-8.12,2.44,-5.59,0.07,0.14,0.05,-27.78,-9.09,-27.58
21476,-8.12,2.38,-5.66,0.36,0.21,0.00,-27.78,-9.09,-27.58
21487,-8.12,2.38,-5.66,0.36,0.21,0.00,-27.78,-9.09,-27.58
21498,-8.48,1.87,-5.19,0.50,0.24,-0.04,-27.78,-9.09,-27.58
21509,-8.48,1.87,-5.19,0.50,0.24,-0.04,-27.78,-9.09,-27.58
21520,-9.05,1.75,-6.17,0.20,0.10,-0.04,-27.78,-9.09,-27.58
21531,-8.77,1.70,-5.34,0.03,-0.15,-0.06,-26.72,-9.09,-27.58
21542,-8.77,1.70,-5.34,0.03,-0.15,-0.06,-26.72,-8.37,-29.96
21553,-8.66,0.89,-4.73,-0.06,-0.07,-0.04,-26.72,-8.37,-29.96
21564,-8.66,0.89,-4.73,-0.06,-0.07,-0.04,-26.72,-8.37,-29.96
21575,-8.68,1.90,-6.43,-0.36,0.04,0.06,-26.72,-8.37,-29.96
21586,-8.68,1.90,-6.43,-0.36,0.04,0.06,-26.72,-8.37,-29.96
21597,-8.50,1.74,-5.12,-0.29,-0.19,-0.07,-26.72,-8.37,-29.96
21608,-8.50,1.74,-5.12,-0.29,-0.19,-0.07,-26.72,-8.37,-29.96
21619,-8.69,1.61,-4.98,-0.27,-0.09,-0.14,-26.72,-8.37,-29.96
21630,-8.69,1.61,-4.98,-0.27,-0.09,-0.14,-26.72,-8.37,-29.96
21641,-8.17,1.76,-5.77,-0.20,0.10,-0.10,-26.72,-8.37,-29.96
21652,-8.21,2.55,-5.50,0.01,0.07,-0.08,-25.49,-9.64,-27.75
21663,-8.21,2.55,-5.50,0.01,0.07,-0.08,-25.49,-9.64,-27.75
21674,-8.30,2.18,-5.19,0.26,0.11,-0.14,-25.49,-9.64,-27.75
21685,-8.30,2.18,-5.19,0.26,0.11,-0.14,-25.49,-9.64,-27.75
21696,-7.88,1.65,-5.95,0.32,0.08,-0.08,-25.49,-9.64,-27.75
21707,-7.88,1.65,-5.95,0.32,0.08,-0.08,-25.49,-9.64,-27.75
21718,-8.88,1.47,-5.07,0.30,-0.06,0.02,-25.49,-9.64,-27.75
21729,-8.88,1.47,-5.07,0.30,-0.06,0.02,-25.49,-9.64,-27.75
21740,-8.50,1.21,-5.49,0.06,0.00,0.07,-25.49,-9.64,-27.75
21751,-8.50,1.21,-5.49,0.06,0.00,0.07,-25.49,-9.64,-27.75
21762,-8.82,1.03,-5.41,-0.10,-0.08,0.18,-25.49,-9.64,-27.75
21773,-8.68,2.15,-5.78,-0.46,-0.18,0.28,-25.49,-9.64,-27.75
21784,-8.68,2.15,-5.78,-0.46,-0.18,0.28,-25.49,-9.64,-27.75
21795,-8.49,2.29,-5.40,-0.48,-0.30,0.12,-27.25,-10.00,-27.07
21806,-8.49,2.29,-5.40,-0.48,-0.30,0.12,-27.25,-10.00,-27.07
21817,-8.57,2.14,-5.06,-0.50,-0.21,-0.03,-27.25,-10.00,-27.07
21828,-8.57,2.14,-5.06,-0.50,-0.21,-0.03,-27.25,-10.00,-27.07
21839,-8.40,2.49,-5.48,-0.60,-0.09,-0.15,-27.25,-10.00,-27.07
21850,-8.40,2.49,-5.48,-0.60,-0.09,-0.15,-27.25,-10.00,-27.07
21861,-8.60,1.60,-4.76,-0.33,-0.06,-0.23,-27.25,-10.00,-27.07
21872,-8.66,2.12,-4.98,-0.19,0.09,-0.14,-27.25,-10.00,-27.07
21883,-8.66,2.12,-4.98,-0.19,0.09,-0.14,-27.25,-10.00,-27.07
21894,-8.40,1.99,-5.45,0.15,0.19,-0.09,-27.25,-10.00,-27.07
21905,-8.40,1.99,-5.45,0.15,0.19,-0.09,-27.25,-10.00,-27.07
21916,-9.57,1.45,-4.49,0.39,0.24,-0.11,-28.83,-6.92,-28.26
21927,-9.57,1.45,-4.49,0.39,0.24,-0.11,-28.83,-6.92,-28.26
21938,-7.98,1.86,-5.67,0.20,0.46,-0.04,-28.83,-6.92,-28.26
21949,-7.98,1.86,-5.67,0.20,0.46,-0.04,-28.83,-6.92,-28.26
21960,-7.09,2.70,-6.87,0.10,0.25,-0.12,-28.83,-6.92,-28.26
21971,-7.09,2.70,-6.87,0.10,0.25,-0.12,-28.83,-6.92,-28.26
21982,-7.73,2.09,-5.73,0.23,-0.15,-0.23,-28.83,-6.92,-28.26
21993,-9.54,1.83,-4.22,0.20,-0.23,-0.11,-28.83,-6.92,-28.26
22004,-9.54,1.83,-4.22,0.20,-0.23,-0.11,-28.83,-6.92,-28.26
22015,-8.33,1.43,-5.33,0.15,0.01,-0.11,-28.83,-6.92,-28.26
22026,-8.33,1.43,-5.33,0.15,0.01,-0.11,-28.83,-6.92,-28.26
22037,-8.82,0.45,-5.45,0.13,-0.04,-0.01,-26.02,-10.54,-28.26
22048,-8.82,0.45,-5.45,0.13,-0.04,-0.01,-26.02,-10.54,-28.26
22059,-8.73,1.37,-5.51,-0.09,-0.16,0.24,-26.02,-10.54,-28.26
22070,-8.73,1.37,-5.51,-0.09,-0.16,0.24,-26.02,-10.54,-28.26
22081,-8.86,1.32,-4.96,-0.25,-0.23,0.29,-26.02,-10.54,-28.26
22092,-8.26,2.75,-5.59,-0.63,-0.22,0.27,-26.02,-10.54,-28.26
22103,-8.26,2.75,-5.59,-0.63,-0.22,0.27,-26.02,-10.54,-28.26
22114,-8.84,2.98,-4.97,-0.51,-0.24,0.06,-26.02,-10.54,-28.26
22125,-8.84,2.98,-4.97,-0.51,-0.24,0.06,-26.02,-10.54,-28.26
22136,-8.69,2.28,-5.01,-0.47,-0.14,-0.22,-26.02,-10.54,-28.26
22147,-8.69,2.28,-5.01,-0.47,-0.14,-0.22,-26.02,-10.54,-28.26
22158,-8.29,2.19,-5.34,-0.44,-0.06,-0.32,-28.48,-7.28,-28.94
22169,-8.29,2.19,-5.34,-0.44,-0.06,-0.32,-28.48,-7.28,-28.94
22180,-8.55,1.36,-5.46,-0.26,0.01,-0.34,-28.48,-7.28,-28.94
22191,-8.55,1.36,-5.46,-0.26,0.01,-0.34,-28.48,-7.28,-28.94
22202,-8.88,0.85,-4.94,-0.04,0.03,-0.24,-28.48,-7.28,-28.94
22213,-8.87,-0.74,-5.97,0.18,0.16,0.06,-28.48,-7.28,-28.94
22224,-8.87,-0.74,-5.97,0.18,0.16,0.06,-28.48,-7.28,-28.94
22235,-10.39,-0.83,-3.61,0.21,0.12,0.78,-28.48,-7.28,-28.94
