time,ax,ay,az,gx,gy,gz,mx,my,mz
402,-0.44,6.31,-8.09,0.00,0.00,-0.01,-21.28,14.68,-28.77
412,-0.44,6.31,-8.12,0.00,0.00,-0.01,-20.88,15.28,-28.04
423,-0.44,6.31,-8.12,0.00,0.00,-0.01,-20.88,15.28,-28.04
434,-0.43,6.33,-8.09,0.00,0.00,-0.01,-20.88,15.28,-28.04
445,-0.43,6.33,-8.09,0.00,0.00,-0.01,-20.88,15.28,-28.04
456,-0.45,6.32,-8.11,-0.00,0.00,-0.01,-20.88,15.28,-28.04
467,-0.44,6.32,-8.07,0.00,0.00,-0.01,-20.88,15.28,-28.04
605,-0.46,6.30,-8.07,0.00,0.00,-0.01,-20.88,12.57,-29.50
615,-0.45,6.31,-8.07,0.00,0.00,-0.01,-20.88,12.57,-29.50
626,-0.45,6.31,-8.07,0.00,0.00,-0.01,-20.88,12.57,-29.50
637,-0.44,6.32,-8.08,0.00,0.00,-0.01,-20.88,12.57,-29.50
648,-0.45,6.31,-8.07,0.00,0.00,-0.01,-20.88,12.57,-29.50
659,-0.45,6.31,-8.07,0.00,0.00,-0.01,-20.88,12.57,-29.50
670,-0.46,6.31,-8.06,0.00,0.00,-0.01,-21.08,13.93,-29.68
681,-0.46,6.31,-8.06,0.00,0.00,-0.01,-21.08,13.93,-29.68
692,-0.45,6.29,-8.09,0.00,0.00,-0.01,-21.08,13.93,-29.68
703,-0.45,6.29,-8.09,0.00,0.00,-0.01,-21.08,13.93,-29.68
714,-0.44,6.30,-8.05,0.00,0.00,-0.01,-21.08,13.93,-29.68
725,-0.44,6.30,-8.05,0.00,0.00,-0.01,-21.08,13.93,-29.68
736,-0.44,6.32,-8.08,-0.00,0.00,-0.01,-21.08,13.93,-29.68
747,-0.45,6.30,-8.07,0.00,0.00,-0.01,-21.08,13.93,-29.68
758,-0.45,6.30,-8.07,0.00,0.00,-0.01,-21.08,13.93,-29.68
769,-0.45,6.32,-8.09,-0.00,0.00,-0.01,-21.08,13.93,-29.68
780,-0.45,6.32,-8.09,-0.00,0.00,-0.01,-21.08,13.93,-29.68
882,-0.46,6.30,-8.07,0.00,0.00,-0.01,-20.68,15.13,-28.95
893,-0.45,6.29,-8.10,0.00,0.00,-0.01,-20.68,15.13,-28.95
904,-0.45,6.29,-8.10,0.00,0.00,-0.01,-20.68,15.13,-28.95
915,-0.45,6.30,-8.11,-0.00,0.00,-0.01,-19.67,13.47,-28.40
926,-0.45,6.30,-8.11,-0.00,0.00,-0.01,-19.67,13.47,-28.40
937,-0.44,6.31,-8.06,-0.00,0.00,-0.01,-19.67,13.47,-28.40
948,-0.44,6.31,-8.07,0.00,0.00,-0.01,-19.67,13.47,-28.40
959,-0.44,6.31,-8.07,0.00,0.00,-0.01,-19.67,13.47,-28.40
970,-0.44,6.31,-8.07,0.00,0.00,-0.01,-19.67,13.47,-28.40
981,-0.44,6.31,-8.07,0.00,0.00,-0.01,-19.67,13.47,-28.40
992,-0.45,6.30,-8.05,0.00,0.00,-0.01,-19.67,13.47,-28.40
1003,-0.45,6.30,-8.05,0.00,0.00,-0.01,-19.67,13.47,-28.40
1014,-0.46,6.31,-8.09,0.00,0.00,-0.01,-19.67,13.47,-28.40
1116,-0.45,6.31,-8.06,-0.00,0.00,-0.01,-21.08,13.62,-28.95
1126,-0.45,6.31,-8.06,-0.00,0.00,-0.01,-21.08,13.62,-28.95
1137,-0.46,6.32,-8.07,-0.00,0.00,-0.01,-21.08,13.62,-28.95
1148,-0.46,6.30,-8.09,-0.00,-0.00,-0.01,-21.08,13.62,-28.95
1159,-0.46,6.30,-8.09,-0.00,-0.00,-0.01,-21.08,13.62,-28.95
1170,-0.45,6.30,-8.10,0.00,0.00,-0.01,-20.88,13.77,-28.77
1181,-0.45,6.30,-8.10,0.00,0.00,-0.01,-20.88,13.77,-28.77
1192,-0.45,6.30,-8.10,-0.00,0.00,-0.01,-20.88,13.77,-28.77
1203,-0.45,6.30,-8.10,-0.00,0.00,-0.01,-20.88,13.77,-28.77
1214,-0.44,6.31,-8.07,-0.00,0.00,-0.01,-20.88,13.77,-28.77
1225,-0.44,6.31,-8.07,-0.00,0.00,-0.01,-20.88,13.77,-28.77
1236,-0.47,6.31,-8.07,-0.00,0.00,-0.01,-20.88,13.77,-28.77
1247,-0.47,6.31,-8.07,-0.00,0.00,-0.01,-20.88,13.77,-28.77
1258,-0.46,6.32,-8.10,0.00,0.00,-0.01,-20.88,13.77,-28.77
1269,-0.46,6.31,-8.10,-0.00,0.00,-0.01,-20.88,13.77,-28.77
1280,-0.46,6.31,-8.10,-0.00,0.00,-0.01,-20.88,13.77,-28.77
1291,-0.45,6.29,-8.09,-0.00,0.00,-0.01,-21.28,13.17,-29.13
1393,-0.45,6.30,-8.09,0.00,0.00,-0.01,-21.28,13.17,-29.13
1403,-0.45,6.30,-8.09,0.00,0.00,-0.01,-21.28,13.17,-29.13
1414,-0.46,6.31,-8.08,0.00,0.00,-0.01,-20.88,13.17,-28.77
1425,-0.46,6.31,-8.08,0.00,0.00,-0.01,-20.88,13.17,-28.77
1436,-0.46,6.32,-8.10,-0.00,0.00,-0.01,-20.88,13.17,-28.77
1447,-0.46,6.32,-8.10,-0.00,0.00,-0.01,-20.88,13.17,-28.77
1458,-0.46,6.30,-8.10,0.00,0.00,-0.01,-20.88,13.17,-28.77
1469,-0.46,6.31,-8.07,-0.00,0.00,-0.01,-20.88,13.17,-28.77
1480,-0.46,6.31,-8.07,-0.00,0.00,-0.01,-20.88,13.17,-28.77
1491,-0.45,6.32,-8.05,-0.00,0.00,-0.01,-20.88,13.17,-28.77
1502,-0.45,6.32,-8.05,-0.00,0.00,-0.01,-20.88,13.17,-28.77
1513,-0.45,6.30,-8.06,-0.00,0.00,-0.01,-20.88,13.17,-28.77
1524,-0.45,6.30,-8.06,-0.00,0.00,-0.01,-20.88,13.17,-28.77
1624,-0.46,6.31,-8.08,-0.00,0.00,-0.01,-20.88,14.08,-29.86
1634,-0.45,6.30,-8.10,-0.00,0.00,-0.01,-20.88,14.08,-29.86
1645,-0.45,6.30,-8.10,-0.00,0.00,-0.01,-20.88,14.08,-29.86
1656,-0.44,6.31,-8.09,0.00,0.00,-0.01,-20.88,14.08,-29.86
1667,-0.44,6.31,-8.09,0.00,0.00,-0.01,-20.88,14.08,-29.86
1678,-0.45,6.30,-8.10,-0.00,0.00,-0.01,-20.68,14.53,-30.04
1689,-0.45,6.31,-8.10,0.00,0.00,-0.01,-20.68,14.53,-30.04
1700,-0.45,6.31,-8.10,0.00,0.00,-0.01,-20.68,14.53,-30.04
1711,-0.46,6.31,-8.10,-0.00,0.00,-0.01,-20.68,14.53,-30.04
1722,-0.46,6.31,-8.10,-0.00,0.00,-0.01,-20.68,14.53,-30.04
1733,-0.45,6.32,-8.08,-0.00,0.00,-0.01,-20.68,14.53,-30.04
1744,-0.45,6.32,-8.08,-0.00,0.00,-0.01,-20.68,14.53,-30.04
1755,-0.45,6.31,-8.08,-0.00,0.00,-0.01,-20.68,14.53,-30.04
1766,-0.45,6.31,-8.08,-0.00,0.00,-0.01,-20.68,14.53,-30.04
1777,-0.45,6.31,-8.09,-0.00,0.00,-0.01,-20.68,14.53,-30.04
1788,-0.46,6.31,-8.10,0.00,0.00,-0.01,-19.87,14.53,-29.68
1799,-0.46,6.31,-8.10,0.00,0.00,-0.01,-19.87,14.53,-29.68
1907,-0.44,6.30,-8.09,0.00,0.00,-0.01,-19.87,14.53,-29.68
1917,-0.44,6.33,-8.11,-0.00,0.00,-0.01,-19.87,14.53,-29.68
1928,-0.45,6.31,-8.09,-0.00,0.00,-0.01,-19.67,13.47,-29.86
1939,-0.45,6.31,-8.09,-0.00,0.00,-0.01,-19.67,13.47,-29.86
1950,-0.46,6.30,-8.11,-0.00,0.00,-0.01,-19.67,13.47,-29.86
1961,-0.46,6.30,-8.11,-0.00,0.00,-0.01,-19.67,13.47,-29.86
1972,-0.45,6.30,-8.10,0.00,0.00,-0.01,-19.67,13.47,-29.86
1983,-0.45,6.30,-8.10,0.00,0.00,-0.01,-19.67,13.47,-29.86
1994,-0.45,6.31,-8.07,-0.00,0.00,-0.01,-19.67,13.47,-29.86
2005,-0.45,6.31,-8.07,-0.00,0.00,-0.01,-19.67,13.47,-29.86
2016,-0.45,6.31,-8.06,-0.00,0.00,-0.01,-19.67,13.47,-29.86
2027,-0.45,6.31,-8.06,-0.00,0.00,-0.01,-19.67,13.47,-29.86
2038,-0.46,6.29,-8.07,0.00,0.00,-0.01,-19.67,13.47,-29.86
2179,-0.45,6.30,-8.09,-0.00,0.00,-0.01,-21.48,13.02,-30.77
2189,-0.45,6.32,-8.10,-0.00,0.00,-0.01,-21.48,13.02,-30.77
2200,-0.45,6.32,-8.10,-0.00,0.00,-0.01,-21.48,13.02,-30.77
2211,-0.46,6.31,-8.07,-0.00,0.00,-0.01,-21.48,13.02,-30.77
2222,-0.46,6.31,-8.07,-0.00,0.00,-0.01,-21.48,13.02,-30.77
2233,-0.44,6.31,-8.08,0.00,0.00,-0.01,-21.48,13.02,-30.77
2244,-0.44,6.31,-8.08,0.00,0.00,-0.01,-21.48,13.02,-30.77
2255,-0.45,6.28,-8.12,0.00,0.00,-0.01,-21.48,13.02,-30.77
2266,-0.45,6.28,-8.12,0.00,0.00,-0.01,-21.48,13.02,-30.77
2277,-0.45,6.29,-8.08,-0.00,0.00,-0.01,-21.48,13.02,-30.77
2288,-0.45,6.29,-8.08,-0.00,0.00,-0.01,-21.48,13.02,-30.77
2299,-0.46,6.30,-8.11,-0.00,0.00,-0.01,-20.27,13.02,-29.31
2310,-0.46,6.30,-8.11,0.00,0.00,-0.01,-20.27,13.02,-29.31
2414,-0.47,6.31,-8.07,0.00,0.00,-0.01,-20.27,13.02,-29.31
2424,-0.47,6.31,-8.07,0.00,0.00,-0.01,-20.27,13.02,-29.31
2435,-0.46,6.29,-8.11,0.00,0.00,-0.01,-19.47,13.32,-28.95
2446,-0.46,6.29,-8.11,0.00,0.00,-0.01,-19.47,13.32,-28.95
2457,-0.46,6.30,-8.08,-0.00,0.00,-0.01,-19.47,13.32,-28.95
2468,-0.46,6.30,-8.08,-0.00,0.00,-0.01,-19.47,13.32,-28.95
2479,-0.47,6.31,-8.07,-0.00,0.00,-0.01,-19.47,13.32,-28.95
2490,-0.47,6.30,-8.06,-0.00,0.00,-0.01,-19.47,13.32,-28.95
2501,-0.47,6.30,-8.06,-0.00,0.00,-0.01,-19.47,13.32,-28.95
2512,-0.46,6.31,-8.09,-0.00,0.00,-0.01,-19.47,13.32,-28.95
2523,-0.46,6.31,-8.09,-0.00,0.00,-0.01,-19.47,13.32,-28.95
2534,-0.46,6.31,-8.07,0.00,0.00,-0.01,-19.47,13.32,-28.95
2545,-0.46,6.31,-8.07,0.00,0.00,-0.01,-19.47,13.32,-28.95
2648,-0.45,6.29,-8.09,-0.00,0.00,-0.01,-21.08,13.62,-30.41
2658,-0.46,6.29,-8.08,-0.00,0.00,-0.01,-21.08,13.62,-30.41
2669,-0.47,6.31,-8.10,0.00,0.00,-0.01,-19.67,12.87,-29.13
2680,-0.47,6.31,-8.10,0.00,0.00,-0.01,-19.67,12.87,-29.13
2691,-0.45,6.30,-8.10,0.00,0.00,-0.01,-19.67,12.87,-29.13
2702,-0.45,6.30,-8.10,0.00,0.00,-0.01,-19.67,12.87,-29.13
2713,-0.46,6.31,-8.09,0.00,0.00,-0.01,-19.67,12.87,-29.13
2724,-0.46,6.31,-8.09,0.00,0.00,-0.01,-19.67,12.87,-29.13
2735,-0.46,6.31,-8.09,0.00,0.00,-0.01,-19.67,12.87,-29.13
2746,-0.46,6.31,-8.09,0.00,0.00,-0.01,-19.67,12.87,-29.13
2757,-0.45,6.32,-8.08,-0.00,0.00,-0.01,-19.67,12.87,-29.13
2768,-0.45,6.32,-8.08,-0.00,0.00,-0.01,-19.67,12.87,-29.13
2779,-0.46,6.31,-8.09,-0.00,0.00,-0.01,-19.67,12.87,-29.13
2886,-0.45,6.30,-8.10,-0.00,0.00,-0.01,-20.88,13.17,-28.77
2896,-0.44,6.31,-8.10,-0.00,0.00,-0.01,-20.88,13.17,-28.77
2907,-0.44,6.31,-8.10,-0.00,0.00,-0.01,-20.88,13.17,-28.77
2918,-0.44,6.30,-8.08,-0.00,0.00,-0.01,-20.88,13.17,-28.77
2929,-0.47,6.29,-8.12,-0.00,0.00,-0.01,-20.07,12.26,-28.77
2940,-0.47,6.29,-8.12,-0.00,0.00,-0.01,-20.07,12.26,-28.77
2951,-0.46,6.31,-8.08,-0.00,0.00,-0.01,-20.07,12.26,-28.77
2962,-0.46,6.31,-8.08,-0.00,0.00,-0.01,-20.07,12.26,-28.77
2973,-0.45,6.31,-8.06,-0.00,0.00,-0.01,-20.07,12.26,-28.77
2984,-0.45,6.31,-8.06,-0.00,0.00,-0.01,-20.07,12.26,-28.77
2995,-0.46,6.29,-8.05,-0.00,0.00,-0.01,-20.07,12.26,-28.77
3006,-0.46,6.29,-8.05,-0.00,0.00,-0.01,-20.07,12.26,-28.77
3017,-0.45,6.31,-8.08,-0.00,0.00,-0.01,-20.07,12.26,-28.77
3121,-0.46,6.31,-8.07,-0.00,0.00,-0.01,-21.08,13.93,-27.86
3131,-0.45,6.32,-8.07,-0.00,0.00,-0.01,-21.08,13.93,-27.86
3142,-0.45,6.32,-8.07,-0.00,0.00,-0.01,-21.08,13.93,-27.86
3153,-0.46,6.31,-8.07,-0.00,0.00,-0.01,-21.08,13.93,-27.86
3164,-0.46,6.31,-8.07,-0.00,0.00,-0.01,-21.08,13.93,-27.86
3175,-0.46,6.32,-8.08,-0.00,0.00,-0.01,-21.08,13.93,-27.86
3186,-0.46,6.32,-8.08,-0.00,0.00,-0.01,-21.08,13.93,-27.86
3197,-0.45,6.31,-8.09,-0.00,0.00,-0.01,-21.68,12.26,-29.50
3208,-0.45,6.31,-8.09,-0.00,0.00,-0.01,-21.68,12.26,-29.50
3219,-0.46,6.31,-8.09,-0.00,0.00,-0.01,-21.68,12.26,-29.50
3230,-0.47,6.30,-8.07,-0.00,0.00,-0.01,-21.68,12.26,-29.50
3241,-0.47,6.30,-8.07,-0.00,0.00,-0.01,-21.68,12.26,-29.50
3252,-0.45,6.30,-8.09,-0.00,0.00,-0.01,-21.68,12.26,-29.50
3355,-0.45,6.30,-8.08,-0.00,-0.00,-0.01,-20.68,14.23,-29.31
3366,-0.45,6.30,-8.08,-0.00,-0.00,-0.01,-20.68,14.23,-29.31
3377,-0.45,6.30,-8.07,-0.00,0.00,-0.01,-20.68,14.23,-29.31
3388,-0.45,6.30,-8.07,-0.00,0.00,-0.01,-20.68,14.23,-29.31
3399,-0.46,6.30,-8.10,-0.00,0.00,-0.01,-20.68,14.23,-29.31
3410,-0.45,6.31,-8.07,-0.00,0.00,-0.01,-20.68,14.23,-29.31
3421,-0.45,6.31,-8.07,-0.00,0.00,-0.01,-20.68,14.23,-29.31
3432,-0.42,6.38,-8.14,-0.00,0.00,-0.01,-19.47,13.62,-28.22
3443,-0.42,6.38,-8.14,-0.00,0.00,-0.01,-19.47,13.62,-28.22
3454,-0.48,6.32,-8.09,-0.01,-0.02,-0.02,-19.47,13.62,-28.22
3465,-0.48,6.32,-8.09,-0.01,-0.02,-0.02,-19.47,13.62,-28.22
3476,-0.46,6.30,-8.10,-0.00,-0.02,-0.02,-19.47,13.62,-28.22
3581,-0.52,6.34,-8.04,0.03,-0.27,0.35,-18.46,13.77,-29.13
3591,-0.49,6.31,-8.05,0.00,-0.15,0.16,-18.46,13.77,-29.13
3602,-0.49,6.31,-8.05,0.00,-0.15,0.16,-18.46,13.77,-29.13
3613,-0.53,6.34,-8.02,-0.02,-0.12,0.10,-18.46,13.77,-29.13
3624,-0.53,6.34,-8.02,-0.02,-0.12,0.10,-18.46,13.77,-29.13
3635,-0.49,6.30,-8.07,0.01,-0.03,0.04,-18.46,13.77,-29.13
3646,-0.49,6.30,-8.07,0.01,-0.03,0.04,-18.46,13.77,-29.13
3657,-0.48,6.29,-8.09,0.01,0.01,0.00,-18.46,13.77,-29.13
3668,-0.48,6.29,-8.09,0.01,0.01,0.00,-18.46,13.77,-29.13
3679,-0.49,6.31,-8.06,-0.00,-0.00,-0.01,-18.46,13.77,-29.13
3690,-0.64,6.62,-7.84,-0.02,0.21,-0.23,-19.67,13.77,-30.23
3701,-0.64,6.62,-7.84,-0.02,0.21,-0.23,-19.67,13.77,-30.23
3712,-0.39,6.22,-8.15,0.01,0.48,-0.61,-19.67,13.77,-30.23
3852,-0.80,6.98,-9.14,1.56,-0.04,0.08,-20.68,12.42,-31.14
3862,-0.80,6.98,-9.14,1.56,-0.04,0.08,-20.68,12.42,-31.14
3873,-0.56,5.14,-7.97,2.48,-0.00,0.03,-20.68,12.42,-31.14
3884,-0.56,5.14,-7.97,2.48,-0.00,0.03,-20.68,12.42,-31.14
3895,-0.36,4.60,-8.05,1.89,0.04,-0.03,-20.68,12.42,-31.14
3906,-0.36,4.60,-8.05,1.89,0.04,-0.03,-20.68,12.42,-31.14
3917,-0.47,5.18,-8.75,1.01,0.05,-0.06,-20.68,12.42,-31.14
3928,-0.47,5.18,-8.75,1.01,0.05,-0.06,-20.68,12.42,-31.14
3939,-0.78,6.53,-8.53,1.03,0.11,-0.12,-20.47,8.34,-34.60
3950,-0.88,6.78,-8.64,1.57,0.35,-0.48,-20.47,8.34,-34.60
3961,-0.88,6.78,-8.64,1.57,0.35,-0.48,-20.47,8.34,-34.60
3972,-0.43,5.32,-9.01,2.16,0.60,-0.94,-20.47,8.34,-34.60
3983,-0.43,5.32,-9.01,2.16,0.60,-0.94,-20.47,8.34,-34.60
4085,-0.57,3.62,-13.84,1.51,-0.77,-0.74,-19.07,0.04,-37.33
4096,-0.36,3.33,-10.60,1.41,-1.29,-0.89,-19.07,0.04,-37.33
4107,-0.36,3.33,-10.60,1.41,-1.29,-0.89,-19.07,0.04,-37.33
4118,-0.95,1.88,-9.86,1.31,-1.40,-0.97,-19.07,0.04,-37.33
4129,-0.95,1.88,-9.86,1.31,-1.40,-0.97,-19.07,0.04,-37.33
4140,-1.76,1.21,-11.85,1.45,-1.23,-0.88,-19.07,0.04,-37.33
4151,-0.55,0.21,-14.31,2.24,-1.21,-0.90,-19.07,0.04,-37.33
4162,-0.55,0.21,-14.31,2.24,-1.21,-0.90,-19.07,0.04,-37.33
4173,-0.25,-0.65,-14.92,2.97,-1.71,-0.94,-19.07,0.04,-37.33
4184,-0.25,-0.65,-14.92,2.97,-1.71,-0.94,-19.07,0.04,-37.33
4195,-0.95,0.04,-13.62,3.10,-2.53,-0.87,-26.91,-10.38,-36.06
4206,-0.95,0.04,-13.62,3.10,-2.53,-0.87,-26.91,-10.38,-36.06
4217,-1.66,1.36,-11.73,2.59,-3.34,-0.93,-26.91,-10.38,-36.06
4321,-2.39,-1.40,-5.63,0.42,-5.21,-2.37,-41.38,-21.85,-15.28
4331,-5.01,-2.59,-4.24,1.09,-4.93,-2.35,-41.38,-21.85,-15.28
4342,-5.01,-2.59,-4.24,1.09,-4.93,-2.35,-41.38,-21.85,-15.28
4353,-5.17,-2.98,-3.50,1.40,-4.58,-2.29,-41.38,-21.85,-15.28
4364,-5.17,-2.98,-3.50,1.40,-4.58,-2.29,-41.38,-21.85,-15.28
4375,-6.18,-2.30,-2.59,2.00,-4.48,-2.20,-41.38,-21.85,-15.28
4386,-6.18,-2.30,-2.59,2.00,-4.48,-2.20,-41.38,-21.85,-15.28
4397,-6.07,-1.13,-0.69,2.81,-4.37,-2.41,-41.38,-21.85,-15.28
4408,-6.07,-1.13,-0.69,2.81,-4.37,-2.41,-41.38,-21.85,-15.28
4419,-5.52,-1.46,0.73,2.90,-3.94,-2.91,-41.38,-21.85,-15.28
4430,-5.52,-1.46,0.73,2.90,-3.94,-2.91,-41.38,-21.85,-15.28
4441,-2.95,-8.65,-3.09,2.71,-3.19,-3.55,-41.38,-21.85,-15.28
4452,-6.41,-13.38,11.32,7.32,-2.28,-1.83,-35.55,-32.27,14.07
4554,-5.89,-7.44,0.39,0.10,-0.26,-0.16,-35.55,-32.27,14.07
4564,-5.89,-7.44,0.39,0.10,-0.26,-0.16,-35.55,-32.27,14.07
4575,-5.89,-7.20,-0.53,-0.14,0.29,0.12,-33.94,-32.27,18.81
4586,-5.89,-7.20,-0.53,-0.14,0.29,0.12,-33.94,-32.27,18.81
4597,-6.68,-7.21,-1.94,-0.27,0.48,0.31,-33.94,-32.27,18.81
4608,-6.68,-7.21,-1.94,-0.27,0.48,0.31,-33.94,-32.27,18.81
4619,-6.86,-7.40,-0.81,-0.15,0.31,0.52,-33.94,-32.27,18.81
4630,-6.86,-7.40,-0.81,-0.15,0.31,0.52,-33.94,-32.27,18.81
4732,-9.06,-2.58,-3.76,-0.94,0.37,0.69,-37.56,-31.36,15.53
4742,-9.06,-2.58,-3.76,-0.94,0.37,0.69,-37.56,-31.36,15.53
4753,-8.36,-3.53,-3.11,-0.33,0.07,0.24,-37.56,-31.36,15.53
4764,-8.36,-3.53,-3.11,-0.33,0.07,0.24,-37.56,-31.36,15.53
4775,-8.64,-4.26,-2.55,-0.24,-0.19,0.07,-37.56,-31.36,15.53
4786,-8.64,-4.26,-2.55,-0.24,-0.19,0.07,-37.56,-31.36,15.53
4797,-9.11,-4.54,-3.40,-0.32,-0.44,0.08,-37.56,-31.36,15.53
4808,-9.11,-4.54,-3.40,-0.32,-0.44,0.08,-37.56,-31.36,15.53
4824,-8.39,-3.94,-2.85,-0.29,-0.93,0.09,-39.17,-31.36,14.07
4830,-8.39,-3.94,-2.85,-0.29,-0.93,0.09,-39.17,-31.36,14.07
4841,-7.81,-4.35,-1.87,0.13,-1.29,0.06,-39.17,-31.36,14.07
4852,-8.20,-5.14,0.16,0.36,-1.33,0.07,-39.17,-31.36,14.07
4863,-8.20,-5.14,0.16,0.36,-1.33,0.07,-39.17,-31.36,14.07
4969,-7.82,-6.16,-1.39,-0.22,-0.49,-0.26,-37.76,-30.61,15.71
4979,-7.94,-6.88,-1.97,0.29,-0.54,-0.30,-37.76,-30.61,15.71
4990,-7.94,-6.88,-1.97,0.29,-0.54,-0.30,-37.76,-30.61,15.71
5001,-8.46,-7.41,-1.70,0.78,-0.65,-0.26,-37.76,-30.61,15.71
5012,-9.00,-7.05,-1.30,0.93,-0.75,-0.17,-37.76,-30.61,15.71
5023,-9.00,-7.05,-1.30,0.93,-0.75,-0.17,-37.76,-30.61,15.71
5034,-8.87,-6.59,-0.45,0.87,-0.76,-0.12,-37.76,-30.61,15.71
5045,-8.87,-6.59,-0.45,0.87,-0.76,-0.12,-37.76,-30.61,15.71
5056,-8.59,-6.50,0.19,0.69,-0.55,-0.13,-37.76,-30.61,15.71
5067,-8.59,-6.50,0.19,0.69,-0.55,-0.13,-37.76,-30.61,15.71
5078,-8.31,-6.29,-0.07,0.30,-0.24,-0.13,-35.95,-31.66,21.72
5089,-8.31,-6.29,-0.07,0.30,-0.24,-0.13,-35.95,-31.66,21.72
5192,-7.77,-5.13,0.34,-0.16,-0.11,-0.09,-34.75,-31.36,21.36
5202,-7.77,-5.13,0.34,-0.16,-0.11,-0.09,-34.75,-31.36,21.36
5213,-7.54,-5.37,0.26,-0.12,-0.07,-0.15,-34.75,-31.36,21.36
5224,-7.54,-5.37,0.26,-0.12,-0.07,-0.15,-34.75,-31.36,21.36
5235,-7.64,-5.59,0.10,-0.09,-0.03,-0.17,-34.75,-31.36,21.36
5246,-7.64,-5.59,0.10,-0.09,-0.03,-0.17,-34.75,-31.36,21.36
5257,-7.67,-5.46,-0.17,-0.12,-0.03,-0.17,-34.75,-31.36,21.36
5268,-7.67,-5.46,-0.17,-0.12,-0.03,-0.17,-34.75,-31.36,21.36
5279,-7.65,-5.55,-0.11,-0.06,-0.06,-0.20,-34.75,-31.36,21.36
5290,-7.65,-5.55,-0.11,-0.06,-0.06,-0.20,-34.75,-31.36,21.36
5301,-7.73,-5.64,-0.10,-0.09,-0.08,-0.23,-34.75,-31.36,21.36
5312,-7.73,-5.81,-0.40,-0.13,-0.05,-0.26,-34.75,-31.36,21.36
5323,-7.73,-5.81,-0.40,-0.13,-0.05,-0.26,-34.75,-31.36,21.36
5431,-7.67,-6.22,-0.13,-0.14,0.06,-0.21,-35.35,-32.12,20.45
5441,-8.14,-6.19,-0.64,-0.19,0.11,-0.10,-35.35,-32.12,20.45
5452,-8.32,-5.98,-0.89,-0.09,0.08,-0.04,-33.34,-32.72,20.45
5463,-8.32,-5.98,-0.89,-0.09,0.08,-0.04,-33.34,-32.72,20.45
5474,-8.47,-6.01,-0.56,0.08,0.01,-0.00,-33.34,-32.72,20.45
5485,-8.47,-6.01,-0.56,0.08,0.01,-0.00,-33.34,-32.72,20.45
5496,-8.55,-5.87,-0.23,0.09,-0.00,0.04,-33.34,-32.72,20.45
5507,-8.55,-5.87,-0.23,0.09,-0.00,0.04,-33.34,-32.72,20.45
5518,-8.36,-5.58,-0.03,0.01,-0.02,0.05,-33.34,-32.72,20.45
5529,-8.36,-5.58,-0.03,0.01,-0.02,0.05,-33.34,-32.72,20.45
5540,-7.96,-5.75,0.47,0.01,-0.05,0.02,-33.34,-32.72,20.45
5551,-7.96,-5.75,0.47,0.01,-0.05,0.02,-33.34,-32.72,20.45
5562,-7.77,-5.94,0.67,-0.05,-0.02,0.01,-33.34,-32.72,20.45
5668,-7.37,-6.90,-0.06,-0.10,0.05,-0.22,-34.54,-31.81,21.18
5679,-7.19,-6.83,-0.02,-0.09,0.06,-0.19,-34.54,-31.81,21.18
5690,-7.19,-6.83,-0.02,-0.09,0.06,-0.19,-34.54,-31.81,21.18
5701,-6.86,-7.16,-0.06,0.02,0.11,-0.18,-34.54,-31.81,21.18
5712,-6.96,-7.47,-0.23,0.12,0.17,-0.09,-33.34,-33.32,21.54
5723,-6.96,-7.47,-0.23,0.12,0.17,-0.09,-33.34,-33.32,21.54
5734,-7.16,-7.33,-0.58,0.15,0.18,0.04,-33.34,-33.32,21.54
5745,-7.16,-7.33,-0.58,0.15,0.18,0.04,-33.34,-33.32,21.54
5756,-7.38,-6.96,-0.32,0.28,0.13,0.14,-33.34,-33.32,21.54
5767,-7.38,-6.96,-0.32,0.28,0.13,0.14,-33.34,-33.32,21.54
5778,-7.50,-6.84,0.03,0.40,0.12,0.16,-33.34,-33.32,21.54
5789,-7.50,-6.84,0.03,0.40,0.12,0.16,-33.34,-33.32,21.54
5941,-7.59,-6.78,0.01,0.42,0.18,0.16,-33.34,-33.32,21.54
5943,-8.11,-6.40,-1.94,1.05,0.13,0.14,-34.34,-32.57,19.90
5953,-7.71,-5.87,-0.99,1.84,-0.37,0.14,-37.16,-29.85,22.09
5964,-7.71,-5.87,-0.99,1.84,-0.37,0.14,-37.16,-29.85,22.09
5975,-7.43,-5.80,0.44,2.33,-0.60,0.02,-37.16,-29.85,22.09
5986,-7.43,-5.80,0.44,2.33,-0.60,0.02,-37.16,-29.85,22.09
5997,-7.11,-5.95,1.85,2.31,-0.58,-0.02,-37.16,-29.85,22.09
6008,-7.11,-5.95,1.85,2.31,-0.58,-0.02,-37.16,-29.85,22.09
6019,-6.05,-4.64,1.80,1.53,-0.50,0.01,-37.16,-29.85,22.09
6030,-6.05,-4.64,1.80,1.53,-0.50,0.01,-37.16,-29.85,22.09
6041,-6.18,-3.48,1.20,1.17,-0.56,-0.11,-37.16,-29.85,22.09
6052,-6.76,-4.65,2.55,1.93,-0.70,-0.17,-37.16,-29.85,22.09
6063,-6.76,-4.65,2.55,1.93,-0.70,-0.17,-37.16,-29.85,22.09
6168,-6.96,-4.26,2.56,2.86,-0.63,0.14,-34.34,-25.32,30.84
6179,-7.42,-4.22,3.72,3.27,-0.73,0.18,-34.34,-25.32,30.84
6190,-7.42,-4.22,3.72,3.27,-0.73,0.18,-34.34,-25.32,30.84
6201,-8.34,-3.06,3.57,3.29,-0.62,0.00,-34.34,-25.32,30.84
6212,-7.08,-1.94,3.13,3.91,-0.60,-0.41,-34.34,-25.32,30.84
6223,-7.08,-1.94,3.13,3.91,-0.60,-0.41,-30.12,-15.81,37.95
6234,-6.43,-1.96,3.73,5.18,-0.81,-0.62,-30.12,-15.81,37.95
6245,-6.43,-1.96,3.73,5.18,-0.81,-0.62,-30.12,-15.81,37.95
6256,-7.48,-2.48,6.31,6.04,-0.87,-0.49,-30.12,-15.81,37.95
6267,-7.48,-2.48,6.31,6.04,-0.87,-0.49,-30.12,-15.81,37.95
6278,-8.62,-2.36,8.47,4.88,-0.66,-0.29,-30.12,-15.81,37.95
6289,-8.62,-2.36,8.47,4.88,-0.66,-0.29,-30.12,-15.81,37.95
6300,-8.98,-1.94,9.64,1.98,-0.23,-0.23,-30.12,-15.81,37.95
6403,-8.24,-3.20,4.37,-5.51,1.98,-0.02,-29.12,-7.51,38.86
6414,-8.29,-3.66,2.11,-4.57,2.22,0.02,-29.12,-7.51,38.86
6425,-8.29,-3.66,2.11,-4.57,2.22,0.02,-29.12,-7.51,38.86
6436,-8.13,-4.35,2.86,-4.94,2.32,0.04,-29.12,-7.51,38.86
6447,-8.13,-4.35,2.86,-4.94,2.32,0.04,-29.12,-7.51,38.86
6458,-9.43,-3.67,0.94,-6.49,2.29,0.28,-39.17,-24.12,25.73
6469,-9.43,-3.67,0.94,-6.49,2.29,0.28,-39.17,-24.12,25.73
6480,-9.90,-6.42,1.87,-6.31,2.43,0.59,-39.17,-24.12,25.73
6491,-9.90,-6.42,1.87,-6.31,2.43,0.59,-39.17,-24.12,25.73
6502,-10.99,-5.73,-0.11,-7.62,2.91,1.24,-39.17,-24.12,25.73
6513,-8.93,-0.76,-5.78,-7.41,2.88,1.81,-39.17,-24.12,25.73
6524,-8.93,-0.76,-5.78,-7.41,2.88,1.81,-39.17,-24.12,25.73
6535,-5.92,0.92,-8.35,-4.17,2.18,1.69,-39.17,-24.12,25.73
6636,-6.44,-5.04,-4.78,0.77,-0.74,-0.19,-43.19,-25.02,6.41
6646,-6.44,-5.04,-4.78,0.77,-0.74,-0.19,-43.19,-25.02,6.41
6657,-6.91,-3.91,-2.51,1.45,-1.17,-0.01,-43.19,-25.02,6.41
6668,-6.91,-3.91,-2.51,1.45,-1.17,-0.01,-43.19,-25.02,6.41
6679,-9.65,-4.50,0.72,1.71,-1.28,0.05,-43.19,-25.02,6.41
6690,-9.65,-4.50,0.72,1.71,-1.28,0.05,-43.19,-25.02,6.41
6701,-10.89,-5.47,1.75,1.15,-0.88,0.00,-43.19,-25.02,6.41
6712,-10.89,-5.47,1.75,1.15,-0.88,0.00,-43.19,-25.02,6.41
6723,-9.39,-3.58,-0.26,0.08,-0.34,0.05,-42.79,-24.12,15.53
6734,-8.60,-3.80,-1.60,0.03,-0.04,-0.02,-42.79,-24.12,15.53
6745,-8.60,-3.80,-1.60,0.03,-0.04,-0.02,-42.79,-24.12,15.53
6756,-9.23,-6.07,-0.34,0.27,0.06,0.05,-42.79,-24.12,15.53
6767,-9.23,-6.07,-0.34,0.27,0.06,0.05,-42.79,-24.12,15.53
6871,-9.33,-3.67,-1.65,-0.17,0.04,0.21,-43.59,-22.91,14.80
6881,-9.10,-3.82,-1.95,-0.20,0.10,0.05,-43.59,-22.91,14.80
6892,-9.10,-3.82,-1.95,-0.20,0.10,0.05,-43.59,-22.91,14.80
6903,-8.41,-4.50,-1.98,-0.18,0.06,-0.05,-43.59,-22.91,14.80
6914,-8.31,-4.93,-2.05,-0.12,-0.02,-0.01,-43.59,-22.91,14.80
6925,-8.31,-4.93,-2.05,-0.12,-0.02,-0.01,-43.59,-22.91,14.80
6936,-9.00,-4.70,-1.63,-0.11,-0.06,0.12,-43.59,-22.91,14.80
6947,-9.00,-4.70,-1.63,-0.11,-0.06,0.12,-43.59,-22.91,14.80
6958,-9.44,-3.42,-1.86,-0.18,-0.01,0.17,-43.59,-22.91,14.80
6969,-9.44,-3.42,-1.86,-0.18,-0.01,0.17,-43.59,-22.91,14.80
6980,-9.43,-3.67,-1.58,-0.12,0.00,0.07,-42.79,-23.51,12.97
6991,-9.43,-3.67,-1.58,-0.12,0.00,0.07,-42.79,-23.51,12.97
7002,-8.93,-4.13,-1.91,-0.04,0.05,0.03,-42.79,-23.51,12.97
7112,-8.84,-4.16,-1.91,0.19,0.01,0.12,-45.00,-23.36,14.25
7122,-9.07,-3.94,-1.89,0.14,-0.03,0.15,-45.00,-23.36,14.25
7133,-8.78,-4.14,-1.69,0.12,-0.07,0.15,-45.00,-23.36,14.25
7144,-8.78,-4.14,-1.69,0.12,-0.07,0.15,-45.00,-23.36,14.25
7155,-9.01,-4.00,-1.68,0.10,-0.07,0.22,-45.00,-23.36,14.25
7166,-9.01,-4.00,-1.68,0.10,-0.07,0.22,-45.00,-23.36,14.25
7177,-10.22,-3.19,-1.12,0.02,-0.07,0.25,-45.00,-23.36,14.25
7188,-10.22,-3.19,-1.12,0.02,-0.07,0.25,-45.00,-23.36,14.25
7199,-9.37,-3.38,-1.16,-0.19,-0.05,0.18,-45.00,-23.36,14.25
7210,-9.37,-3.38,-1.16,-0.19,-0.05,0.18,-45.00,-23.36,14.25
7221,-9.39,-3.76,-1.35,-0.41,-0.07,0.12,-43.79,-23.36,14.62
7232,-9.39,-3.76,-1.35,-0.41,-0.07,0.12,-43.79,-23.36,14.62
7243,-9.32,-3.48,-1.69,-0.62,-0.10,0.06,-43.79,-23.36,14.62
7346,-8.85,-3.64,-2.07,-0.42,-0.60,-0.36,-43.79,-23.36,14.62
7357,-8.55,-4.17,-3.01,-0.38,-0.63,-0.41,-43.19,-22.00,14.43
7368,-8.55,-4.17,-3.01,-0.38,-0.63,-0.41,-43.19,-22.00,14.43
7379,-8.69,-4.01,-1.90,-0.18,-0.78,-0.46,-43.19,-22.00,14.43
7390,-8.69,-4.01,-1.90,-0.18,-0.78,-0.46,-43.19,-22.00,14.43
7401,-8.97,-4.90,-0.98,0.12,-0.80,-0.52,-43.19,-22.00,14.43
7412,-8.97,-4.90,-0.98,0.12,-0.80,-0.52,-43.19,-22.00,14.43
7423,-8.60,-4.05,-1.15,0.09,-0.83,-0.52,-43.19,-22.00,14.43
7434,-8.37,-4.53,-0.80,0.43,-0.77,-0.57,-43.19,-22.00,14.43
7445,-8.37,-4.53,-0.80,0.43,-0.77,-0.57,-43.19,-22.00,14.43
7456,-8.51,-4.55,-0.52,0.53,-0.69,-0.54,-43.19,-22.00,14.43
7467,-8.51,-4.55,-0.52,0.53,-0.69,-0.54,-43.19,-22.00,14.43
7573,-8.87,-4.71,0.04,0.24,0.13,-0.25,-38.97,-24.27,18.26
7583,-9.08,-5.69,0.92,-0.04,0.30,-0.17,-38.97,-24.27,18.26
7594,-8.98,-4.98,-0.56,-0.49,0.58,0.06,-38.16,-26.08,20.08
7605,-8.98,-4.98,-0.56,-0.49,0.58,0.06,-38.16,-26.08,20.08
7616,-9.03,-5.19,0.02,-0.65,0.70,0.21,-38.16,-26.08,20.08
7627,-9.03,-5.19,0.02,-0.65,0.70,0.21,-38.16,-26.08,20.08
7638,-8.93,-5.12,-0.13,-0.77,0.92,0.42,-38.16,-26.08,20.08
7649,-8.93,-5.12,-0.13,-0.77,0.92,0.42,-38.16,-26.08,20.08
7660,-9.02,-4.62,-1.13,-0.86,1.14,0.64,-38.16,-26.08,20.08
7671,-9.02,-4.62,-1.13,-0.86,1.14,0.64,-38.16,-26.08,20.08
7682,-8.76,-4.06,-2.05,-0.73,1.20,0.78,-38.16,-26.08,20.08
7693,-8.76,-4.06,-2.05,-0.73,1.20,0.78,-38.16,-26.08,20.08
7704,-8.57,-4.42,-1.48,-0.48,1.10,0.82,-38.16,-26.08,20.08
7845,-9.65,-1.90,-4.97,-0.08,0.62,0.70,-41.58,-25.32,13.70
7855,-9.30,-2.52,-2.58,-0.02,0.51,0.64,-45.80,-20.64,10.61
7866,-9.30,-2.52,-2.58,-0.02,0.51,0.64,-45.80,-20.64,10.61
7877,-9.09,-3.95,-1.01,-0.14,0.39,0.58,-45.80,-20.64,10.61
7888,-9.09,-3.95,-1.01,-0.14,0.39,0.58,-45.80,-20.64,10.61
7899,-9.70,-2.04,-3.37,-0.51,0.33,0.53,-45.80,-20.64,10.61
7910,-9.70,-2.04,-3.37,-0.51,0.33,0.53,-45.80,-20.64,10.61
7921,-9.68,-1.83,-2.47,-0.59,0.17,0.46,-45.80,-20.64,10.61
7932,-9.68,-1.83,-2.47,-0.59,0.17,0.46,-45.80,-20.64,10.61
7943,-9.68,-1.85,-3.39,-0.88,-0.04,0.28,-45.80,-20.64,10.61
7954,-9.32,-1.98,-4.25,-0.70,-0.36,0.06,-45.80,-20.64,10.61
7965,-9.32,-1.98,-4.25,-0.70,-0.36,0.06,-45.80,-20.64,10.61
7976,-9.41,-2.50,-2.64,-0.51,-0.68,-0.15,-46.40,-19.59,9.33
8081,-9.11,-2.41,-3.11,-0.49,-0.70,-0.48,-46.40,-19.59,9.33
8091,-9.11,-2.41,-3.11,-0.49,-0.70,-0.48,-46.40,-19.59,9.33
8102,-9.42,-2.42,-3.39,-0.28,-0.81,-0.62,-42.79,-23.51,10.42
8113,-9.42,-2.42,-3.39,-0.28,-0.81,-0.62,-42.79,-23.51,10.42
8124,-9.42,-3.20,-2.67,-0.01,-1.05,-0.88,-42.79,-23.51,10.42
8135,-8.55,-4.25,-1.03,0.38,-1.01,-0.91,-42.79,-23.51,10.42
8146,-8.55,-4.25,-1.03,0.38,-1.01,-0.91,-42.79,-23.51,10.42
8157,-9.25,-3.51,-1.98,0.37,-0.81,-0.76,-42.79,-23.51,10.42
8168,-9.25,-3.51,-1.98,0.37,-0.81,-0.76,-42.79,-23.51,10.42
8179,-8.82,-4.01,-1.35,0.39,-0.67,-0.71,-42.79,-23.51,10.42
8190,-8.82,-4.01,-1.35,0.39,-0.67,-0.71,-42.79,-23.51,10.42
8201,-9.38,-3.96,-0.92,0.27,-0.61,-0.76,-42.79,-23.51,10.42
8302,-9.15,-5.01,-0.13,-0.19,0.33,-0.18,-41.38,-25.17,17.53
8312,-9.15,-5.01,-0.13,-0.19,0.33,-0.18,-41.38,-25.17,17.53
8323,-9.26,-5.21,-1.35,-0.46,0.71,0.05,-41.38,-25.17,17.53
8334,-9.26,-5.21,-1.35,-0.46,0.71,0.05,-41.38,-25.17,17.53
8345,-9.26,-4.96,-1.49,-0.66,0.93,0.42,-41.38,-25.17,17.53
8356,-9.07,-4.28,-1.77,-0.62,0.97,0.67,-40.98,-27.29,14.98
8367,-9.07,-4.28,-1.77,-0.62,0.97,0.67,-40.98,-27.29,14.98
8378,-8.98,-3.66,-2.33,-0.56,1.02,0.83,-40.98,-27.29,14.98
8389,-8.98,-3.66,-2.33,-0.56,1.02,0.83,-40.98,-27.29,14.98
8400,-8.79,-3.87,-1.76,-0.54,1.00,0.94,-40.98,-27.29,14.98
8411,-8.79,-3.87,-1.76,-0.54,1.00,0.94,-40.98,-27.29,14.98
8422,-9.17,-2.91,-2.87,-0.51,0.98,1.01,-40.98,-27.29,14.98
8433,-9.17,-2.91,-2.87,-0.51,0.98,1.01,-40.98,-27.29,14.98
8537,-9.21,-3.35,-1.06,-0.18,0.51,0.60,-45.60,-22.00,7.14
8547,-9.21,-3.35,-1.06,-0.18,0.51,0.60,-45.60,-22.00,7.14
8558,-9.28,-2.25,-3.28,-0.44,0.38,0.52,-45.60,-22.00,7.14
8569,-9.28,-2.25,-3.28,-0.44,0.38,0.52,-45.60,-22.00,7.14
8580,-9.27,-2.06,-3.71,-0.39,0.17,0.43,-45.60,-22.00,7.14
8591,-9.27,-2.06,-3.71,-0.39,0.17,0.43,-45.60,-22.00,7.14
8602,-9.52,-2.12,-3.90,-0.49,-0.13,0.23,-45.60,-22.00,7.14
8613,-9.52,-2.12,-3.90,-0.49,-0.13,0.23,-45.60,-22.00,7.14
8624,-9.17,-1.27,-3.75,-0.46,-0.41,0.04,-45.60,-20.49,6.05
8728,-9.32,-2.38,-3.45,-0.23,-0.66,-0.53,-45.60,-20.49,6.05
8739,-9.40,-2.37,-3.02,-0.12,-0.83,-0.72,-45.00,-21.85,6.96
8750,-9.40,-2.37,-3.02,-0.12,-0.83,-0.72,-45.00,-21.85,6.96
8761,-9.09,-3.09,-2.49,-0.09,-0.82,-0.75,-45.00,-21.85,6.96
8772,-9.09,-3.09,-2.49,-0.09,-0.82,-0.75,-45.00,-21.85,6.96
8783,-9.00,-2.74,-2.03,-0.43,-0.80,-0.74,-45.00,-21.85,6.96
8794,-9.00,-2.74,-2.03,-0.43,-0.80,-0.74,-45.00,-21.85,6.96
8805,-8.91,-1.75,-4.36,-0.40,-0.77,-0.84,-45.00,-21.85,6.96
8816,-9.21,-3.56,-2.13,0.11,-0.90,-1.03,-45.00,-21.85,6.96
8827,-9.21,-3.56,-2.13,0.11,-0.90,-1.03,-45.00,-21.85,6.96
8838,-8.97,-3.49,-1.89,0.28,-0.82,-0.89,-45.00,-21.85,6.96
8849,-8.97,-3.49,-1.89,0.28,-0.82,-0.89,-45.00,-21.85,6.96
8953,-9.27,-4.08,-0.61,-0.00,-0.18,-0.51,-41.78,-24.57,11.33
8964,-9.37,-3.65,-0.91,-0.14,0.08,-0.37,-41.78,-24.57,11.33
8975,-9.42,-4.04,-1.14,-0.18,0.34,-0.30,-41.78,-24.57,11.33
8986,-9.42,-4.04,-1.14,-0.18,0.34,-0.30,-41.78,-24.57,11.33
8997,-9.10,-4.58,-1.55,-0.26,0.50,-0.20,-39.17,-26.83,12.61
9008,-9.10,-4.58,-1.55,-0.26,0.50,-0.20,-39.17,-26.83,12.61
9019,-8.96,-5.38,-1.94,-0.45,0.70,0.02,-39.17,-26.83,12.61
9030,-8.96,-5.38,-1.94,-0.45,0.70,0.02,-39.17,-26.83,12.61
9041,-9.06,-4.32,-2.44,-0.69,0.90,0.43,-39.17,-26.83,12.61
9052,-9.06,-4.32,-2.44,-0.69,0.90,0.43,-39.17,-26.83,12.61
9063,-9.06,-4.24,-2.48,-0.67,0.99,0.73,-39.17,-26.83,12.61
9074,-9.06,-4.24,-2.48,-0.67,0.99,0.73,-39.17,-26.83,12.61
9085,-9.25,-3.72,-1.90,-0.64,1.01,0.99,-39.17,-26.83,12.61
9186,-8.89,-3.13,-2.96,-0.12,0.53,0.88,-43.99,-25.63,7.14
9196,-9.29,-1.75,-4.32,-0.22,0.50,0.83,-43.99,-25.63,7.14
9207,-9.29,-1.75,-4.32,-0.22,0.50,0.83,-43.99,-25.63,7.14
9218,-9.38,-1.36,-2.92,-0.17,0.38,0.73,-43.99,-25.63,7.14
9229,-9.38,-1.36,-2.92,-0.17,0.38,0.73,-43.99,-25.63,7.14
9240,-9.44,-1.70,-3.06,-0.19,0.38,0.61,-44.39,-21.40,3.86
9251,-9.44,-1.70,-3.06,-0.19,0.38,0.61,-44.39,-21.40,3.86
9262,-9.46,-1.13,-4.42,-0.31,0.28,0.48,-44.39,-21.40,3.86
9273,-9.46,-1.13,-4.42,-0.31,0.28,0.48,-44.39,-21.40,3.86
9284,-9.28,-1.93,-4.44,-0.19,0.11,0.32,-44.39,-21.40,3.86
9295,-9.09,-1.77,-4.32,-0.17,-0.06,0.27,-44.39,-21.40,3.86
9306,-9.09,-1.77,-4.32,-0.17,-0.06,0.27,-44.39,-21.40,3.86
9317,-9.40,-2.01,-3.50,-0.25,-0.17,0.17,-44.39,-21.40,3.86
9421,-9.17,-1.59,-3.89,-0.20,-0.53,-0.39,-47.81,-21.55,3.68
9431,-9.17,-1.59,-3.89,-0.20,-0.53,-0.39,-47.81,-21.55,3.68
9442,-9.39,-2.17,-3.02,-0.12,-0.56,-0.46,-47.81,-21.55,3.68
9453,-9.39,-2.17,-3.02,-0.12,-0.56,-0.46,-47.81,-21.55,3.68
9464,-8.81,-1.76,-3.88,-0.15,-0.56,-0.59,-47.81,-21.55,3.68
9475,-8.81,-1.76,-3.88,-0.15,-0.56,-0.59,-47.81,-21.55,3.68
9486,-9.08,-1.97,-3.93,-0.09,-0.71,-0.84,-47.81,-21.55,3.68
9497,-8.97,-2.44,-3.29,-0.08,-0.79,-0.99,-44.59,-23.36,4.77
9508,-8.97,-2.44,-3.29,-0.08,-0.79,-0.99,-44.59,-23.36,4.77
9519,-9.32,-2.71,-3.22,-0.38,-0.86,-0.95,-44.59,-23.36,4.77
9530,-9.32,-2.71,-3.22,-0.38,-0.86,-0.95,-44.59,-23.36,4.77
9541,-9.31,-1.43,-3.84,-0.16,-0.84,-0.88,-44.59,-23.36,4.77
9656,-9.31,-1.43,-3.84,-0.16,-0.84,-0.88,-44.59,-23.36,4.77
9658,-9.15,-3.93,-1.44,0.12,-0.10,-0.56,-41.78,-27.59,11.70
9668,-9.15,-3.93,-1.44,0.12,-0.10,-0.56,-41.78,-27.59,11.70
9679,-9.50,-4.52,-0.82,0.02,0.11,-0.37,-41.78,-27.59,11.70
9690,-9.50,-4.52,-0.82,0.02,0.11,-0.37,-41.78,-27.59,11.70
9701,-9.27,-3.62,-1.32,-0.15,0.28,-0.11,-41.78,-27.59,11.70
9712,-9.27,-3.62,-1.32,-0.15,0.28,-0.11,-41.78,-27.59,11.70
9723,-8.90,-5.55,-0.28,-0.28,0.54,0.03,-41.78,-27.59,11.70
9734,-8.90,-5.55,-0.28,-0.28,0.54,0.03,-41.78,-27.59,11.70
9745,-9.01,-3.75,-2.00,-0.76,0.92,0.45,-41.38,-29.40,10.61
9756,-9.11,-4.13,-2.33,-0.78,1.04,0.71,-41.38,-29.40,10.61
9767,-9.11,-4.13,-2.33,-0.78,1.04,0.71,-41.38,-29.40,10.61
9778,-8.74,-3.34,-3.80,-0.76,0.99,0.92,-41.38,-29.40,10.61
9920,-9.24,-1.85,-2.26,-0.44,0.41,1.08,-44.59,-23.97,2.95
9930,-9.24,-1.85,-2.26,-0.44,0.41,1.08,-44.59,-23.97,2.95
9941,-9.37,-0.05,-4.28,-0.42,0.34,0.86,-44.59,-23.97,2.95
9952,-9.37,-0.05,-4.28,-0.42,0.34,0.86,-44.59,-23.97,2.95
9963,-9.16,-0.79,-5.30,-0.39,0.19,0.49,-44.59,-23.97,2.95
9974,-9.16,-0.79,-5.30,-0.39,0.19,0.49,-44.59,-23.97,2.95
9985,-9.54,-0.66,-4.33,-0.30,-0.03,0.34,-44.59,-23.97,2.95
9996,-9.62,-0.88,-3.79,-0.42,-0.21,0.07,-45.00,-20.04,2.22
10007,-9.62,-0.88,-3.79,-0.42,-0.21,0.07,-45.00,-20.04,2.22
10018,-9.59,-0.39,-4.40,-0.44,-0.34,-0.16,-45.00,-20.04,2.22
10029,-9.59,-0.39,-4.40,-0.44,-0.34,-0.16,-45.00,-20.04,2.22
10040,-9.48,-0.76,-4.73,-0.29,-0.53,-0.44,-45.00,-20.04,2.22
10051,-9.48,-0.76,-4.73,-0.29,-0.53,-0.44,-45.00,-20.04,2.22
10155,-9.30,-0.90,-4.13,-0.04,-0.64,-0.68,-46.20,-23.36,7.32
10165,-9.04,-1.62,-3.13,0.03,-0.73,-0.90,-46.20,-23.36,7.32
10176,-9.23,-0.48,-3.94,-0.27,-0.93,-1.30,-46.20,-23.36,7.32
10187,-9.23,-0.48,-3.94,-0.27,-0.93,-1.30,-46.20,-23.36,7.32
10198,-8.69,-3.79,-2.24,0.34,-0.97,-1.58,-46.20,-23.36,7.32
10209,-8.69,-3.79,-2.24,0.34,-0.97,-1.58,-46.20,-23.36,7.32
10220,-9.09,-3.24,-2.12,0.43,-0.75,-1.20,-46.20,-23.36,7.32
10231,-9.09,-3.24,-2.12,0.43,-0.75,-1.20,-46.20,-23.36,7.32
10242,-8.72,-2.82,-2.65,0.27,-0.58,-1.07,-46.20,-23.36,7.32
10253,-8.72,-2.82,-2.65,0.27,-0.58,-1.07,-46.20,-23.36,7.32
10264,-8.95,-3.49,-2.13,0.38,-0.53,-1.14,-40.98,-27.89,8.78
10275,-8.95,-3.49,-2.13,0.38,-0.53,-1.14,-40.98,-27.89,8.78
10286,-8.93,-4.49,-1.36,0.44,-0.47,-1.06,-40.98,-27.89,8.78
10390,-8.92,-4.93,-1.86,-0.74,0.84,0.46,-41.18,-31.06,8.60
10400,-8.82,-3.84,-2.70,-0.99,1.04,1.00,-41.18,-31.06,8.60
10411,-8.82,-3.84,-2.70,-0.99,1.04,1.00,-41.18,-31.06,8.60
10422,-9.08,-2.34,-3.43,-0.82,0.98,1.17,-41.18,-31.06,8.60
10433,-9.08,-2.34,-3.43,-0.82,0.98,1.17,-41.18,-31.06,8.60
10444,-8.72,-4.11,-2.41,-0.52,0.94,1.26,-41.18,-31.06,8.60
10455,-8.72,-4.11,-2.41,-0.52,0.94,1.26,-41.18,-31.06,8.60
10466,-9.35,-1.15,-3.97,-0.52,0.94,1.44,-41.18,-31.06,8.60
10477,-9.14,-2.24,-3.88,-0.25,0.67,1.26,-41.18,-31.06,8.60
10488,-9.14,-2.24,-3.88,-0.25,0.67,1.26,-41.18,-31.06,8.60
10499,-8.91,-1.84,-4.06,-0.16,0.56,1.31,-43.79,-26.38,2.22
10510,-8.91,-1.84,-4.06,-0.16,0.56,1.31,-43.79,-26.38,2.22
10611,-9.23,0.38,-4.24,-0.22,0.10,0.77,-43.79,-26.38,2.22
10622,-9.48,-0.75,-3.91,-0.26,-0.03,0.40,-45.40,-20.64,0.40
10633,-9.48,-0.75,-3.91,-0.26,-0.03,0.40,-45.40,-20.64,0.40
10644,-9.60,-0.39,-3.94,-0.27,-0.18,0.13,-45.40,-20.64,0.40
10655,-9.60,-0.39,-3.94,-0.27,-0.18,0.13,-45.40,-20.64,0.40
10666,-9.50,-0.15,-4.52,-0.31,-0.31,-0.12,-45.40,-20.64,0.40
10677,-9.38,-1.33,-3.06,-0.21,-0.47,-0.34,-45.40,-20.64,0.40
10688,-9.38,-1.33,-3.06,-0.21,-0.47,-0.34,-45.40,-20.64,0.40
10699,-9.30,-0.73,-3.51,-0.17,-0.45,-0.37,-45.40,-20.64,0.40
10710,-9.30,-0.73,-3.51,-0.17,-0.45,-0.37,-45.40,-20.64,0.40
10721,-9.57,-1.09,-3.17,-0.13,-0.43,-0.43,-45.40,-20.64,0.40
10732,-9.57,-1.09,-3.17,-0.13,-0.43,-0.43,-45.40,-20.64,0.40
10743,-9.53,-1.12,-3.65,-0.08,-0.46,-0.49,-45.40,-20.64,0.40
10849,-8.86,-1.29,-3.93,0.29,-0.71,-1.21,-44.80,-21.70,2.04
10860,-8.57,-3.14,-2.80,0.46,-0.83,-1.53,-44.80,-21.70,2.04
10871,-8.57,-3.14,-2.80,0.46,-0.83,-1.53,-44.80,-21.70,2.04
10882,-9.34,-3.23,-3.07,0.50,-0.76,-1.39,-41.58,-26.53,7.14
10893,-9.34,-3.23,-3.07,0.50,-0.76,-1.39,-41.58,-26.53,7.14
10904,-9.10,-3.35,-2.13,0.52,-0.57,-1.14,-41.58,-26.53,7.14
10915,-9.10,-3.35,-2.13,0.52,-0.57,-1.14,-41.58,-26.53,7.14
10926,-8.19,-3.22,-1.85,0.42,-0.39,-1.04,-41.58,-26.53,7.14
10937,-9.19,-3.59,-2.39,0.38,-0.27,-0.97,-41.58,-26.53,7.14
10948,-9.19,-3.59,-2.39,0.38,-0.27,-0.97,-41.58,-26.53,7.14
10959,-9.12,-3.73,-1.37,0.35,-0.27,-0.76,-41.58,-26.53,7.14
10970,-9.12,-3.73,-1.37,0.35,-0.27,-0.76,-41.58,-26.53,7.14
11074,-8.90,-4.54,-2.34,-0.77,0.87,0.54,-38.77,-30.15,8.24
11084,-8.93,-4.20,-2.58,-0.77,0.96,0.88,-38.77,-30.15,8.24
11095,-8.93,-4.20,-2.58,-0.77,0.96,0.88,-38.77,-30.15,8.24
11106,-9.06,-3.43,-2.25,-0.72,0.95,1.21,-38.77,-30.15,8.24
11117,-9.16,-2.27,-4.50,-0.62,0.88,1.33,-38.77,-30.15,8.24
11128,-9.16,-2.27,-4.50,-0.62,0.88,1.33,-38.77,-30.15,8.24
11139,-8.64,-2.53,-4.36,-0.34,0.62,1.37,-41.98,-26.83,3.50
11150,-8.64,-2.53,-4.36,-0.34,0.62,1.37,-41.98,-26.83,3.50
11161,-9.12,-2.31,-3.78,-0.16,0.45,1.37,-41.98,-26.83,3.50
11172,-9.12,-2.31,-3.78,-0.16,0.45,1.37,-41.98,-26.83,3.50
11183,-8.97,-1.59,-3.70,-0.08,0.37,1.31,-41.98,-26.83,3.50
11194,-8.97,-1.59,-3.70,-0.08,0.37,1.31,-41.98,-26.83,3.50
11205,-9.09,-1.42,-2.75,-0.04,0.45,1.20,-41.98,-26.83,3.50
11347,-9.45,-0.24,-4.47,-0.38,-0.24,0.06,-44.39,-22.30,0.94
11357,-9.45,-0.24,-4.47,-0.38,-0.24,0.06,-44.39,-22.30,0.94
11368,-9.34,-0.96,-4.35,-0.35,-0.37,-0.10,-44.39,-22.30,0.94
11379,-9.42,-1.26,-3.25,-0.25,-0.43,-0.21,-43.99,-21.40,0.58
11390,-9.42,-1.26,-3.25,-0.25,-0.43,-0.21,-43.99,-21.40,0.58
11401,-9.48,-0.21,-3.76,-0.24,-0.40,-0.32,-43.99,-21.40,0.58
11412,-9.48,-0.21,-3.76,-0.24,-0.40,-0.32,-43.99,-21.40,0.58
11423,-9.47,-0.52,-3.17,-0.22,-0.50,-0.64,-43.99,-21.40,0.58
11440,-9.47,-0.52,-3.17,-0.22,-0.50,-0.64,-43.99,-21.40,0.58
11445,-9.31,-1.67,-3.64,-0.14,-0.65,-0.91,-43.99,-21.40,0.58
11456,-9.31,-1.67,-3.64,-0.14,-0.65,-0.91,-43.99,-21.40,0.58
11467,-9.13,-2.22,-2.61,-0.02,-0.58,-0.82,-43.99,-21.40,0.58
11478,-9.30,-2.06,-3.41,0.01,-0.35,-0.62,-43.99,-21.40,0.58
11583,-8.53,-2.87,-2.68,0.33,-0.57,-1.25,-44.19,-24.57,3.31
11593,-8.53,-2.87,-2.68,0.33,-0.57,-1.25,-44.19,-24.57,3.31
11604,-9.27,-1.66,-3.56,0.08,-0.61,-1.28,-44.19,-24.57,3.31
11615,-9.27,-1.66,-3.56,0.08,-0.61,-1.28,-44.19,-24.57,3.31
11626,-8.68,-2.76,-2.54,0.29,-0.51,-1.40,-44.19,-24.57,3.31
11637,-8.68,-2.76,-2.54,0.29,-0.51,-1.40,-44.19,-24.57,3.31
11648,-9.15,-4.45,-1.21,0.67,-0.43,-1.37,-40.37,-28.04,7.51
11659,-9.59,-5.24,-0.38,0.55,-0.17,-0.94,-40.37,-28.04,7.51
11670,-9.59,-5.24,-0.38,0.55,-0.17,-0.94,-40.37,-28.04,7.51
11681,-9.26,-3.58,-1.38,0.06,0.17,-0.38,-40.37,-28.04,7.51
11692,-9.26,-3.58,-1.38,0.06,0.17,-0.38,-40.37,-28.04,7.51
11703,-9.35,-4.29,-1.66,-0.11,0.34,-0.22,-40.37,-28.04,7.51
11808,-9.29,-3.84,-2.17,-0.78,0.82,0.72,-40.37,-29.55,6.41
11818,-9.20,-3.26,-2.91,-0.87,0.86,0.91,-40.37,-29.55,6.41
11829,-9.20,-3.26,-2.91,-0.87,0.86,0.91,-40.37,-29.55,6.41
11840,-9.18,-2.26,-4.11,-0.83,0.81,1.07,-40.37,-29.55,6.41
11856,-9.18,-2.26,-4.11,-0.83,0.81,1.07,-40.37,-29.55,6.41
11862,-9.17,-3.29,-3.34,-0.54,0.69,1.17,-40.37,-29.55,6.41
11873,-9.17,-3.29,-3.34,-0.54,0.69,1.17,-40.37,-29.55,6.41
11884,-8.97,-3.06,-3.53,-0.41,0.57,1.29,-41.78,-27.59,0.03
11895,-8.97,-3.06,-3.53,-0.41,0.57,1.29,-41.78,-27.59,0.03
11906,-9.18,-1.42,-5.17,-0.38,0.43,1.31,-41.78,-27.59,0.03
11917,-9.18,-1.42,-5.17,-0.38,0.43,1.31,-41.78,-27.59,0.03
11928,-9.16,-1.60,-4.08,-0.21,0.22,1.15,-41.78,-27.59,0.03
11939,-8.98,-2.15,-3.79,-0.11,0.10,0.96,-41.78,-27.59,0.03
12041,-9.46,-1.15,-3.34,-0.18,-0.10,0.38,-45.40,-22.46,-0.33
12051,-9.46,-1.15,-3.34,-0.18,-0.10,0.38,-45.40,-22.46,-0.33
12062,-9.48,-0.53,-3.33,-0.19,-0.17,0.24,-45.40,-22.46,-0.33
12073,-9.48,-0.53,-3.33,-0.19,-0.17,0.24,-45.40,-22.46,-0.33
12084,-9.32,-0.95,-3.89,-0.19,-0.14,0.10,-45.40,-22.46,-0.33
12095,-9.32,-0.95,-3.89,-0.19,-0.14,0.10,-45.40,-22.46,-0.33
12106,-9.34,-0.79,-3.85,-0.16,-0.15,0.01,-45.40,-22.46,-0.33
12117,-9.34,-0.79,-3.85,-0.16,-0.15,0.01,-45.40,-22.46,-0.33
12128,-9.50,-0.71,-4.04,-0.14,-0.16,-0.10,-45.40,-22.46,-0.33
12139,-9.51,-0.60,-4.29,-0.09,-0.26,-0.22,-44.80,-22.30,0.58
12150,-9.51,-0.60,-4.29,-0.09,-0.26,-0.22,-44.80,-22.30,0.58
12161,-9.39,-1.74,-3.16,0.03,-0.38,-0.31,-44.80,-22.30,0.58
12265,-9.18,-1.99,-3.11,0.18,-0.41,-0.85,-43.59,-23.81,1.67
12275,-9.18,-1.99,-3.11,0.18,-0.41,-0.85,-43.59,-23.81,1.67
12286,-9.24,-1.24,-4.23,0.24,-0.38,-0.84,-43.59,-23.81,1.67
12297,-9.24,-1.24,-4.23,0.24,-0.38,-0.84,-43.59,-23.81,1.67
12308,-8.81,-1.12,-3.62,0.34,-0.46,-1.04,-43.59,-23.81,1.67
12319,-8.97,-1.30,-2.43,0.15,-0.58,-1.35,-43.59,-23.81,1.67
12330,-8.97,-1.30,-2.43,0.15,-0.58,-1.35,-43.59,-23.81,1.67
12341,-9.15,-3.30,-2.75,0.39,-0.48,-1.51,-43.59,-23.81,1.67
12352,-9.15,-3.30,-2.75,0.39,-0.48,-1.51,-43.59,-23.81,1.67
12363,-8.81,-3.85,-2.30,0.51,-0.31,-1.12,-43.59,-23.81,1.67
12374,-8.81,-3.85,-2.30,0.51,-0.31,-1.12,-43.59,-23.81,1.67
12385,-9.34,-2.54,-3.05,0.29,-0.16,-0.82,-43.59,-23.81,1.67
12396,-9.34,-2.54,-3.05,0.29,-0.16,-0.82,-43.59,-23.81,1.67
12500,-9.35,-3.45,-2.15,-0.13,0.41,0.11,-41.58,-28.34,4.59
12510,-9.35,-3.45,-2.15,-0.13,0.41,0.11,-41.58,-28.34,4.59
12521,-9.12,-4.94,-1.80,-0.35,0.53,0.33,-39.77,-30.61,4.04
12532,-9.12,-4.94,-1.80,-0.35,0.53,0.33,-39.77,-30.61,4.04
12543,-9.04,-3.47,-3.46,-0.62,0.72,0.76,-39.77,-30.61,4.04
12554,-9.04,-3.47,-3.46,-0.62,0.72,0.76,-39.77,-30.61,4.04
12565,-9.14,-2.13,-3.96,-0.51,0.72,1.03,-39.77,-30.61,4.04
12576,-9.14,-2.13,-3.96,-0.51,0.72,1.03,-39.77,-30.61,4.04
12587,-8.91,-2.33,-4.05,-0.28,0.61,1.02,-39.77,-30.61,4.04
12690,-9.24,-1.67,-3.11,-0.08,0.13,1.03,-41.98,-26.23,-0.15
12701,-9.38,-0.12,-3.82,-0.05,0.19,0.98,-41.98,-26.23,-0.15
12712,-9.38,-0.12,-3.82,-0.05,0.19,0.98,-41.98,-26.23,-0.15
12723,-9.55,-0.91,-2.80,-0.05,0.22,0.88,-41.98,-26.23,-0.15
12734,-9.55,-0.91,-2.80,-0.05,0.22,0.88,-41.98,-26.23,-0.15
12745,-9.13,-1.60,-3.22,-0.06,0.21,0.85,-41.98,-26.23,-0.15
12756,-9.13,-1.60,-3.22,-0.06,0.21,0.85,-41.98,-26.23,-0.15
12767,-9.46,0.60,-4.77,-0.39,0.09,0.67,-41.98,-26.23,-0.15
12778,-9.46,0.60,-4.77,-0.39,0.09,0.67,-41.98,-26.23,-0.15
12789,-9.54,-0.19,-4.21,-0.32,-0.11,0.38,-44.19,-20.64,-1.06
12800,-9.72,0.28,-4.62,-0.32,-0.20,0.16,-44.19,-20.64,-1.06
12811,-9.72,0.28,-4.62,-0.32,-0.20,0.16,-44.19,-20.64,-1.06
12953,-9.27,-2.25,-3.36,0.11,-0.53,-0.95,-44.19,-21.55,1.49
12963,-9.06,-1.81,-2.88,0.20,-0.52,-0.88,-44.19,-21.55,1.49
12974,-9.06,-1.81,-2.88,0.20,-0.52,-0.88,-44.19,-21.55,1.49
12985,-9.26,-0.80,-3.69,0.32,-0.53,-1.01,-44.19,-21.55,1.49
12996,-9.26,-0.80,-3.69,0.32,-0.53,-1.01,-44.19,-21.55,1.49
13007,-9.07,-2.61,-3.20,0.47,-0.51,-1.20,-44.19,-21.55,1.49
13018,-9.07,-2.61,-3.20,0.47,-0.51,-1.20,-44.19,-21.55,1.49
13029,-8.61,-2.14,-3.40,0.40,-0.46,-1.19,-41.98,-25.93,3.13
13040,-9.15,-3.02,-2.97,0.44,-0.48,-1.23,-41.98,-25.93,3.13
13051,-9.15,-3.02,-2.97,0.44,-0.48,-1.23,-41.98,-25.93,3.13
13062,-9.58,-2.99,-2.71,0.33,-0.37,-1.06,-41.98,-25.93,3.13
13073,-9.58,-2.99,-2.71,0.33,-0.37,-1.06,-41.98,-25.93,3.13
13084,-9.17,-1.88,-3.09,0.23,-0.21,-0.92,-41.98,-25.93,3.13
13188,-9.20,-5.12,-0.62,-0.04,0.37,-0.03,-38.97,-30.61,5.87
13198,-9.20,-5.12,-0.62,-0.04,0.37,-0.03,-38.97,-30.61,5.87
13209,-9.19,-4.90,-2.23,-0.54,0.81,0.44,-38.97,-30.61,5.87
13220,-9.21,-4.78,-2.17,-0.79,1.00,0.96,-38.97,-30.61,5.87
13231,-9.21,-4.78,-2.17,-0.79,1.00,0.96,-38.97,-30.61,5.87
13242,-9.01,-2.60,-4.52,-0.78,1.05,1.37,-38.97,-30.61,5.87
13253,-9.01,-2.60,-4.52,-0.78,1.05,1.37,-38.97,-30.61,5.87
13264,-9.02,-2.25,-3.94,-0.40,0.81,1.47,-38.97,-30.61,5.87
13275,-9.02,-2.25,-3.94,-0.40,0.81,1.47,-38.97,-30.61,5.87
13286,-9.00,-3.06,-3.44,-0.19,0.63,1.49,-41.58,-26.23,2.04
13297,-9.00,-3.06,-3.44,-0.19,0.63,1.49,-41.58,-26.23,2.04
13308,-9.04,-1.20,-3.72,-0.17,0.58,1.60,-41.58,-26.23,2.04
13319,-9.17,-1.16,-3.97,-0.10,0.53,1.43,-41.58,-26.23,2.04
13422,-9.57,0.72,-4.79,-0.32,0.11,0.59,-45.00,-22.76,-2.15
13433,-9.57,0.72,-4.79,-0.32,0.11,0.59,-45.00,-22.76,-2.15
13444,-9.45,-0.57,-3.71,-0.36,-0.06,0.33,-45.00,-22.76,-2.15
13455,-9.45,-0.57,-3.71,-0.36,-0.06,0.33,-45.00,-22.76,-2.15
13466,-9.59,0.18,-4.43,-0.37,-0.15,0.10,-45.00,-22.76,-2.15
13477,-9.59,0.18,-4.43,-0.37,-0.15,0.10,-45.00,-22.76,-2.15
13488,-9.32,-0.46,-4.30,-0.34,-0.27,-0.12,-45.00,-22.76,-2.15
13499,-9.32,-0.46,-4.30,-0.34,-0.27,-0.12,-45.00,-22.76,-2.15
13510,-9.27,-0.90,-3.58,-0.27,-0.36,-0.21,-45.00,-22.76,-2.15
13521,-9.59,-0.11,-4.05,-0.22,-0.34,-0.19,-44.80,-21.70,-0.88
13532,-9.59,-0.11,-4.05,-0.22,-0.34,-0.19,-44.80,-21.70,-0.88
13543,-9.34,-0.16,-4.02,-0.17,-0.38,-0.25,-44.80,-21.70,-0.88
13647,-9.16,-0.89,-3.96,0.20,-0.40,-0.77,-44.80,-21.70,-0.88
13658,-9.16,-0.89,-3.96,0.20,-0.40,-0.77,-44.80,-21.70,-0.88
13669,-9.50,-0.84,-4.44,0.32,-0.59,-1.09,-43.39,-24.57,0.03
13680,-9.21,-2.04,-3.63,0.44,-0.71,-1.29,-43.39,-24.57,0.03
13691,-9.21,-2.04,-3.63,0.44,-0.71,-1.29,-43.39,-24.57,0.03
13702,-9.02,-2.90,-2.30,0.55,-0.64,-1.20,-43.39,-24.57,0.03
13713,-9.02,-2.90,-2.30,0.55,-0.64,-1.20,-43.39,-24.57,0.03
13724,-9.70,-1.17,-3.59,0.57,-0.57,-1.12,-43.39,-24.57,0.03
13735,-9.70,-1.17,-3.59,0.57,-0.57,-1.12,-43.39,-24.57,0.03
13746,-8.97,-1.76,-2.47,0.64,-0.51,-1.32,-43.39,-24.57,0.03
13757,-8.97,-1.76,-2.47,0.64,-0.51,-1.32,-43.39,-24.57,0.03
13768,-8.92,-2.11,-2.99,0.59,-0.49,-1.58,-43.39,-24.57,0.03
13881,-8.92,-2.11,-2.99,0.59,-0.49,-1.58,-43.39,-24.57,0.03
13883,-9.27,-4.62,-2.05,-0.41,0.68,0.25,-40.17,-29.10,7.32
13893,-9.27,-4.62,-2.05,-0.41,0.68,0.25,-40.17,-29.10,7.32
13904,-8.97,-4.29,-2.68,-0.69,0.95,0.69,-41.18,-29.55,4.23
13915,-8.97,-4.29,-2.68,-0.69,0.95,0.69,-41.18,-29.55,4.23
13926,-9.03,-3.84,-3.37,-0.88,1.04,1.10,-41.18,-29.55,4.23
13937,-9.03,-3.84,-3.37,-0.88,1.04,1.10,-41.18,-29.55,4.23
13948,-9.21,-2.70,-3.24,-0.85,1.00,1.45,-41.18,-29.55,4.23
13959,-9.21,-2.70,-3.24,-0.85,1.00,1.45,-41.18,-29.55,4.23
13970,-9.01,-2.04,-4.40,-0.68,0.76,1.51,-41.18,-29.55,4.23
13981,-9.06,-2.10,-4.34,-0.43,0.44,1.41,-41.18,-29.55,4.23
13992,-9.06,-2.10,-4.34,-0.43,0.44,1.41,-41.18,-29.55,4.23
14003,-9.11,-1.37,-3.75,-0.19,0.23,1.28,-41.18,-29.55,4.23
14109,-9.46,-0.99,-3.68,-0.20,0.12,0.70,-43.79,-24.27,0.03
14119,-9.46,-0.99,-3.68,-0.20,0.12,0.70,-43.79,-24.27,0.03
14130,-9.43,-0.17,-4.28,-0.20,0.07,0.56,-43.79,-24.27,0.03
14141,-9.54,-0.46,-3.63,-0.19,0.01,0.34,-43.79,-24.27,0.03
14152,-9.54,-0.46,-3.63,-0.19,0.01,0.34,-43.79,-24.27,0.03
14163,-9.35,-0.82,-3.25,-0.30,-0.02,0.14,-44.19,-20.64,-1.06
14174,-9.35,-0.82,-3.25,-0.30,-0.02,0.14,-44.19,-20.64,-1.06
14185,-9.46,-0.36,-4.96,-0.36,0.02,0.03,-44.19,-20.64,-1.06
14196,-9.46,-0.36,-4.96,-0.36,0.02,0.03,-44.19,-20.64,-1.06
14207,-9.32,-0.45,-4.42,-0.34,-0.16,-0.07,-44.19,-20.64,-1.06
14218,-9.32,-0.45,-4.42,-0.34,-0.16,-0.07,-44.19,-20.64,-1.06
14229,-9.37,-0.18,-3.74,-0.33,-0.27,-0.24,-44.19,-20.64,-1.06
14240,-9.38,0.48,-4.81,-0.21,-0.32,-0.43,-44.19,-20.64,-1.06
14345,-9.36,-1.23,-3.21,0.14,-0.37,-0.84,-44.80,-22.30,-0.15
14355,-9.36,-1.23,-3.21,0.14,-0.37,-0.84,-44.80,-22.30,-0.15
14366,-9.08,-1.76,-3.45,0.21,-0.48,-1.03,-44.80,-22.30,-0.15
14377,-9.08,-1.76,-3.45,0.21,-0.48,-1.03,-44.80,-22.30,-0.15
14388,-9.20,-2.69,-2.41,0.27,-0.50,-1.00,-44.80,-22.30,-0.15
14399,-9.20,-2.69,-2.41,0.27,-0.50,-1.00,-44.80,-22.30,-0.15
14410,-9.04,-1.98,-1.80,-0.01,-0.47,-0.90,-40.98,-26.38,4.04
14421,-9.30,-1.50,-3.21,0.28,-0.37,-0.93,-40.98,-26.38,4.04
14432,-9.30,-1.50,-3.21,0.28,-0.37,-0.93,-40.98,-26.38,4.04
14443,-9.17,-1.84,-3.02,0.42,-0.32,-1.04,-40.98,-26.38,4.04
14454,-9.17,-1.84,-3.02,0.42,-0.32,-1.04,-40.98,-26.38,4.04
14465,-9.03,-2.69,-2.60,0.34,-0.27,-1.13,-40.98,-26.38,4.04
14570,-9.14,-4.47,-1.41,0.09,0.36,-0.08,-39.17,-29.55,6.05
14580,-9.14,-4.47,-1.41,0.09,0.36,-0.08,-39.17,-29.55,6.05
14591,-9.33,-4.56,-2.29,-0.28,0.68,0.29,-39.17,-29.55,6.05
14602,-9.29,-3.29,-3.18,-0.51,0.82,0.73,-39.17,-29.55,6.05
14613,-9.29,-3.29,-3.18,-0.51,0.82,0.73,-39.17,-29.55,6.05
14624,-9.44,-3.33,-2.85,-0.45,0.80,1.03,-39.17,-29.55,6.05
14635,-9.44,-3.33,-2.85,-0.45,0.80,1.03,-39.17,-29.55,6.05
14646,-9.16,-2.63,-3.40,-0.52,0.74,1.31,-39.17,-29.55,6.05
14657,-9.16,-2.63,-3.40,-0.52,0.74,1.31,-39.17,-29.55,6.05
14668,-9.49,-1.64,-4.00,-0.47,0.59,1.43,-42.58,-27.29,0.40
14679,-9.49,-1.64,-4.00,-0.47,0.59,1.43,-42.58,-27.29,0.40
14690,-9.12,-1.86,-2.89,-0.27,0.35,1.42,-42.58,-27.29,0.40
14701,-8.76,-2.36,-2.91,-0.17,0.31,1.32,-42.58,-27.29,0.40
14805,-9.53,-1.02,-4.89,-0.30,0.23,0.66,-44.19,-20.64,-1.43
14815,-9.53,-1.02,-4.89,-0.30,0.23,0.66,-44.19,-20.64,-1.43
14826,-9.47,0.70,-3.38,-0.32,0.09,0.66,-44.19,-20.64,-1.43
14837,-9.47,0.70,-3.38,-0.32,0.09,0.66,-44.19,-20.64,-1.43
14848,-9.57,-0.69,-3.35,-0.37,0.06,0.33,-44.19,-20.64,-1.43
14859,-9.57,-0.69,-3.35,-0.37,0.06,0.33,-44.19,-20.64,-1.43
14870,-9.37,0.34,-4.80,-0.48,-0.00,0.11,-44.19,-20.64,-1.43
14881,-9.47,0.69,-4.69,-0.45,-0.18,-0.13,-44.19,-20.64,-1.43
14898,-9.47,0.69,-4.69,-0.45,-0.18,-0.13,-44.19,-20.64,-1.43
14903,-9.53,0.17,-4.90,-0.27,-0.33,-0.38,-44.19,-20.64,-1.43
14914,-9.53,0.17,-4.90,-0.27,-0.33,-0.38,-44.19,-20.64,-1.43
14925,-9.11,-0.70,-4.55,-0.05,-0.53,-0.52,-46.60,-20.04,-2.52
14936,-9.11,-0.70,-4.55,-0.05,-0.53,-0.52,-46.60,-20.04,-2.52
15075,-9.19,-0.12,-4.04,0.34,-0.46,-0.97,-44.19,-24.27,0.76
15085,-8.69,-1.47,-3.43,0.58,-0.59,-1.36,-44.19,-24.27,0.76
15096,-8.69,-1.47,-3.43,0.58,-0.59,-1.36,-44.19,-24.27,0.76
15107,-8.79,-2.72,-3.56,0.77,-0.57,-1.39,-44.19,-24.27,0.76
15118,-8.79,-2.72,-3.56,0.77,-0.57,-1.39,-44.19,-24.27,0.76
15129,-9.21,-2.46,-2.40,0.80,-0.47,-1.15,-44.19,-24.27,0.76
15140,-9.21,-2.46,-2.40,0.80,-0.47,-1.15,-44.19,-24.27,0.76
15151,-9.08,-2.24,-2.21,0.76,-0.34,-1.18,-44.19,-24.27,0.76
15162,-9.44,-3.49,-2.27,0.71,-0.28,-1.23,-39.37,-29.40,4.04
15173,-9.44,-3.49,-2.27,0.71,-0.28,-1.23,-39.37,-29.40,4.04
15184,-9.94,-3.94,-2.17,0.51,-0.21,-1.00,-39.37,-29.40,4.04
15195,-9.94,-3.94,-2.17,0.51,-0.21,-1.00,-39.37,-29.40,4.04
15300,-9.36,-4.04,-2.34,-0.57,0.88,1.12,-39.37,-29.40,4.04
15310,-9.21,-2.47,-3.45,-0.67,0.85,1.53,-39.97,-28.95,2.77
15321,-8.96,-1.49,-5.00,-0.54,0.68,1.66,-39.97,-28.95,2.77
15332,-8.96,-1.49,-5.00,-0.54,0.68,1.66,-39.97,-28.95,2.77
15343,-9.08,-2.03,-2.92,-0.21,0.42,1.56,-39.97,-28.95,2.77
15354,-9.08,-2.03,-2.92,-0.21,0.42,1.56,-39.97,-28.95,2.77
15365,-9.33,-1.62,-2.92,-0.16,0.34,1.38,-39.97,-28.95,2.77
15376,-9.33,-1.62,-2.92,-0.16,0.34,1.38,-39.97,-28.95,2.77
15387,-9.02,-0.77,-4.18,-0.23,0.32,1.25,-39.97,-28.95,2.77
15398,-9.02,-0.77,-4.18,-0.23,0.32,1.25,-39.97,-28.95,2.77
15409,-9.45,-1.31,-2.75,-0.23,0.26,1.10,-39.97,-28.95,2.77
15420,-9.45,-1.31,-2.75,-0.23,0.26,1.10,-39.97,-28.95,2.77
15431,-9.56,-0.92,-3.32,-0.39,0.27,1.01,-43.59,-23.21,-2.34
15534,-9.45,-0.37,-4.38,-0.44,-0.27,-0.20,-43.59,-23.21,-2.34
15544,-9.55,-0.76,-3.74,-0.31,-0.40,-0.34,-45.40,-21.85,-2.15
15555,-9.55,-0.76,-3.74,-0.31,-0.40,-0.34,-45.40,-21.85,-2.15
15566,-9.35,-0.84,-3.76,-0.24,-0.46,-0.46,-45.40,-21.85,-2.15
15577,-9.35,-0.84,-3.76,-0.24,-0.46,-0.46,-45.40,-21.85,-2.15
15588,-9.77,-0.74,-2.58,-0.19,-0.49,-0.54,-45.40,-21.85,-2.15
15599,-9.77,-0.74,-2.58,-0.19,-0.49,-0.54,-45.40,-21.85,-2.15
15610,-9.40,-0.37,-3.31,-0.15,-0.48,-0.62,-45.40,-21.85,-2.15
15621,-9.40,-0.37,-3.31,-0.15,-0.48,-0.62,-45.40,-21.85,-2.15
15632,-9.58,-1.67,-2.40,-0.03,-0.41,-0.66,-45.40,-21.85,-2.15
15643,-9.53,-1.48,-3.02,0.01,-0.29,-0.63,-45.40,-21.85,-2.15
15654,-9.53,-1.48,-3.02,0.01,-0.29,-0.63,-45.40,-21.85,-2.15
15758,-9.09,-2.08,-2.10,0.44,-0.34,-0.97,-43.19,-23.51,2.04
15768,-9.35,-2.27,-1.83,0.34,-0.27,-1.06,-43.19,-23.51,2.04
15779,-9.35,-2.27,-1.83,0.34,-0.27,-1.06,-43.19,-23.51,2.04
15790,-9.47,-2.28,-3.08,0.23,-0.16,-1.08,-43.19,-23.51,2.04
15801,-9.47,-2.28,-3.08,0.23,-0.16,-1.08,-43.19,-23.51,2.04
15812,-9.20,-3.21,-2.69,0.36,-0.15,-1.01,-40.78,-29.55,3.50
15823,-9.61,-3.67,-2.69,0.41,-0.08,-0.92,-40.78,-29.55,3.50
15834,-9.61,-3.67,-2.69,0.41,-0.08,-0.92,-40.78,-29.55,3.50
15845,-9.41,-3.81,-1.90,0.40,0.02,-0.69,-40.78,-29.55,3.50
15856,-9.41,-3.81,-1.90,0.40,0.02,-0.69,-40.78,-29.55,3.50
15867,-9.47,-2.60,-2.48,0.30,0.17,-0.39,-40.78,-29.55,3.50
15878,-9.47,-2.60,-2.48,0.30,0.17,-0.39,-40.78,-29.55,3.50
15889,-9.38,-4.05,-1.93,0.27,0.20,-0.31,-40.78,-29.55,3.50
15993,-8.82,-3.11,-3.23,-0.48,0.56,1.02,-39.77,-30.61,3.31
16003,-9.38,-1.92,-3.24,-0.53,0.51,1.18,-39.77,-30.61,3.31
16014,-9.38,-1.92,-3.24,-0.53,0.51,1.18,-39.77,-30.61,3.31
16025,-8.95,-1.43,-4.12,-0.46,0.49,1.21,-39.77,-30.61,3.31
16036,-8.95,-1.43,-4.12,-0.46,0.49,1.21,-39.77,-30.61,3.31
16047,-9.37,-1.64,-3.62,-0.32,0.46,1.20,-43.39,-24.87,-2.15
16058,-9.37,-1.64,-3.62,-0.32,0.46,1.20,-43.39,-24.87,-2.15
16069,-9.52,-1.43,-3.36,-0.20,0.29,1.16,-43.39,-24.87,-2.15
16080,-9.52,-1.43,-3.36,-0.20,0.29,1.16,-43.39,-24.87,-2.15
16091,-9.45,-0.95,-4.13,-0.49,0.16,1.18,-43.39,-24.87,-2.15
16102,-9.16,-0.78,-3.61,-0.19,0.11,1.13,-43.39,-24.87,-2.15
16113,-9.16,-0.78,-3.61,-0.19,0.11,1.13,-43.39,-24.87,-2.15
16124,-9.41,-1.22,-3.40,-0.11,0.17,1.03,-43.39,-24.87,-2.15
16228,-9.83,0.52,-4.01,-0.43,-0.12,0.15,-45.40,-22.15,-1.43
16238,-9.83,0.52,-4.01,-0.43,-0.12,0.15,-45.40,-22.15,-1.43
16249,-9.41,-0.56,-3.66,-0.40,-0.28,-0.11,-45.40,-22.15,-1.43
16260,-9.41,-0.56,-3.66,-0.40,-0.28,-0.11,-45.40,-22.15,-1.43
16271,-9.59,-0.98,-3.76,-0.31,-0.35,-0.29,-45.40,-22.15,-1.43
16282,-9.74,0.20,-3.70,-0.24,-0.46,-0.39,-45.40,-22.15,-1.43
16293,-9.74,0.20,-3.70,-0.24,-0.46,-0.39,-45.40,-22.15,-1.43
16304,-9.78,-0.29,-2.35,-0.14,-0.54,-0.63,-44.80,-21.40,-0.15
16315,-9.78,-0.29,-2.35,-0.14,-0.54,-0.63,-44.80,-21.40,-0.15
16326,-9.47,-0.79,-2.83,-0.14,-0.51,-0.93,-44.80,-21.40,-0.15
16337,-9.47,-0.79,-2.83,-0.14,-0.51,-0.93,-44.80,-21.40,-0.15
16348,-9.08,-1.03,-3.31,-0.01,-0.49,-1.17,-44.80,-21.40,-0.15
16454,-8.81,-1.71,-3.07,0.45,-0.39,-1.40,-41.58,-26.83,0.58
16464,-9.03,-3.20,-2.72,0.52,-0.29,-1.26,-41.58,-26.83,0.58
16475,-9.03,-3.20,-2.72,0.52,-0.29,-1.26,-41.58,-26.83,0.58
16486,-9.31,-3.06,-2.72,0.35,-0.10,-0.88,-41.58,-26.83,0.58
16497,-9.31,-3.06,-2.72,0.35,-0.10,-0.88,-41.58,-26.83,0.58
16508,-9.34,-1.77,-3.41,0.26,0.05,-0.70,-41.58,-26.83,0.58
16519,-9.34,-1.77,-3.41,0.26,0.05,-0.70,-41.58,-26.83,0.58
16530,-9.42,-3.12,-2.44,0.40,0.03,-0.77,-41.58,-26.83,0.58
16541,-9.42,-3.12,-2.44,0.40,0.03,-0.77,-41.58,-26.83,0.58
16552,-9.38,-2.72,-2.40,0.29,0.02,-0.65,-41.58,-26.83,0.58
16563,-9.49,-3.45,-2.32,0.20,0.07,-0.50,-41.78,-29.70,2.58
16574,-9.49,-3.45,-2.32,0.20,0.07,-0.50,-41.78,-29.70,2.58
16585,-9.28,-2.97,-2.77,0.10,0.13,-0.34,-41.78,-29.70,2.58
16686,-9.59,-2.66,-2.91,-0.32,0.63,1.18,-40.37,-29.85,0.22
16697,-9.59,-2.66,-2.91,-0.32,0.63,1.18,-40.37,-29.85,0.22
16708,-9.41,-2.84,-3.02,-0.31,0.59,1.43,-40.37,-29.85,0.22
16719,-9.41,-2.84,-3.02,-0.31,0.59,1.43,-40.37,-29.85,0.22
16730,-9.04,-1.37,-4.75,-0.38,0.41,1.52,-40.37,-29.85,0.22
16741,-9.04,-1.37,-4.75,-0.38,0.41,1.52,-40.37,-29.85,0.22
16752,-8.79,-1.19,-4.76,-0.19,0.19,1.40,-40.37,-29.85,0.22
16763,-9.02,-1.81,-3.60,-0.02,0.07,1.27,-40.37,-29.85,0.22
16774,-9.02,-1.81,-3.60,-0.02,0.07,1.27,-40.37,-29.85,0.22
16785,-9.09,-2.15,-3.05,0.00,0.10,1.15,-40.37,-29.85,0.22
16796,-9.09,-2.15,-3.05,0.00,0.10,1.15,-40.37,-29.85,0.22
16807,-9.52,-0.96,-2.69,-0.09,0.15,1.16,-43.99,-23.81,-0.51
16912,-9.63,-0.10,-3.35,-0.35,-0.06,0.39,-43.99,-23.81,-0.51
16922,-9.63,-0.10,-3.35,-0.35,-0.06,0.39,-43.99,-23.81,-0.51
16933,-9.84,0.38,-4.30,-0.45,-0.08,0.17,-44.59,-20.64,-1.79
16944,-9.49,0.28,-4.50,-0.46,-0.32,-0.14,-44.59,-20.64,-1.79
16960,-9.49,0.28,-4.50,-0.46,-0.32,-0.14,-44.59,-20.64,-1.79
16966,-9.38,-0.77,-3.23,-0.28,-0.45,-0.24,-44.59,-20.64,-1.79
16977,-9.38,-0.77,-3.23,-0.28,-0.45,-0.24,-44.59,-20.64,-1.79
16988,-9.59,-0.19,-2.78,-0.19,-0.37,-0.15,-44.59,-20.64,-1.79
16999,-9.59,-0.19,-2.78,-0.19,-0.37,-0.15,-44.59,-20.64,-1.79
17010,-9.80,-0.11,-3.04,-0.13,-0.24,-0.19,-44.59,-20.64,-1.79
17021,-9.80,-0.11,-3.04,-0.13,-0.24,-0.19,-44.59,-20.64,-1.79
17032,-9.69,0.05,-3.35,-0.15,-0.27,-0.36,-44.59,-20.64,-1.79
17043,-9.61,0.40,-3.07,-0.13,-0.35,-0.65,-44.59,-20.64,-1.79
17185,-8.75,-1.46,-2.95,0.18,-0.35,-1.09,-41.78,-28.49,2.22
17195,-8.75,-1.46,-2.95,0.18,-0.35,-1.09,-41.78,-28.49,2.22
17206,-9.27,-2.31,-2.49,0.45,-0.35,-1.26,-41.78,-28.49,2.22
17217,-9.27,-2.31,-2.49,0.45,-0.35,-1.26,-41.78,-28.49,2.22
17228,-9.03,-3.30,-0.93,0.65,-0.20,-1.15,-41.78,-28.49,2.22
17239,-9.03,-3.30,-0.93,0.65,-0.20,-1.15,-41.78,-28.49,2.22
17250,-9.46,-2.79,-1.91,0.52,0.02,-1.02,-41.78,-28.49,2.22
17261,-9.46,-2.79,-1.91,0.52,0.02,-1.02,-41.78,-28.49,2.22
17272,-9.92,-3.67,-2.72,0.40,0.17,-0.85,-41.78,-28.49,2.22
17283,-9.43,-3.19,-2.82,0.13,0.24,-0.38,-41.78,-28.49,2.22
17294,-9.43,-3.19,-2.82,0.13,0.24,-0.38,-41.78,-28.49,2.22
17305,-9.21,-1.96,-2.61,0.03,0.30,-0.20,-40.57,-29.10,2.22
17408,-9.14,-3.31,-2.91,-0.67,0.57,0.94,-40.57,-29.10,2.22
17419,-9.14,-3.31,-2.91,-0.67,0.57,0.94,-40.57,-29.10,2.22
17430,-8.83,-2.85,-3.78,-0.68,0.57,1.21,-40.57,-29.10,2.22
17441,-8.83,-2.85,-3.78,-0.68,0.57,1.21,-40.57,-29.10,2.22
17452,-9.27,-1.58,-3.92,-0.79,0.52,1.48,-42.18,-27.59,-1.06
17463,-9.27,-1.58,-3.92,-0.79,0.52,1.48,-42.18,-27.59,-1.06
17474,-9.06,-1.10,-3.30,-0.79,0.44,1.60,-42.18,-27.59,-1.06
17485,-9.29,-0.32,-4.55,-0.64,0.29,1.53,-42.18,-27.59,-1.06
17496,-9.29,-0.32,-4.55,-0.64,0.29,1.53,-42.18,-27.59,-1.06
17507,-9.19,0.01,-4.59,-0.45,0.13,1.39,-42.18,-27.59,-1.06
17518,-9.19,0.01,-4.59,-0.45,0.13,1.39,-42.18,-27.59,-1.06
17529,-9.22,-0.65,-3.49,-0.39,0.11,1.32,-42.18,-27.59,-1.06
17540,-9.22,-0.65,-3.49,-0.39,0.11,1.32,-42.18,-27.59,-1.06
17644,-9.69,0.86,-3.83,-0.58,-0.14,0.09,-43.59,-21.10,-3.43
17654,-9.69,0.86,-3.83,-0.58,-0.14,0.09,-43.59,-21.10,-3.43
17665,-9.85,1.75,-5.01,-0.58,-0.28,-0.29,-43.59,-21.10,-3.43
17676,-9.85,1.75,-5.01,-0.58,-0.28,-0.29,-43.59,-21.10,-3.43
17687,-9.54,1.45,-4.69,-0.34,-0.60,-0.71,-45.60,-19.89,-3.07
17698,-9.54,1.45,-4.69,-0.34,-0.60,-0.71,-45.60,-19.89,-3.07
17709,-9.68,0.28,-3.33,-0.19,-0.76,-1.08,-45.60,-19.89,-3.07
17720,-9.68,0.28,-3.33,-0.19,-0.76,-1.08,-45.60,-19.89,-3.07
17731,-9.18,0.32,-2.54,-0.12,-0.60,-1.20,-45.60,-19.89,-3.07
17742,-9.18,0.32,-2.54,-0.12,-0.60,-1.20,-45.60,-19.89,-3.07
17753,-9.38,-0.21,-2.79,0.18,-0.49,-1.39,-45.60,-19.89,-3.07
17764,-9.31,-0.38,-2.99,0.46,-0.47,-1.48,-45.60,-19.89,-3.07
17867,-9.66,-1.88,-3.34,0.61,-0.24,-1.30,-42.79,-25.32,0.58
17878,-9.66,-1.88,-3.34,0.61,-0.24,-1.30,-42.79,-25.32,0.58
17889,-9.20,-3.51,-1.82,0.73,-0.21,-1.18,-42.79,-25.32,0.58
17900,-9.20,-3.51,-1.82,0.73,-0.21,-1.18,-42.79,-25.32,0.58
17911,-9.27,-3.23,-1.72,0.52,-0.07,-0.86,-42.79,-25.32,0.58
17922,-9.27,-3.23,-1.72,0.52,-0.07,-0.86,-42.79,-25.32,0.58
17933,-9.54,-3.69,-2.26,0.42,0.05,-0.61,-42.79,-25.32,0.58
17944,-9.47,-2.63,-2.21,0.32,0.13,-0.32,-39.57,-28.64,3.50
17955,-9.47,-2.63,-2.21,0.32,0.13,-0.32,-39.57,-28.64,3.50
17966,-9.52,-3.33,-2.07,0.24,0.18,-0.32,-39.57,-28.64,3.50
17977,-9.52,-3.33,-2.07,0.24,0.18,-0.32,-39.57,-28.64,3.50
17988,-9.07,-3.20,-2.47,0.11,0.18,-0.25,-39.57,-28.64,3.50
17999,-9.07,-3.20,-2.47,0.11,0.18,-0.25,-39.57,-28.64,3.50
18103,-9.39,-2.80,-3.13,-0.63,0.59,0.92,-40.78,-29.25,1.31
18114,-9.25,-2.71,-3.19,-0.59,0.47,1.13,-40.78,-29.25,1.31
18125,-9.49,-1.18,-3.60,-0.64,0.33,1.31,-40.78,-29.25,1.31
18136,-9.49,-1.18,-3.60,-0.64,0.33,1.31,-40.78,-29.25,1.31
18147,-9.10,-1.59,-4.29,-0.57,0.15,1.20,-40.78,-29.25,1.31
18158,-9.10,-1.59,-4.29,-0.57,0.15,1.20,-40.78,-29.25,1.31
18169,-8.89,-1.62,-3.75,-0.42,-0.02,1.08,-40.78,-29.25,1.31
18180,-8.89,-1.62,-3.75,-0.42,-0.02,1.08,-40.78,-29.25,1.31
18191,-9.64,-0.50,-3.00,-0.40,0.01,1.03,-44.39,-23.81,-3.07
18297,-9.27,-0.28,-3.74,-0.38,-0.02,0.86,-44.39,-23.81,-3.07
18307,-9.46,-0.06,-2.54,-0.43,-0.03,0.76,-44.39,-23.81,-3.07
18318,-9.46,-0.06,-2.54,-0.43,-0.03,0.76,-44.39,-23.81,-3.07
18329,-9.78,0.84,-4.08,-0.47,0.03,0.64,-44.39,-21.10,-3.07
18340,-9.78,0.84,-4.08,-0.47,0.03,0.64,-44.39,-21.10,-3.07
18351,-9.70,0.30,-4.19,-0.47,-0.08,0.40,-44.39,-21.10,-3.07
18362,-9.70,0.30,-4.19,-0.47,-0.08,0.40,-44.39,-21.10,-3.07
18373,-9.56,0.30,-3.37,-0.47,-0.26,0.22,-44.39,-21.10,-3.07
18384,-9.73,0.73,-3.43,-0.51,-0.29,0.08,-44.39,-21.10,-3.07
18395,-9.73,0.73,-3.43,-0.51,-0.29,0.08,-44.39,-21.10,-3.07
18406,-9.67,1.11,-4.53,-0.45,-0.35,-0.15,-44.39,-21.10,-3.07
18417,-9.67,1.11,-4.53,-0.45,-0.35,-0.15,-44.39,-21.10,-3.07
18521,-9.32,-1.00,-2.76,0.34,-0.32,-1.31,-45.00,-21.25,-3.25
18531,-9.31,-0.51,-2.91,0.51,-0.35,-1.24,-45.00,-21.25,-3.25
18542,-9.31,-0.51,-2.91,0.51,-0.35,-1.24,-45.00,-21.25,-3.25
18553,-9.30,-0.32,-2.61,0.74,-0.36,-1.41,-45.00,-21.25,-3.25
18564,-9.30,-0.32,-2.61,0.74,-0.36,-1.41,-45.00,-21.25,-3.25
18575,-9.12,-1.50,-2.26,0.93,-0.36,-1.67,-42.99,-26.68,1.86
18586,-8.89,-2.19,-1.50,0.89,-0.44,-1.65,-42.99,-26.68,1.86
18597,-8.89,-2.19,-1.50,0.89,-0.44,-1.65,-42.99,-26.68,1.86
18614,-9.71,-2.28,-2.28,1.18,-0.38,-1.46,-42.99,-26.68,1.86
18619,-9.71,-2.28,-2.28,1.18,-0.38,-1.46,-42.99,-26.68,1.86
18630,-9.88,-3.21,-1.47,1.25,-0.21,-1.20,-42.99,-26.68,1.86
18641,-9.88,-3.21,-1.47,1.25,-0.21,-1.20,-42.99,-26.68,1.86
18652,-9.57,-2.21,-1.55,0.80,0.02,-0.82,-42.99,-26.68,1.86
18758,-9.42,-3.14,-2.42,-0.36,0.56,0.06,-38.36,-30.15,2.77
18768,-9.29,-4.04,-2.10,-0.48,0.49,0.21,-38.36,-30.15,2.77
18779,-9.29,-4.04,-2.10,-0.48,0.49,0.21,-38.36,-30.15,2.77
18790,-9.43,-3.39,-2.60,-0.74,0.57,0.52,-38.36,-30.15,2.77
18801,-9.43,-3.39,-2.60,-0.74,0.57,0.52,-38.36,-30.15,2.77
18812,-9.32,-2.97,-2.48,-0.90,0.55,0.80,-38.36,-30.15,2.77
18823,-9.32,-2.97,-2.48,-0.90,0.55,0.80,-38.36,-30.15,2.77
18834,-9.46,-3.73,-2.49,-0.95,0.53,1.05,-39.17,-30.46,-0.15
18845,-9.35,-1.30,-3.90,-0.99,0.40,1.41,-39.17,-30.46,-0.15
18856,-9.35,-1.30,-3.90,-0.99,0.40,1.41,-39.17,-30.46,-0.15
18867,-9.52,-1.78,-3.06,-0.80,0.17,1.43,-39.17,-30.46,-0.15
18878,-9.52,-1.78,-3.06,-0.80,0.17,1.43,-39.17,-30.46,-0.15
18984,-9.33,-0.88,-2.82,-0.39,-0.14,0.98,-43.39,-23.66,-2.88
18994,-9.62,0.11,-3.29,-0.43,-0.16,0.93,-43.39,-23.66,-2.88
19005,-9.85,0.04,-2.66,-0.35,-0.22,0.83,-43.39,-23.66,-2.88
19016,-9.85,0.04,-2.66,-0.35,-0.22,0.83,-43.39,-23.66,-2.88
19027,-10.10,0.73,-2.21,-0.40,-0.17,0.71,-43.39,-23.66,-2.88
19038,-10.10,0.73,-2.21,-0.40,-0.17,0.71,-43.39,-23.66,-2.88
19049,-10.20,0.80,-2.63,-0.56,-0.06,0.46,-43.39,-23.66,-2.88
19060,-10.20,0.80,-2.63,-0.56,-0.06,0.46,-43.39,-23.66,-2.88
19071,-10.60,2.54,-3.83,-0.70,-0.28,0.11,-43.39,-23.66,-2.88
19082,-10.60,2.54,-3.83,-0.70,-0.28,0.11,-43.39,-23.66,-2.88
19093,-9.99,2.07,-3.04,-0.69,-0.67,-0.50,-45.00,-20.04,-1.43
19104,-9.99,2.07,-3.04,-0.69,-0.67,-0.50,-45.00,-20.04,-1.43
19115,-10.09,3.14,-2.07,-0.32,-0.75,-1.01,-45.00,-20.04,-1.43
19257,-6.57,-4.59,-9.60,-0.12,0.17,-4.26,-39.77,-30.61,-2.88
19267,-5.19,-5.13,-8.87,0.96,0.05,-3.78,-39.77,-30.61,-2.88
19278,-5.19,-5.13,-8.87,0.96,0.05,-3.78,-39.77,-30.61,-2.88
19289,-4.53,-5.88,-6.80,1.81,-0.23,-3.24,-39.77,-30.61,-2.88
19300,-4.53,-5.88,-6.80,1.81,-0.23,-3.24,-39.77,-30.61,-2.88
19311,-4.94,-5.38,-4.10,2.30,-0.58,-2.59,-39.77,-30.61,-2.88
19322,-4.94,-5.38,-4.10,2.30,-0.58,-2.59,-39.77,-30.61,-2.88
19333,-4.74,-5.65,-0.43,2.46,-0.84,-2.04,-22.69,-41.93,2.40
19344,-4.74,-5.65,-0.43,2.46,-0.84,-2.04,-22.69,-41.93,2.40
19355,-4.91,-6.49,1.59,2.11,-0.45,-1.73,-22.69,-41.93,2.40
19366,-5.14,-6.29,-0.03,1.66,0.07,-1.38,-22.69,-41.93,2.40
19377,-5.14,-6.29,-0.03,1.66,0.07,-1.38,-22.69,-41.93,2.40
19481,-5.22,-8.21,2.18,1.09,0.73,-0.16,-17.26,-43.89,12.06
19491,-5.16,-6.94,0.02,0.62,0.81,0.09,-17.26,-43.89,12.06
19502,-5.16,-6.94,0.02,0.62,0.81,0.09,-17.26,-43.89,12.06
19513,-5.30,-7.37,0.32,0.68,0.50,0.12,-17.26,-43.89,12.06
19524,-5.30,-7.37,0.32,0.68,0.50,0.12,-17.26,-43.89,12.06
19535,-5.75,-8.07,1.30,0.79,0.29,0.14,-17.26,-43.89,12.06
19546,-5.64,-8.49,1.89,0.60,0.28,0.22,-17.26,-43.89,12.06
19557,-5.64,-8.49,1.89,0.60,0.28,0.22,-17.26,-43.89,12.06
19568,-5.36,-8.75,1.36,0.34,0.35,0.31,-17.26,-43.89,12.06
19579,-5.36,-8.75,1.36,0.34,0.35,0.31,-17.26,-43.89,12.06
19590,-4.54,-8.89,0.52,0.43,0.36,0.40,-18.26,-43.74,14.80
19601,-4.54,-8.89,0.52,0.43,0.36,0.40,-18.26,-43.74,14.80
19612,-3.78,-8.62,0.03,0.79,0.17,0.53,-18.26,-43.74,14.80
19716,-5.17,-7.59,0.20,0.31,0.01,0.18,-21.28,-40.57,18.99
19726,-4.86,-8.31,-0.40,0.35,-0.11,0.58,-21.28,-40.57,18.99
19737,-4.86,-8.31,-0.40,0.35,-0.11,0.58,-21.28,-40.57,18.99
19748,-6.47,-6.40,-0.63,0.64,-0.41,1.10,-21.28,-40.57,18.99
19759,-6.47,-6.40,-0.63,0.64,-0.41,1.10,-21.28,-40.57,18.99
19770,-10.94,-4.01,2.53,0.74,-0.46,1.21,-21.28,-40.57,18.99
19781,-10.94,-4.01,2.53,0.74,-0.46,1.21,-21.28,-40.57,18.99
19792,-10.46,-6.28,2.22,0.24,0.11,0.68,-21.28,-40.57,18.99
19803,-10.46,-6.28,2.22,0.24,0.11,0.68,-21.28,-40.57,18.99
19814,-8.37,-10.22,1.83,-0.69,0.49,0.65,-21.28,-40.57,18.99
19825,-8.37,-10.22,1.83,-0.69,0.49,0.65,-21.28,-40.57,18.99
19836,-6.63,-11.79,1.98,-1.62,0.81,1.50,-24.90,-39.36,19.35
19847,-6.01,-8.99,-0.98,-2.33,1.29,2.70,-24.90,-39.36,19.35
19951,-7.37,0.76,-3.66,-8.20,-0.39,4.09,-24.90,-39.36,19.35
19961,-7.37,0.76,-3.66,-8.20,-0.39,4.09,-24.90,-39.36,19.35
19972,-6.83,1.84,-3.84,-7.79,-1.11,3.86,-41.98,-27.44,-3.43
19983,-6.83,1.84,-3.84,-7.79,-1.11,3.86,-41.98,-27.44,-3.43
19994,-8.21,1.86,-2.99,-6.32,-1.71,3.59,-41.98,-27.44,-3.43
20005,-8.21,1.86,-2.99,-6.32,-1.71,3.59,-41.98,-27.44,-3.43
20016,-9.37,1.77,-0.94,-4.78,-1.99,3.49,-41.98,-27.44,-3.43
20027,-7.59,1.63,1.08,-4.91,-2.20,3.36,-41.98,-27.44,-3.43
20038,-7.59,1.63,1.08,-4.91,-2.20,3.36,-41.98,-27.44,-3.43
20049,-5.78,2.77,-0.56,-6.58,-2.48,3.26,-41.98,-27.44,-3.43
20060,-5.78,2.77,-0.56,-6.58,-2.48,3.26,-41.98,-27.44,-3.43
20071,-6.70,6.03,-2.50,-6.59,-3.12,2.92,-41.98,-27.44,-3.43
20082,-6.70,6.03,-2.50,-6.59,-3.12,2.92,-41.98,-27.44,-3.43
20186,-6.52,6.39,6.74,-2.80,-5.11,1.10,-47.61,-9.62,1.67
20196,-6.52,6.39,6.74,-2.80,-5.11,1.10,-47.61,-9.62,1.67
20207,-4.99,5.20,8.68,-2.16,-5.23,0.27,-37.96,-7.81,29.02
20218,-4.99,5.20,8.68,-2.16,-5.23,0.27,-37.96,-7.81,29.02
20229,-4.23,3.57,10.33,-1.39,-4.96,-0.28,-37.96,-7.81,29.02
20240,-4.23,3.57,10.33,-1.39,-4.96,-0.28,-37.96,-7.81,29.02
20251,-4.31,2.70,12.42,-0.71,-4.26,-0.53,-37.96,-7.81,29.02
20262,-4.31,2.70,12.42,-0.71,-4.26,-0.53,-37.96,-7.81,29.02
20273,-4.87,2.62,14.22,-0.60,-3.31,-0.63,-37.96,-7.81,29.02
20284,-4.87,2.62,14.22,-0.60,-3.31,-0.63,-37.96,-7.81,29.02
20295,-4.14,1.16,16.20,-0.47,-2.04,-0.66,-37.96,-7.81,29.02
20306,-3.92,0.93,11.31,-0.17,-0.34,-0.23,-37.96,-7.81,29.02
20410,-3.57,2.08,8.90,-0.68,-0.55,-0.08,-26.91,-10.08,39.04
20421,-3.57,2.08,8.90,-0.68,-0.55,-0.08,-26.91,-10.08,39.04
20432,-3.37,1.43,9.06,-0.59,-0.48,-0.09,-26.91,-10.08,39.04
20443,-3.37,1.43,9.06,-0.59,-0.48,-0.09,-26.91,-10.08,39.04
20454,-3.56,1.60,8.82,-0.49,-0.38,0.00,-26.91,-10.08,39.04
20465,-3.56,1.60,8.82,-0.49,-0.38,0.00,-26.91,-10.08,39.04
20476,-3.67,1.97,9.48,-0.34,-0.34,0.01,-25.10,-10.23,41.05
20487,-3.74,1.97,10.04,-0.33,-0.26,-0.08,-25.10,-10.23,41.05
20498,-3.74,1.97,10.04,-0.33,-0.26,-0.08,-25.10,-10.23,41.05
20602,-3.49,1.63,9.39,0.41,0.19,0.12,-24.29,-12.04,40.32
20612,-3.25,1.39,8.66,0.47,0.24,0.14,-24.29,-12.04,40.32
20623,-3.25,1.39,8.66,0.47,0.24,0.14,-24.29,-12.04,40.32
20634,-3.41,2.26,8.41,0.29,0.18,0.20,-24.29,-12.04,40.32
20645,-3.41,2.26,8.41,0.29,0.18,0.20,-24.29,-12.04,40.32
20656,-3.65,2.95,8.90,0.44,0.13,0.15,-24.29,-12.04,40.32
20667,-3.64,2.77,9.06,0.95,0.15,0.05,-24.29,-12.04,40.32
20678,-3.64,2.77,9.06,0.95,0.15,0.05,-24.29,-12.04,40.32
20689,-3.51,2.69,8.94,1.44,0.24,0.07,-24.29,-12.04,40.32
20700,-3.51,2.69,8.94,1.44,0.24,0.07,-24.29,-12.04,40.32
20711,-3.49,3.50,8.39,1.62,0.32,0.16,-24.29,-8.42,38.86
20722,-3.49,3.50,8.39,1.62,0.32,0.16,-24.29,-8.42,38.86
20733,-3.38,3.78,7.45,1.66,0.33,0.09,-24.29,-8.42,38.86
20838,-3.34,4.37,7.21,1.64,0.14,-0.08,-24.29,-8.42,38.86
20849,-3.48,4.56,7.34,1.38,0.01,-0.05,-27.31,-1.02,38.68
20860,-3.48,4.56,7.34,1.38,0.01,-0.05,-27.31,-1.02,38.68
20871,-3.63,5.42,7.65,1.36,-0.03,0.05,-27.31,-1.02,38.68
20887,-3.63,5.42,7.65,1.36,-0.03,0.05,-27.31,-1.02,38.68
20893,-3.76,5.79,7.39,1.57,0.03,0.07,-27.31,-1.02,38.68
20904,-3.76,5.79,7.39,1.57,0.03,0.07,-27.31,-1.02,38.68
20915,-3.53,5.61,7.04,1.65,0.04,0.04,-27.31,-1.02,38.68
20926,-3.53,5.61,7.04,1.65,0.04,0.04,-27.31,-1.02,38.68
20937,-3.60,6.14,6.95,1.95,0.08,0.13,-27.31,-1.02,38.68
20948,-3.88,6.79,6.81,2.29,0.12,0.17,-27.31,-1.02,38.68
20959,-3.88,6.79,6.81,2.29,0.12,0.17,-27.31,-1.02,38.68
20970,-3.63,6.42,6.67,2.23,0.09,0.11,-27.51,4.87,33.75
21076,-3.47,7.47,5.34,1.64,0.20,0.03,-27.51,4.87,33.75
21086,-3.47,7.47,5.34,1.64,0.20,0.03,-27.51,4.87,33.75
21097,-3.50,7.71,4.28,1.62,0.26,0.04,-28.11,9.25,27.74
21108,-3.46,7.68,4.72,1.26,0.13,0.02,-28.11,9.25,27.74
21119,-3.46,7.68,4.72,1.26,0.13,0.02,-28.11,9.25,27.74
21130,-3.59,7.92,4.76,0.92,0.07,-0.02,-28.11,9.25,27.74
21141,-3.59,7.92,4.76,0.92,0.07,-0.02,-28.11,9.25,27.74
21152,-3.41,7.66,4.41,0.62,0.05,-0.07,-28.11,9.25,27.74
21163,-3.41,7.66,4.41,0.62,0.05,-0.07,-28.11,9.25,27.74
21174,-3.31,7.60,4.02,0.37,0.02,-0.02,-28.11,9.25,27.74
21185,-3.31,7.60,4.02,0.37,0.02,-0.02,-28.11,9.25,27.74
21196,-3.55,8.39,4.44,0.39,-0.02,0.11,-28.11,9.25,27.74
21207,-3.58,8.48,4.56,0.40,0.01,0.10,-28.11,9.25,27.74
21218,-3.58,8.48,4.56,0.40,0.01,0.10,-28.11,9.25,27.74
21359,-3.52,8.54,3.75,0.33,0.11,0.04,-28.31,11.81,25.73
21369,-3.49,8.31,3.61,0.19,0.08,0.00,-28.31,11.81,25.73
21380,-3.49,8.31,3.61,0.19,0.08,0.00,-28.31,11.81,25.73
21391,-3.52,8.55,3.80,0.04,0.01,-0.00,-28.31,11.81,25.73
21402,-3.52,8.55,3.80,0.04,0.01,-0.00,-28.31,11.81,25.73
21413,-3.47,8.54,3.83,0.06,0.01,-0.01,-28.31,11.81,25.73
21424,-3.47,8.54,3.83,0.06,0.01,-0.01,-28.31,11.81,25.73
21435,-3.49,8.41,3.64,0.11,0.01,-0.01,-28.31,11.81,25.73
21446,-3.49,8.41,3.64,0.11,0.01,-0.01,-28.31,11.81,25.73
21457,-3.53,8.59,3.98,0.09,-0.02,-0.00,-28.31,11.81,25.73
21468,-3.47,8.30,3.79,0.04,-0.01,-0.01,-30.73,13.02,26.46
21479,-3.47,8.30,3.79,0.04,-0.01,-0.01,-30.73,13.02,26.46
21490,-3.44,8.38,3.69,0.12,0.02,0.02,-30.73,13.02,26.46
21594,-3.09,8.78,2.19,0.76,-0.03,0.23,-30.73,13.02,26.46
21604,-3.09,8.78,2.19,0.76,-0.03,0.23,-30.73,13.02,26.46
21615,-3.15,8.48,2.31,1.24,-0.14,0.34,-27.91,13.62,25.73
21626,-3.15,8.48,2.31,1.24,-0.14,0.34,-27.91,13.62,25.73
21637,-3.00,8.58,3.01,1.75,-0.18,0.51,-27.91,13.62,25.73
21648,-2.95,9.91,2.17,2.64,0.01,0.74,-27.91,13.62,25.73
21659,-2.95,9.91,2.17,2.64,0.01,0.74,-27.91,13.62,25.73
21670,-2.55,9.77,1.78,4.18,0.22,0.89,-27.91,13.62,25.73
21681,-2.55,9.77,1.78,4.18,0.22,0.89,-27.91,13.62,25.73
21692,-2.34,8.45,-0.27,5.13,0.49,0.99,-27.91,13.62,25.73
21703,-2.34,8.45,-0.27,5.13,0.49,0.99,-27.91,13.62,25.73
21714,-1.98,6.64,-1.98,4.88,0.39,1.04,-27.91,13.62,25.73
21725,-1.98,6.64,-1.98,4.88,0.39,1.04,-27.91,13.62,25.73
21736,-2.01,6.51,-1.08,3.58,-0.05,1.25,-22.28,21.77,10.06
21840,-1.66,15.89,-1.33,0.84,-0.52,1.83,-22.28,21.77,10.06
21850,-1.03,13.53,-2.37,3.05,-0.05,1.00,-14.44,24.04,1.13
21861,-1.03,13.53,-2.37,3.05,-0.05,1.00,-14.44,24.04,1.13
21872,-0.63,10.13,-1.57,5.00,0.27,0.36,-14.44,24.04,1.13
21883,-0.63,10.13,-1.57,5.00,0.27,0.36,-14.44,24.04,1.13
21894,-0.25,6.69,-2.13,5.04,0.71,0.12,-14.44,24.04,1.13
21905,-0.25,6.69,-2.13,5.04,0.71,0.12,-14.44,24.04,1.13
21916,0.36,5.39,-5.66,2.71,0.78,0.11,-14.44,24.04,1.13
21927,0.36,5.39,-5.66,2.71,0.78,0.11,-14.44,24.04,1.13
21938,0.42,6.29,-6.24,1.21,0.49,0.62,-14.44,24.04,1.13
21949,0.25,8.43,-5.82,0.43,0.22,1.00,-14.44,24.04,1.13
21960,0.25,8.43,-5.82,0.43,0.22,1.00,-14.44,24.04,1.13
21971,0.10,9.08,-5.20,0.57,0.23,1.02,-12.03,24.64,-12.73
22075,0.36,7.87,-6.66,1.75,0.18,-0.17,-12.03,24.64,-12.73
22085,0.36,7.87,-6.66,1.75,0.18,-0.17,-12.03,24.64,-12.73
22096,0.24,8.22,-7.41,4.49,0.36,0.01,-12.03,24.64,-12.73
22107,0.24,8.22,-7.41,4.49,0.36,0.01,-12.03,24.64,-12.73
22118,2.34,10.70,-13.98,8.50,0.65,0.13,-11.63,20.42,-23.30
22129,0.50,5.94,-8.21,4.58,-0.24,-0.45,-11.63,20.42,-23.30
22140,0.50,5.94,-8.21,4.58,-0.24,-0.45,-11.63,20.42,-23.30
22151,0.33,4.93,-8.46,3.77,-0.38,-0.53,-11.63,20.42,-23.30
22162,0.33,4.93,-8.46,3.77,-0.38,-0.53,-11.63,20.42,-23.30
22173,0.24,3.28,-8.32,3.15,-0.43,-0.52,-11.63,20.42,-23.30
22184,0.24,3.28,-8.32,3.15,-0.43,-0.52,-11.63,20.42,-23.30
22195,0.52,1.63,-8.34,1.61,-0.40,-0.43,-11.63,20.42,-23.30
22206,0.52,1.63,-8.34,1.61,-0.40,-0.43,-11.63,20.42,-23.30
22310,-0.88,7.61,-9.72,-3.10,-1.16,-1.52,-13.04,10.30,-34.78
22320,-0.88,7.61,-9.72,-3.10,-1.16,-1.52,-13.04,10.30,-34.78
22331,-1.30,8.07,-5.40,0.95,0.09,-0.02,-13.04,10.30,-34.78
22342,-1.30,8.07,-5.40,0.95,0.09,-0.02,-13.04,10.30,-34.78
22353,-0.26,6.38,-8.15,1.46,0.72,0.74,-16.86,16.49,-25.49
22364,-0.26,6.38,-8.15,1.46,0.72,0.74,-16.86,16.49,-25.49
22375,-0.00,6.29,-8.33,0.10,-0.17,0.15,-16.86,16.49,-25.49
22386,-0.00,6.29,-8.33,0.10,-0.17,0.15,-16.86,16.49,-25.49
22397,-0.78,6.83,-8.58,-0.71,-0.74,-0.32,-16.86,16.49,-25.49
22408,-0.97,6.77,-7.38,-0.03,-0.26,0.20,-16.86,16.49,-25.49
22419,-0.97,6.77,-7.38,-0.03,-0.26,0.20,-16.86,16.49,-25.49
22430,-0.43,6.39,-8.08,0.52,0.11,0.48,-16.86,16.49,-25.49
22441,-0.43,6.39,-8.08,0.52,0.11,0.48,-16.86,16.49,-25.49
22545,-0.58,6.46,-7.96,0.02,0.02,0.00,-16.66,19.36,-23.12
22555,-0.56,6.46,-7.98,0.00,0.00,-0.01,-16.66,19.36,-23.12
22566,-0.56,6.46,-7.98,0.00,0.00,-0.01,-16.66,19.36,-23.12
22577,-0.59,6.48,-7.95,0.00,0.00,-0.01,-16.66,19.36,-23.12
22588,-0.59,6.48,-7.95,0.00,0.00,-0.01,-16.66,19.36,-23.12
22599,-0.57,6.46,-7.97,0.01,0.01,-0.00,-16.66,19.36,-23.12
22610,-0.58,6.48,-7.96,0.00,0.00,-0.01,-16.66,18.15,-24.57
22621,-0.58,6.48,-7.96,0.00,0.00,-0.01,-16.66,18.15,-24.57
22632,-0.58,6.46,-7.95,0.00,0.00,-0.01,-16.66,18.15,-24.57
22643,-0.58,6.46,-7.95,0.00,0.00,-0.01,-16.66,18.15,-24.57
22654,-0.58,6.44,-7.95,0.00,0.00,-0.01,-16.66,18.15,-24.57
22665,-0.58,6.44,-7.95,0.00,0.00,-0.01,-16.66,18.15,-24.57
22771,-0.69,6.54,-7.90,0.00,0.00,-0.01,-17.06,18.15,-23.85
22781,-0.69,6.54,-7.90,0.00,0.00,-0.01,-17.06,18.15,-23.85
22792,-0.34,6.96,-7.49,-0.03,0.09,-0.13,-17.06,18.15,-23.85
22803,-0.34,6.96,-7.49,-0.03,0.09,-0.13,-17.06,18.15,-23.85
22814,0.51,7.17,-7.47,0.03,0.30,-0.33,-17.06,18.15,-23.85
22825,0.51,7.17,-7.47,0.03,0.30,-0.33,-17.06,18.15,-23.85
22836,1.00,6.87,-7.76,0.05,0.43,-0.46,-17.06,18.15,-23.85
22847,1.00,6.87,-7.76,0.05,0.43,-0.46,-17.06,18.15,-23.85
22858,-0.67,5.30,-9.00,0.11,0.46,-0.49,-17.06,18.15,-23.85
22869,-1.11,5.09,-9.05,0.07,0.47,-0.52,-16.45,17.70,-25.12
22880,-1.11,5.09,-9.05,0.07,0.47,-0.52,-16.45,17.70,-25.12
22891,0.86,6.14,-8.38,0.01,0.49,-0.55,-16.45,17.70,-25.12
22902,0.86,6.14,-8.38,0.01,0.49,-0.55,-16.45,17.70,-25.12
23004,-1.90,6.22,-8.11,-0.02,1.14,-1.38,-19.87,15.13,-27.13
23014,-1.95,6.09,-8.06,-0.05,1.16,-1.41,-19.87,15.13,-27.13
23025,-1.95,6.09,-8.06,-0.05,1.16,-1.41,-19.87,15.13,-27.13
23036,-0.05,6.10,-8.19,-0.07,1.03,-1.26,-19.87,15.13,-27.13
23047,-0.05,6.10,-8.19,-0.07,1.03,-1.26,-19.87,15.13,-27.13
23058,0.97,7.25,-7.42,-0.07,0.92,-1.11,-19.87,15.13,-27.13
23069,-0.45,7.04,-7.51,-0.03,1.00,-1.22,-19.87,15.13,-27.13
23080,-0.45,7.04,-7.51,-0.03,1.00,-1.22,-19.87,15.13,-27.13
23091,-1.56,6.72,-7.67,-0.00,0.98,-1.19,-19.87,15.13,-27.13
23102,-1.56,6.72,-7.67,-0.00,0.98,-1.19,-19.87,15.13,-27.13
23113,-0.61,6.18,-8.23,0.01,0.87,-1.04,-21.08,13.32,-29.31
23124,-0.61,6.18,-8.23,0.01,0.87,-1.04,-21.08,13.32,-29.31
23135,0.89,5.92,-8.47,0.01,0.81,-0.93,-21.08,13.32,-29.31
23277,-1.16,6.64,-7.58,-0.40,0.15,-0.68,-21.08,10.91,-31.87
23287,-1.16,6.64,-7.58,-0.40,0.15,-0.68,-21.08,10.91,-31.87
23298,-1.14,6.65,-7.77,0.07,0.33,-0.33,-21.08,10.91,-31.87
23309,-0.63,6.72,-7.81,0.14,0.28,-0.12,-21.08,10.91,-31.87
23320,-0.63,6.72,-7.81,0.14,0.28,-0.12,-21.08,10.91,-31.87
23331,-0.47,6.35,-8.08,-0.02,0.02,-0.08,-21.08,10.91,-31.87
23342,-0.47,6.35,-8.08,-0.02,0.02,-0.08,-21.08,10.91,-31.87
23353,-0.89,6.64,-7.64,-0.09,-0.06,-0.06,-21.08,10.91,-31.87
23364,-0.89,6.64,-7.64,-0.09,-0.06,-0.06,-21.08,10.91,-31.87
23375,-0.36,6.31,-8.14,0.01,-0.05,0.04,-21.88,12.11,-31.50
23386,-0.36,6.31,-8.14,0.01,-0.05,0.04,-21.88,12.11,-31.50
23397,0.07,6.80,-8.30,-0.03,-0.30,0.28,-21.88,12.11,-31.50
23408,0.07,6.80,-8.30,-0.03,-0.30,0.28,-21.88,12.11,-31.50
23509,-0.92,6.55,-7.82,-0.36,-1.27,1.12,-20.68,13.93,-27.86
23519,-1.45,8.10,-7.00,0.40,-0.76,1.28,-20.68,13.93,-27.86
23530,-0.05,7.54,-7.11,0.11,-0.58,0.84,-20.68,13.93,-27.86
23541,-0.05,7.54,-7.11,0.11,-0.58,0.84,-20.68,13.93,-27.86
23552,-0.58,6.74,-7.80,0.01,-0.32,0.36,-20.68,13.93,-27.86
23563,-0.58,6.74,-7.80,0.01,-0.32,0.36,-20.68,13.93,-27.86
23574,-0.22,6.32,-8.08,-0.00,-0.24,0.21,-20.68,13.93,-27.86
23585,-0.22,6.32,-8.08,-0.00,-0.24,0.21,-20.68,13.93,-27.86
23596,-0.36,6.20,-8.14,0.01,-0.26,0.33,-20.68,13.93,-27.86
23607,-0.36,6.20,-8.14,0.01,-0.26,0.33,-20.68,13.93,-27.86
23618,-0.26,6.40,-8.06,0.02,-0.24,0.28,-18.46,15.28,-27.67
23629,-0.26,6.40,-8.06,0.02,-0.24,0.28,-18.46,15.28,-27.67
23737,-0.62,5.98,-8.24,0.01,0.24,-0.34,-18.46,15.28,-27.67
23747,-0.62,5.98,-8.24,0.01,0.24,-0.34,-18.46,15.28,-27.67
23758,-0.23,5.72,-8.60,0.04,0.16,-0.17,-20.27,14.53,-26.40
23769,-0.23,5.72,-8.60,0.04,0.16,-0.17,-20.27,14.53,-26.40
23780,-1.26,5.81,-8.32,-0.10,-0.11,0.08,-20.27,14.53,-26.40
23791,-0.26,6.43,-8.08,0.06,-0.20,0.32,-20.27,14.53,-26.40
23802,-0.26,6.43,-8.08,0.06,-0.20,0.32,-20.27,14.53,-26.40
23813,-0.46,6.85,-7.72,0.02,-0.19,0.22,-20.27,14.53,-26.40
23824,-0.46,6.85,-7.72,0.02,-0.19,0.22,-20.27,14.53,-26.40
23835,-0.37,6.46,-7.95,-0.09,-0.07,-0.01,-20.27,14.53,-26.40
23846,-0.37,6.46,-7.95,-0.09,-0.07,-0.01,-20.27,14.53,-26.40
23857,-0.56,6.50,-7.95,-0.17,-0.07,-0.06,-20.27,14.53,-26.40
23868,-0.56,6.50,-7.95,-0.17,-0.07,-0.06,-20.27,14.53,-26.40
24009,0.08,6.99,-7.11,0.49,-0.05,0.40,-19.47,17.25,-25.67
24019,0.02,6.57,-8.09,0.79,0.15,0.58,-19.47,17.25,-25.67
24030,-0.84,6.80,-7.53,-0.07,-0.25,0.05,-19.47,17.25,-25.67
24041,-0.84,6.80,-7.53,-0.07,-0.25,0.05,-19.47,17.25,-25.67
24052,-0.43,6.34,-8.22,0.14,0.03,0.10,-19.47,17.25,-25.67
24063,-0.43,6.34,-8.22,0.14,0.03,0.10,-19.47,17.25,-25.67
24074,-0.43,6.35,-8.12,0.01,0.00,0.00,-19.47,17.25,-25.67
24085,-0.43,6.35,-8.12,0.01,0.00,0.00,-19.47,17.25,-25.67
24096,-0.49,6.34,-8.03,0.00,0.01,-0.00,-19.47,17.25,-25.67
24107,-0.49,6.34,-8.03,0.00,0.01,-0.00,-19.47,17.25,-25.67
24118,-0.53,6.35,-8.04,-0.00,0.01,-0.00,-19.47,17.25,-25.67
24129,-0.53,6.35,-8.04,-0.00,0.01,-0.00,-19.47,17.25,-25.67
24140,-0.52,6.37,-8.01,-0.00,0.01,-0.00,-20.88,15.28,-28.04
24244,-0.51,6.38,-8.03,-0.00,0.00,-0.01,-20.88,15.28,-28.04
24255,-0.51,6.38,-8.04,-0.00,0.00,-0.00,-18.67,17.85,-25.67
24266,-0.51,6.38,-8.04,-0.00,0.00,-0.00,-18.67,17.85,-25.67
24277,-0.50,6.38,-8.04,-0.00,0.00,-0.01,-18.67,17.85,-25.67
24288,-0.50,6.38,-8.04,-0.00,0.00,-0.01,-18.67,17.85,-25.67
24299,-0.49,6.36,-8.03,0.00,0.00,-0.00,-18.67,17.85,-25.67
24310,-0.53,6.36,-8.02,0.00,0.00,-0.01,-18.67,17.85,-25.67
24321,-0.53,6.36,-8.02,0.00,0.00,-0.01,-18.67,17.85,-25.67
24332,-0.52,6.28,-7.98,0.00,0.00,-0.01,-18.67,17.85,-25.67
24343,-0.52,6.28,-7.98,0.00,0.00,-0.01,-18.67,17.85,-25.67
24354,-0.50,6.39,-8.01,-0.00,0.00,-0.01,-18.67,17.85,-25.67
24365,-0.50,6.39,-8.01,-0.00,0.00,-0.01,-18.67,17.85,-25.67
24376,-0.49,6.36,-8.04,-0.00,0.00,-0.01,-19.87,15.13,-26.76
24481,1.70,6.24,-8.28,0.00,0.08,-0.02,-19.87,15.13,-26.76
24491,-2.03,6.34,-7.99,-0.01,0.15,-0.11,-18.67,14.83,-26.40
24502,-2.03,6.34,-7.99,-0.01,0.15,-0.11,-18.67,14.83,-26.40
24513,-1.08,6.55,-7.90,-0.05,0.33,-0.30,-18.67,14.83,-26.40
24524,-1.08,6.55,-7.90,-0.05,0.33,-0.30,-18.67,14.83,-26.40
24535,-0.55,6.42,-8.04,-0.03,0.43,-0.30,-18.67,14.83,-26.40
24546,-0.55,6.42,-8.04,-0.03,0.43,-0.30,-18.67,14.83,-26.40
24557,-0.31,6.41,-8.08,-0.07,0.38,-0.14,-18.67,14.83,-26.40
24661,-0.79,6.27,-8.03,0.07,0.03,-0.01,-19.87,12.42,-27.86
24671,-0.82,6.18,-8.33,0.12,0.13,-0.04,-19.87,12.42,-27.86
24682,-0.82,6.18,-8.33,0.12,0.13,-0.04,-19.87,12.42,-27.86
24693,-0.74,5.76,-8.20,0.09,0.45,-0.37,-19.87,12.42,-27.86
24704,-0.74,5.76,-8.20,0.09,0.45,-0.37,-19.87,12.42,-27.86
24715,-0.11,6.61,-8.04,-0.01,0.27,-0.28,-19.87,12.42,-27.86
24726,-0.11,6.61,-8.04,-0.01,0.27,-0.28,-19.87,12.42,-27.86
24737,-0.56,6.14,-8.05,0.09,-0.07,0.06,-19.87,12.42,-27.86
24753,-0.56,6.14,-8.05,0.09,-0.07,0.06,-19.87,12.42,-27.86
24759,0.09,6.37,-7.50,-0.08,-0.03,0.02,-22.89,14.08,-28.77
24770,0.09,6.37,-7.50,-0.08,-0.03,0.02,-22.89,14.08,-28.77
24781,-0.42,6.46,-8.08,-0.03,0.12,0.00,-22.89,14.08,-28.77
24792,-0.61,6.12,-8.21,0.04,0.19,-0.08,-22.89,14.08,-28.77
24896,-0.32,6.27,-8.17,-0.03,0.17,-0.06,-20.07,14.98,-29.13
24906,-0.32,6.27,-8.17,-0.03,0.17,-0.06,-20.07,14.98,-29.13
24917,-0.21,6.34,-8.05,-0.00,0.02,-0.02,-20.07,14.98,-29.13
24928,-0.21,6.34,-8.05,-0.00,0.02,-0.02,-20.07,14.98,-29.13
24939,-0.45,6.32,-8.08,-0.02,-0.00,0.08,-20.07,14.98,-29.13
24950,-0.45,6.32,-8.08,-0.02,-0.00,0.08,-20.07,14.98,-29.13
24961,-0.22,6.38,-8.04,-0.03,0.06,0.08,-20.07,14.98,-29.13
24972,-0.25,6.36,-8.09,-0.02,0.03,0.09,-20.07,14.98,-29.13
24983,-0.25,6.36,-8.09,-0.02,0.03,0.09,-20.07,14.98,-29.13
24994,-0.32,6.39,-8.07,-0.02,0.01,0.08,-20.07,14.98,-29.13
25005,-0.32,6.39,-8.07,-0.02,0.01,0.08,-20.07,14.98,-29.13
25016,-0.23,6.39,-8.05,-0.01,0.01,0.01,-18.67,13.32,-30.04
25120,-0.22,6.33,-8.06,0.02,0.10,-0.15,-18.67,13.32,-30.04
25130,-0.22,6.33,-8.06,0.02,0.10,-0.15,-18.67,13.32,-30.04
25141,-0.22,6.37,-8.08,0.03,0.01,-0.02,-20.68,14.83,-29.31
25152,-0.23,6.37,-8.06,0.02,0.01,-0.00,-20.68,14.83,-29.31
25163,-0.23,6.37,-8.06,0.02,0.01,-0.00,-20.68,14.83,-29.31
25174,-0.05,6.38,-8.04,0.02,-0.01,0.01,-20.68,14.83,-29.31
25185,-0.05,6.38,-8.04,0.02,-0.01,0.01,-20.68,14.83,-29.31
25196,-0.35,6.30,-8.09,0.01,-0.12,0.13,-20.68,14.83,-29.31
25207,-0.35,6.30,-8.09,0.01,-0.12,0.13,-20.68,14.83,-29.31
25218,-0.33,6.36,-8.08,0.01,-0.08,0.08,-20.68,14.83,-29.31
25229,-0.33,6.36,-8.08,0.01,-0.08,0.08,-20.68,14.83,-29.31
25240,-0.27,6.36,-8.08,0.02,-0.01,0.02,-20.68,14.83,-29.31
25251,-0.24,6.34,-8.10,0.01,0.01,0.00,-19.87,14.53,-28.95
25355,-0.28,6.33,-8.10,0.01,-0.01,0.01,-19.87,14.53,-28.95
25365,-0.28,6.33,-8.10,0.01,-0.01,0.01,-19.87,14.53,-28.95
25376,-0.25,6.34,-8.10,0.01,0.01,0.01,-19.87,14.53,-28.95
25387,-0.25,6.34,-8.10,0.01,0.01,0.01,-19.87,14.53,-28.95
25398,-0.22,6.31,-8.08,0.01,0.02,0.01,-18.67,13.93,-29.31
25409,-0.22,6.31,-8.08,0.01,0.02,0.01,-18.67,13.93,-29.31
25420,-0.23,6.33,-8.07,-0.00,0.01,0.00,-18.67,13.93,-29.31
25431,-0.23,6.34,-8.08,0.00,0.01,-0.00,-18.67,13.93,-29.31
25442,-0.23,6.34,-8.08,0.00,0.01,-0.00,-18.67,13.93,-29.31
25453,-0.28,6.41,-8.08,-0.03,-0.02,-0.02,-18.67,13.93,-29.31
25464,-0.28,6.41,-8.08,-0.03,-0.02,-0.02,-18.67,13.93,-29.31
25475,-0.13,6.40,-8.01,-0.05,-0.02,-0.01,-18.67,13.93,-29.31
25486,-0.13,6.40,-8.01,-0.05,-0.02,-0.01,-18.67,13.93,-29.31
25592,-0.25,6.33,-8.05,0.04,-0.03,-0.01,-19.87,13.62,-29.31
25602,-0.25,6.33,-8.05,0.04,-0.03,-0.01,-19.87,13.62,-29.31
25613,-0.34,6.31,-8.09,0.05,-0.05,-0.02,-19.87,13.62,-29.31
25624,-0.34,6.31,-8.09,0.05,-0.05,-0.02,-19.87,13.62,-29.31
25635,-0.30,6.33,-8.11,0.01,0.00,-0.00,-19.67,12.57,-28.77
25646,-0.30,6.33,-8.11,0.01,0.00,-0.00,-19.67,12.57,-28.77
25657,-0.26,6.31,-8.10,-0.00,0.01,-0.01,-19.67,12.57,-28.77
25668,-0.26,6.31,-8.10,-0.00,0.01,-0.01,-19.67,12.57,-28.77
25679,-0.35,6.28,-8.08,0.01,-0.03,-0.04,-19.67,12.57,-28.77
25690,-0.35,6.28,-8.08,0.01,-0.03,-0.04,-19.67,12.57,-28.77
25701,-0.15,6.42,-7.98,0.03,0.03,-0.06,-19.67,12.57,-28.77
25712,-0.32,6.27,-8.09,0.04,-0.00,-0.03,-19.67,12.57,-28.77
25723,-0.32,6.27,-8.09,0.04,-0.00,-0.03,-19.67,12.57,-28.77
25864,-0.23,6.28,-8.15,0.05,-0.04,0.11,-20.68,13.62,-28.59
25874,-0.37,6.25,-8.14,0.03,-0.08,-0.05,-20.68,13.62,-28.59
25885,-0.37,6.25,-8.14,0.03,-0.08,-0.05,-20.68,13.62,-28.59
25896,-0.45,6.25,-8.16,-0.00,-0.05,-0.08,-17.86,11.21,-26.40
25907,-0.45,6.25,-8.16,-0.00,-0.05,-0.08,-17.86,11.21,-26.40
25918,-0.39,6.26,-8.12,-0.03,-0.03,-0.05,-17.86,11.21,-26.40
25929,-0.39,6.26,-8.12,-0.03,-0.03,-0.05,-17.86,11.21,-26.40
25940,-0.47,6.23,-8.14,-0.09,0.04,-0.15,-17.86,11.21,-26.40
