time,ax,ay,az,gx,gy,gz,mx,my,mz
401,-0.47,6.33,-8.09,0.01,0.00,-0.01,-28.13,15.50,-25.99
411,-0.47,6.33,-8.09,0.01,0.00,-0.01,-28.13,15.50,-25.99
422,-0.50,6.36,-8.05,-0.00,-0.00,-0.01,-28.13,15.50,-25.99
433,-0.48,6.32,-8.06,0.01,0.00,-0.01,-28.13,15.50,-25.99
444,-0.48,6.32,-8.06,0.01,0.00,-0.01,-28.13,15.50,-25.99
455,-0.50,6.35,-8.05,-0.00,-0.00,-0.01,-28.13,15.50,-25.99
470,-0.50,6.35,-8.05,-0.00,-0.00,-0.01,-28.13,15.50,-25.99
477,-0.47,6.34,-8.07,0.01,0.00,-0.01,-28.13,14.04,-27.77
488,-0.47,6.34,-8.07,0.01,0.00,-0.01,-28.13,14.04,-27.77
499,-0.49,6.34,-8.07,-0.00,-0.00,-0.01,-28.13,14.04,-27.77
510,-0.49,6.34,-8.07,-0.00,-0.00,-0.01,-28.13,14.04,-27.77
521,-0.50,6.36,-8.07,0.01,0.00,-0.01,-28.13,14.04,-27.77
532,-0.50,6.36,-8.07,0.01,0.00,-0.01,-28.13,14.04,-27.77
543,-0.51,6.35,-8.05,0.00,-0.00,-0.01,-28.13,14.04,-27.77
554,-0.49,6.34,-8.05,0.00,0.00,-0.01,-28.13,14.04,-27.77
565,-0.49,6.34,-8.05,0.00,0.00,-0.01,-28.13,14.04,-27.77
576,-0.49,6.34,-8.06,0.00,-0.00,-0.01,-28.13,14.04,-27.77
587,-0.49,6.34,-8.06,0.00,-0.00,-0.01,-28.13,14.04,-27.77
598,-0.49,6.35,-8.08,0.00,0.00,-0.01,-28.13,14.04,-27.77
609,-0.49,6.35,-8.08,0.00,0.00,-0.01,-28.13,14.04,-27.77
620,-0.49,6.35,-8.07,0.00,0.00,-0.01,-28.13,14.62,-24.56
631,-0.49,6.35,-8.07,0.00,0.00,-0.01,-28.13,14.62,-24.56
642,-0.49,6.35,-8.06,0.00,0.00,-0.01,-28.13,14.62,-24.56
653,-0.48,6.35,-8.07,0.00,-0.00,-0.01,-28.13,14.62,-24.56
664,-0.48,6.35,-8.07,0.00,-0.00,-0.01,-28.13,14.62,-24.56
675,-0.50,6.34,-8.09,0.00,0.00,-0.01,-28.13,14.62,-24.56
686,-0.50,6.34,-8.09,0.00,0.00,-0.01,-28.13,14.62,-24.56
697,-0.49,6.35,-8.08,0.00,0.00,-0.01,-28.13,14.62,-24.56
708,-0.49,6.35,-8.08,0.00,0.00,-0.01,-28.13,14.62,-24.56
719,-0.50,6.34,-8.08,0.00,0.00,-0.01,-28.13,14.62,-24.56
730,-0.50,6.34,-8.08,0.00,0.00,-0.01,-28.13,14.62,-24.56
741,-0.48,6.34,-8.06,0.00,0.00,-0.01,-26.85,14.92,-25.63
752,-0.48,6.34,-8.06,0.00,0.00,-0.01,-26.85,14.92,-25.63
763,-0.48,6.33,-8.06,0.00,0.00,-0.01,-26.85,14.92,-25.63
774,-0.50,6.33,-8.07,0.00,0.00,-0.01,-26.85,14.92,-25.63
785,-0.50,6.33,-8.07,0.00,0.00,-0.01,-26.85,14.92,-25.63
796,-0.50,6.33,-8.05,0.00,0.00,-0.01,-26.85,14.92,-25.63
807,-0.50,6.33,-8.05,0.00,0.00,-0.01,-26.85,14.92,-25.63
818,-0.49,6.34,-8.02,0.00,0.00,-0.01,-26.85,14.92,-25.63
829,-0.49,6.34,-8.02,0.00,0.00,-0.01,-26.85,14.92,-25.63
840,-0.48,6.34,-8.04,0.00,0.00,-0.01,-26.85,14.92,-25.63
851,-0.48,6.34,-8.04,0.00,0.00,-0.01,-26.85,14.92,-25.63
862,-0.49,6.34,-8.08,0.00,0.00,-0.01,-27.06,15.06,-26.52
873,-0.48,6.34,-8.07,0.00,-0.00,-0.01,-27.06,15.06,-26.52
884,-0.48,6.34,-8.07,0.00,-0.00,-0.01,-27.06,15.06,-26.52
895,-0.50,6.34,-8.06,0.00,0.00,-0.01,-27.06,15.06,-26.52
906,-0.50,6.34,-8.06,0.00,0.00,-0.01,-27.06,15.06,-26.52
917,-0.48,6.34,-8.05,0.00,0.00,-0.01,-27.06,15.06,-26.52
928,-0.48,6.34,-8.05,0.00,0.00,-0.01,-27.06,15.06,-26.52
939,-0.50,6.34,-8.07,0.00,0.00,-0.01,-27.06,15.06,-26.52
950,-0.50,6.34,-8.07,0.00,0.00,-0.01,-27.06,15.06,-26.52
961,-0.49,6.34,-8.05,0.00,0.00,-0.01,-27.06,15.06,-26.52
972,-0.49,6.34,-8.05,0.00,0.00,-0.01,-27.06,15.06,-26.52
983,-0.48,6.34,-8.06,0.00,0.00,-0.01,-27.06,15.06,-26.52
994,-0.50,6.34,-8.07,0.00,0.00,-0.01,-27.28,14.92,-27.42
1005,-0.50,6.34,-8.07,0.00,0.00,-0.01,-27.28,14.92,-27.42
1016,-0.48,6.34,-8.04,0.00,0.00,-0.01,-27.28,14.92,-27.42
1027,-0.48,6.34,-8.04,0.00,0.00,-0.01,-27.28,14.92,-27.42
1038,-0.46,6.34,-8.06,0.00,0.00,-0.01,-27.28,14.92,-27.42
1049,-0.46,6.34,-8.06,0.00,0.00,-0.01,-27.28,14.92,-27.42
1060,-0.50,6.34,-8.08,0.00,0.00,-0.01,-27.28,14.92,-27.42
1071,-0.50,6.34,-8.08,0.00,0.00,-0.01,-27.28,14.92,-27.42
1082,-0.49,6.34,-8.06,0.00,0.00,-0.01,-27.28,14.92,-27.42
1098,-0.49,6.34,-8.06,0.00,0.00,-0.01,-27.28,14.92,-27.42
1104,-0.49,6.33,-8.05,0.00,0.00,-0.01,-27.28,14.92,-27.42
1115,-0.50,6.35,-8.06,0.00,0.00,-0.01,-28.13,15.21,-26.70
1126,-0.50,6.35,-8.06,0.00,0.00,-0.01,-28.13,15.21,-26.70
1137,-0.48,6.33,-8.06,0.00,0.00,-0.01,-28.13,15.21,-26.70
1148,-0.48,6.33,-8.06,0.00,0.00,-0.01,-28.13,15.21,-26.70
1159,-0.48,6.31,-8.06,0.00,0.00,-0.01,-28.13,15.21,-26.70
1170,-0.48,6.31,-8.06,0.00,0.00,-0.01,-28.13,15.21,-26.70
1181,-0.50,6.33,-8.08,0.00,0.00,-0.01,-28.13,15.21,-26.70
1193,-0.50,6.33,-8.08,0.00,0.00,-0.01,-28.13,15.21,-26.70
1203,-0.50,6.35,-8.06,0.00,0.00,-0.01,-28.13,15.21,-26.70
1214,-0.50,6.35,-8.05,0.00,0.00,-0.01,-28.13,15.21,-26.70
1225,-0.50,6.35,-8.05,0.00,0.00,-0.01,-28.13,15.21,-26.70
1236,-0.49,6.33,-8.06,0.00,0.00,-0.01,-27.06,15.36,-26.52
1247,-0.49,6.33,-8.06,0.00,0.00,-0.01,-27.06,15.36,-26.52
1258,-0.49,6.33,-8.08,0.00,0.00,-0.01,-27.06,15.36,-26.52
1269,-0.49,6.33,-8.08,0.00,0.00,-0.01,-27.06,15.36,-26.52
1280,-0.49,6.34,-8.05,0.00,0.00,-0.01,-27.06,15.36,-26.52
1291,-0.49,6.34,-8.05,0.00,0.00,-0.01,-27.06,15.36,-26.52
1302,-0.48,6.34,-8.09,0.00,0.00,-0.01,-27.06,15.36,-26.52
1313,-0.48,6.34,-8.09,0.00,0.00,-0.01,-27.06,15.36,-26.52
1324,-0.49,6.34,-8.09,0.00,0.00,-0.01,-27.06,15.36,-26.52
1335,-0.49,6.35,-8.06,-0.00,0.00,-0.01,-27.06,15.36,-26.52
1346,-0.49,6.35,-8.06,-0.00,0.00,-0.01,-27.06,15.36,-26.52
1357,-0.49,6.33,-8.07,0.00,0.00,-0.01,-27.06,15.36,-26.52
1368,-0.49,6.33,-8.07,0.00,0.00,-0.01,-27.06,15.36,-26.52
1383,-0.50,6.31,-8.09,0.00,0.00,-0.01,-28.56,14.62,-25.99
1390,-0.50,6.31,-8.09,0.00,0.00,-0.01,-28.56,14.62,-25.99
1401,-0.50,6.35,-8.07,-0.00,0.00,-0.01,-28.56,14.62,-25.99
1412,-0.50,6.35,-8.07,-0.00,0.00,-0.01,-28.56,14.62,-25.99
1423,-0.49,6.35,-8.06,0.00,0.00,-0.01,-28.56,14.62,-25.99
1434,-0.50,6.31,-8.07,0.00,0.00,-0.01,-28.56,14.62,-25.99
1445,-0.50,6.31,-8.07,0.00,0.00,-0.01,-28.56,14.62,-25.99
1456,-0.49,6.33,-8.07,0.00,0.00,-0.01,-28.56,14.62,-25.99
1467,-0.49,6.33,-8.07,0.00,0.00,-0.01,-28.56,14.62,-25.99
1478,-0.50,6.34,-8.06,-0.00,0.00,-0.01,-28.56,14.62,-25.99
1489,-0.50,6.34,-8.06,-0.00,0.00,-0.01,-28.56,14.62,-25.99
1500,-0.48,6.34,-8.07,-0.00,0.00,-0.01,-28.56,14.04,-26.35
1511,-0.48,6.34,-8.07,-0.00,0.00,-0.01,-28.56,14.04,-26.35
1522,-0.49,6.34,-8.08,0.00,0.00,-0.01,-28.56,14.04,-26.35
1533,-0.49,6.34,-8.08,0.00,0.00,-0.01,-28.56,14.04,-26.35
1544,-0.49,6.34,-8.09,0.00,0.00,-0.01,-28.56,14.04,-26.35
1555,-0.50,6.33,-8.07,-0.00,0.00,-0.01,-28.56,14.04,-26.35
1566,-0.50,6.33,-8.07,-0.00,0.00,-0.01,-28.56,14.04,-26.35
1577,-0.50,6.33,-8.07,0.00,0.00,-0.01,-28.56,14.04,-26.35
1588,-0.50,6.33,-8.07,0.00,0.00,-0.01,-28.56,14.04,-26.35
1599,-0.49,6.34,-8.05,-0.00,0.00,-0.01,-28.56,14.04,-26.35
1610,-0.49,6.34,-8.05,-0.00,0.00,-0.01,-28.56,14.04,-26.35
1621,-0.50,6.33,-8.08,0.00,0.00,-0.01,-27.06,14.48,-25.81
1632,-0.50,6.33,-8.08,0.00,0.00,-0.01,-27.06,14.48,-25.81
1644,-0.49,6.34,-8.05,0.00,0.00,-0.01,-27.06,14.48,-25.81
1654,-0.50,6.33,-8.07,-0.00,0.00,-0.01,-27.06,14.48,-25.81
1665,-0.50,6.33,-8.07,-0.00,0.00,-0.01,-27.06,14.48,-25.81
1676,-0.49,6.33,-8.07,0.00,0.00,-0.01,-27.06,14.48,-25.81
1687,-0.49,6.33,-8.07,0.00,0.00,-0.01,-27.06,14.48,-25.81
1698,-0.50,6.33,-8.09,-0.00,0.00,-0.01,-27.06,14.48,-25.81
1709,-0.50,6.33,-8.09,-0.00,0.00,-0.01,-27.06,14.48,-25.81
1720,-0.50,6.34,-8.07,-0.00,0.00,-0.01,-27.06,14.48,-25.81
1731,-0.50,6.34,-8.07,-0.00,0.00,-0.01,-27.06,14.48,-25.81
1742,-0.50,6.33,-8.08,0.00,0.00,-0.01,-28.35,15.06,-25.81
1753,-0.50,6.33,-8.08,0.00,0.00,-0.01,-28.35,15.06,-25.81
1764,-0.50,6.33,-8.07,0.00,0.00,-0.01,-28.35,15.06,-25.81
1775,-0.49,6.34,-8.07,0.00,0.00,-0.01,-28.35,15.06,-25.81
1786,-0.49,6.34,-8.07,0.00,0.00,-0.01,-28.35,15.06,-25.81
1797,-0.49,6.34,-8.07,0.00,0.00,-0.01,-28.35,15.06,-25.81
1808,-0.49,6.34,-8.07,0.00,0.00,-0.01,-28.35,15.06,-25.81
1819,-0.47,6.33,-8.07,0.00,0.00,-0.01,-28.35,15.06,-25.81
1830,-0.47,6.33,-8.07,0.00,0.00,-0.01,-28.35,15.06,-25.81
1841,-0.49,6.32,-8.07,0.00,0.00,-0.01,-28.35,15.06,-25.81
1852,-0.49,6.32,-8.07,0.00,0.00,-0.01,-28.35,15.06,-25.81
1863,-0.49,6.31,-8.06,0.00,0.00,-0.01,-28.35,15.06,-25.81
1874,-0.50,6.33,-8.07,0.00,0.00,-0.01,-28.35,15.06,-26.17
1885,-0.50,6.33,-8.07,0.00,0.00,-0.01,-28.35,15.06,-26.17
1896,-0.49,6.34,-8.04,-0.00,0.00,-0.01,-28.35,15.06,-26.17
1907,-0.49,6.34,-8.04,-0.00,0.00,-0.01,-28.35,15.06,-26.17
1918,-0.49,6.34,-8.06,0.00,0.00,-0.01,-28.35,15.06,-26.17
1929,-0.49,6.34,-8.06,0.00,0.00,-0.01,-28.35,15.06,-26.17
1940,-0.50,6.32,-8.06,0.00,0.00,-0.01,-28.35,15.06,-26.17
1951,-0.50,6.32,-8.06,0.00,0.00,-0.01,-28.35,15.06,-26.17
1962,-0.50,6.32,-8.06,0.00,0.00,-0.01,-28.35,15.06,-26.17
1973,-0.50,6.32,-8.06,0.00,0.00,-0.01,-28.35,15.06,-26.17
1984,-0.49,6.33,-8.05,0.00,0.00,-0.01,-28.35,15.06,-26.17
1995,-0.49,6.35,-8.07,0.00,0.00,-0.01,-28.56,14.92,-25.99
2006,-0.49,6.35,-8.07,0.00,0.00,-0.01,-28.56,14.92,-25.99
2017,-0.48,6.34,-8.07,0.00,0.00,-0.01,-28.56,14.92,-25.99
2028,-0.48,6.34,-8.07,0.00,0.00,-0.01,-28.56,14.92,-25.99
2039,-0.50,6.34,-8.07,0.00,0.00,-0.01,-28.56,14.92,-25.99
2051,-0.50,6.34,-8.07,0.00,0.00,-0.01,-28.56,14.92,-25.99
2061,-0.49,6.33,-8.09,-0.00,0.00,-0.01,-28.56,14.92,-25.99
2072,-0.49,6.33,-8.09,-0.00,0.00,-0.01,-28.56,14.92,-25.99
2083,-0.50,6.33,-8.08,0.00,0.00,-0.01,-28.56,14.92,-25.99
2094,-0.48,6.34,-8.08,-0.00,0.00,-0.01,-28.56,14.92,-25.99
2105,-0.48,6.34,-8.08,-0.00,0.00,-0.01,-28.56,14.92,-25.99
2116,-0.51,6.34,-8.09,-0.00,0.00,-0.01,-29.42,15.21,-26.35
2127,-0.51,6.34,-8.09,-0.00,0.00,-0.01,-29.42,15.21,-26.35
2138,-0.50,6.32,-8.09,0.00,-0.00,-0.01,-29.42,15.21,-26.35
2149,-0.50,6.32,-8.09,0.00,-0.00,-0.01,-29.42,15.21,-26.35
2160,-0.50,6.34,-8.07,-0.00,0.00,-0.01,-29.42,15.21,-26.35
2171,-0.50,6.34,-8.07,-0.00,0.00,-0.01,-29.42,15.21,-26.35
2182,-0.49,6.34,-8.06,-0.00,0.00,-0.01,-29.42,15.21,-26.35
2193,-0.49,6.34,-8.06,-0.00,0.00,-0.01,-29.42,15.21,-26.35
2204,-0.50,6.34,-8.06,0.00,0.00,-0.01,-29.42,15.21,-26.35
2215,-0.49,6.33,-8.05,0.00,0.00,-0.01,-29.42,15.21,-26.35
2226,-0.49,6.33,-8.05,0.00,0.00,-0.01,-29.42,15.21,-26.35
2237,-0.49,6.33,-8.05,-0.00,-0.00,-0.01,-29.42,15.21,-26.35
2248,-0.49,6.33,-8.05,-0.00,-0.00,-0.01,-29.42,15.21,-26.35
2259,-0.50,6.33,-8.09,-0.00,-0.00,-0.01,-28.35,14.77,-25.81
2270,-0.50,6.33,-8.09,-0.00,-0.00,-0.01,-28.35,14.77,-25.81
2281,-0.50,6.33,-8.06,0.00,0.00,-0.01,-28.35,14.77,-25.81
2292,-0.50,6.33,-8.06,0.00,0.00,-0.01,-28.35,14.77,-25.81
2304,-0.49,6.34,-8.07,0.00,0.00,-0.01,-28.35,14.77,-25.81
2314,-0.49,6.34,-8.07,0.00,0.00,-0.01,-28.35,14.77,-25.81
2325,-0.50,6.34,-8.07,0.00,0.00,-0.01,-28.35,14.77,-25.81
2336,-0.48,6.33,-8.07,0.00,0.00,-0.01,-28.35,14.77,-25.81
2347,-0.48,6.33,-8.07,0.00,0.00,-0.01,-28.35,14.77,-25.81
2358,-0.49,6.33,-8.07,0.00,0.00,-0.01,-28.35,14.77,-25.81
2369,-0.49,6.33,-8.07,0.00,0.00,-0.01,-28.35,14.77,-25.81
2380,-0.50,6.34,-8.08,0.00,-0.00,-0.01,-28.13,14.33,-27.06
2391,-0.50,6.34,-8.08,0.00,-0.00,-0.01,-28.13,14.33,-27.06
2402,-0.49,6.34,-8.08,0.00,0.00,-0.01,-28.13,14.33,-27.06
2413,-0.49,6.34,-8.08,0.00,0.00,-0.01,-28.13,14.33,-27.06
2424,-0.49,6.35,-8.06,0.00,0.00,-0.01,-28.13,14.33,-27.06
2435,-0.50,6.34,-8.07,0.00,0.00,-0.01,-28.13,14.33,-27.06
2446,-0.50,6.34,-8.07,0.00,0.00,-0.01,-28.13,14.33,-27.06
2457,-0.50,6.33,-8.07,0.00,0.00,-0.01,-28.13,14.33,-27.06
2468,-0.50,6.33,-8.07,0.00,0.00,-0.01,-28.13,14.33,-27.06
2479,-0.49,6.34,-8.05,0.00,0.00,-0.01,-28.13,14.33,-27.06
2490,-0.49,6.34,-8.05,0.00,0.00,-0.01,-28.13,14.33,-27.06
2501,-0.49,6.34,-8.09,0.00,0.00,-0.01,-27.06,14.77,-25.10
2512,-0.49,6.34,-8.09,0.00,0.00,-0.01,-27.06,14.77,-25.10
2523,-0.48,6.33,-8.07,0.00,0.00,-0.01,-27.06,14.77,-25.10
2534,-0.48,6.33,-8.07,0.00,0.00,-0.01,-27.06,14.77,-25.10
2545,-0.50,6.33,-8.09,0.00,0.00,-0.01,-27.06,14.77,-25.10
2556,-0.48,6.33,-8.07,-0.00,-0.00,-0.01,-27.06,14.77,-25.10
2567,-0.48,6.33,-8.07,-0.00,-0.00,-0.01,-27.06,14.77,-25.10
2578,-0.49,6.33,-8.06,-0.00,0.00,-0.01,-27.06,14.77,-25.10
2589,-0.49,6.33,-8.06,-0.00,0.00,-0.01,-27.06,14.77,-25.10
2600,-0.49,6.34,-8.05,-0.00,0.00,-0.01,-27.06,14.77,-25.10
2611,-0.49,6.34,-8.05,-0.00,0.00,-0.01,-27.06,14.77,-25.10
2622,-0.49,6.33,-8.08,0.00,0.00,-0.01,-27.06,14.77,-25.10
2633,-0.49,6.33,-8.08,0.00,0.00,-0.01,-27.06,14.77,-25.10
2644,-0.49,6.33,-8.08,0.00,0.00,-0.01,-27.28,14.33,-25.63
2655,-0.50,6.33,-8.07,-0.00,0.00,-0.01,-27.28,14.33,-25.63
2667,-0.50,6.33,-8.07,-0.00,0.00,-0.01,-27.28,14.33,-25.63
2677,-0.49,6.34,-8.05,-0.00,0.00,-0.01,-27.28,14.33,-25.63
2688,-0.49,6.34,-8.05,-0.00,0.00,-0.01,-27.28,14.33,-25.63
2699,-0.48,6.34,-8.10,0.00,0.00,-0.01,-27.28,14.33,-25.63
2710,-0.48,6.34,-8.10,0.00,0.00,-0.01,-27.28,14.33,-25.63
2721,-0.50,6.33,-8.08,0.00,0.00,-0.01,-27.28,14.33,-25.63
2732,-0.50,6.33,-8.08,0.00,0.00,-0.01,-27.28,14.33,-25.63
2743,-0.49,6.31,-8.09,0.00,0.00,-0.01,-27.28,14.33,-25.63
2754,-0.49,6.31,-8.09,0.00,0.00,-0.01,-27.28,14.33,-25.63
2765,-0.49,6.33,-8.10,-0.00,0.00,-0.01,-28.56,14.62,-25.99
2776,-0.49,6.32,-8.09,-0.00,0.00,-0.01,-28.56,14.62,-25.99
2787,-0.49,6.32,-8.09,-0.00,0.00,-0.01,-28.56,14.62,-25.99
2798,-0.50,6.33,-8.08,0.00,0.00,-0.01,-28.56,14.62,-25.99
2809,-0.50,6.33,-8.08,0.00,0.00,-0.01,-28.56,14.62,-25.99
2820,-0.49,6.31,-8.07,0.00,0.00,-0.01,-28.56,14.62,-25.99
2831,-0.49,6.31,-8.07,0.00,0.00,-0.01,-28.56,14.62,-25.99
2842,-0.49,6.34,-8.06,0.00,0.00,-0.01,-28.56,14.62,-25.99
2853,-0.49,6.34,-8.06,0.00,0.00,-0.01,-28.56,14.62,-25.99
2864,-0.50,6.34,-8.05,-0.00,0.00,-0.01,-28.56,14.62,-25.99
2875,-0.50,6.34,-8.10,-0.00,0.00,-0.01,-28.13,14.33,-27.06
2886,-0.50,6.34,-8.10,-0.00,0.00,-0.01,-28.13,14.33,-27.06
2897,-0.50,6.34,-8.07,-0.00,0.00,-0.01,-28.13,14.33,-27.06
2908,-0.50,6.34,-8.07,-0.00,0.00,-0.01,-28.13,14.33,-27.06
2920,-0.50,6.33,-8.06,-0.00,0.00,-0.01,-28.13,14.33,-27.06
2930,-0.50,6.33,-8.06,-0.00,0.00,-0.01,-28.13,14.33,-27.06
2941,-0.50,6.33,-8.09,-0.00,0.00,-0.01,-28.13,14.33,-27.06
2952,-0.50,6.33,-8.09,-0.00,0.00,-0.01,-28.13,14.33,-27.06
2963,-0.50,6.34,-8.07,0.00,0.00,-0.01,-28.13,14.33,-27.06
2974,-0.50,6.34,-8.07,0.00,0.00,-0.01,-28.13,14.33,-27.06
2985,-0.51,6.34,-8.06,0.00,0.00,-0.01,-28.13,14.33,-27.06
2996,-0.50,6.33,-8.07,-0.00,0.00,-0.01,-27.28,14.62,-26.70
3007,-0.50,6.33,-8.07,-0.00,0.00,-0.01,-27.28,14.62,-26.70
3018,-0.50,6.32,-8.08,-0.00,0.00,-0.01,-27.28,14.62,-26.70
3029,-0.50,6.32,-8.08,-0.00,0.00,-0.01,-27.28,14.62,-26.70
3040,-0.49,6.33,-8.07,-0.00,0.00,-0.01,-27.28,14.62,-26.70
3051,-0.49,6.33,-8.07,-0.00,0.00,-0.01,-27.28,14.62,-26.70
3062,-0.48,6.34,-8.05,-0.00,0.00,-0.01,-27.28,14.62,-26.70
3073,-0.48,6.34,-8.05,-0.00,0.00,-0.01,-27.28,14.62,-26.70
3089,-0.50,6.34,-8.06,-0.00,0.00,-0.01,-27.28,14.62,-26.70
3095,-0.49,6.33,-8.07,0.00,0.00,-0.01,-27.28,14.62,-26.70
3106,-0.49,6.33,-8.07,0.00,0.00,-0.01,-27.28,14.62,-26.70
3117,-0.48,6.33,-8.06,0.00,0.00,-0.01,-27.28,14.62,-26.70
3128,-0.48,6.33,-8.06,0.00,0.00,-0.01,-27.28,14.62,-26.70
3139,-0.50,6.32,-8.08,-0.00,0.00,-0.01,-29.21,14.77,-26.17
3150,-0.50,6.32,-8.08,-0.00,0.00,-0.01,-29.21,14.77,-26.17
3161,-0.49,6.34,-8.08,-0.00,0.00,-0.01,-29.21,14.77,-26.17
3172,-0.49,6.34,-8.08,-0.00,0.00,-0.01,-29.21,14.77,-26.17
3183,-0.51,6.34,-8.08,-0.00,0.00,-0.01,-29.21,14.77,-26.17
3194,-0.51,6.34,-8.08,-0.00,0.00,-0.01,-29.21,14.77,-26.17
3205,-0.48,6.34,-8.09,-0.00,0.00,-0.01,-29.21,14.77,-26.17
3216,-0.51,6.34,-8.05,0.00,0.00,-0.01,-29.21,14.77,-26.17
3227,-0.51,6.34,-8.05,0.00,0.00,-0.01,-29.21,14.77,-26.17
3238,-0.49,6.33,-8.05,-0.00,0.00,-0.01,-29.21,14.77,-26.17
3249,-0.49,6.33,-8.05,-0.00,0.00,-0.01,-29.21,14.77,-26.17
3260,-0.49,6.34,-8.08,-0.00,0.00,-0.01,-29.21,15.06,-26.17
3271,-0.49,6.34,-8.08,-0.00,0.00,-0.01,-29.21,15.06,-26.17
3282,-0.49,6.34,-8.08,-0.00,0.00,-0.01,-29.21,15.06,-26.17
3293,-0.49,6.34,-8.08,-0.00,0.00,-0.01,-29.21,15.06,-26.17
3304,-0.50,6.34,-8.06,-0.00,0.00,-0.01,-29.21,15.06,-26.17
3315,-0.50,6.34,-8.06,-0.00,0.00,-0.01,-29.21,15.06,-26.17
3326,-0.50,6.34,-8.07,-0.00,0.00,-0.01,-29.21,15.06,-26.17
3337,-0.50,6.33,-8.07,-0.00,0.00,-0.01,-29.21,15.06,-26.17
3349,-0.50,6.33,-8.07,-0.00,0.00,-0.01,-29.21,15.06,-26.17
3359,-0.49,6.34,-8.06,-0.00,0.00,-0.01,-29.21,15.06,-26.17
3370,-0.49,6.34,-8.06,-0.00,0.00,-0.01,-29.21,15.06,-26.17
3381,-0.48,6.32,-8.07,-0.00,0.00,-0.01,-28.78,14.77,-27.24
3392,-0.48,6.32,-8.07,-0.00,0.00,-0.01,-28.78,14.77,-27.24
3403,-0.50,6.33,-8.06,-0.00,0.00,-0.01,-28.78,14.77,-27.24
3414,-0.50,6.33,-8.06,-0.00,0.00,-0.01,-28.78,14.77,-27.24
3425,-0.50,6.34,-8.08,0.00,0.00,-0.01,-28.78,14.77,-27.24
3436,-0.49,6.34,-8.07,-0.00,0.00,-0.01,-28.78,14.77,-27.24
3447,-0.49,6.34,-8.07,-0.00,0.00,-0.01,-28.78,14.77,-27.24
3458,-0.48,6.34,-8.07,0.00,0.00,-0.01,-28.78,14.77,-27.24
3469,-0.48,6.34,-8.07,0.00,0.00,-0.01,-28.78,14.77,-27.24
3480,-0.50,6.33,-8.06,-0.00,0.00,-0.01,-28.78,14.77,-27.24
3491,-0.50,6.33,-8.06,-0.00,0.00,-0.01,-28.78,14.77,-27.24
3502,-0.49,6.31,-8.07,0.00,0.00,-0.01,-28.78,14.77,-27.24
3513,-0.49,6.31,-8.07,0.00,0.00,-0.01,-28.78,14.77,-27.24
3524,-0.48,6.33,-8.10,-0.00,0.00,-0.01,-28.78,15.06,-26.52
3535,-0.48,6.33,-8.10,-0.00,0.00,-0.01,-28.78,15.06,-26.52
3546,-0.49,6.33,-8.09,-0.00,0.00,-0.01,-28.78,15.06,-26.52
3557,-0.50,6.34,-8.06,0.00,0.00,-0.01,-28.78,15.06,-26.52
3568,-0.50,6.34,-8.06,0.00,0.00,-0.01,-28.78,15.06,-26.52
3579,-0.50,6.33,-8.06,-0.00,0.00,-0.01,-28.78,15.06,-26.52
3590,-0.50,6.33,-8.06,-0.00,0.00,-0.01,-28.78,15.06,-26.52
3601,-0.50,6.32,-8.06,0.00,0.00,-0.01,-28.78,15.06,-26.52
3612,-0.50,6.32,-8.06,0.00,0.00,-0.01,-28.78,15.06,-26.52
3623,-0.48,6.33,-8.07,-0.00,0.00,-0.01,-28.78,15.06,-26.52
3634,-0.48,6.33,-8.07,-0.00,0.00,-0.01,-28.78,15.06,-26.52
3645,-0.49,6.33,-8.08,-0.00,0.00,-0.01,-29.85,15.50,-25.99
3656,-0.50,6.34,-8.09,0.00,0.00,-0.01,-29.85,15.50,-25.99
3667,-0.50,6.34,-8.09,0.00,0.00,-0.01,-29.85,15.50,-25.99
3678,-0.51,6.33,-8.07,-0.00,0.00,-0.01,-29.85,15.50,-25.99
3689,-0.51,6.33,-8.07,-0.00,0.00,-0.01,-29.85,15.50,-25.99
3700,-0.51,6.33,-8.07,-0.00,0.00,-0.01,-29.85,15.50,-25.99
3711,-0.51,6.33,-8.07,-0.00,0.00,-0.01,-29.85,15.50,-25.99
3722,-0.50,6.32,-8.07,-0.00,0.00,-0.01,-29.85,15.50,-25.99
3733,-0.50,6.32,-8.07,-0.00,0.00,-0.01,-29.85,15.50,-25.99
3749,-0.50,6.34,-8.06,-0.00,0.00,-0.01,-29.85,15.50,-25.99
3755,-0.50,6.34,-8.06,-0.00,0.00,-0.01,-29.85,15.50,-25.99
3766,-0.49,6.35,-8.07,0.00,0.00,-0.01,-27.71,15.21,-25.63
3777,-0.50,6.33,-8.10,-0.00,0.00,-0.01,-27.71,15.21,-25.63
3788,-0.50,6.33,-8.10,-0.00,0.00,-0.01,-27.71,15.21,-25.63
3799,-0.50,6.33,-8.07,0.00,0.00,-0.01,-27.71,15.21,-25.63
3810,-0.50,6.33,-8.07,0.00,0.00,-0.01,-27.71,15.21,-25.63
3821,-0.48,6.33,-8.07,-0.00,0.00,-0.01,-27.71,15.21,-25.63
3832,-0.48,6.33,-8.07,-0.00,0.00,-0.01,-27.71,15.21,-25.63
3843,-0.50,6.33,-8.04,-0.00,0.00,-0.01,-27.71,15.21,-25.63
3854,-0.50,6.33,-8.04,-0.00,0.00,-0.01,-27.71,15.21,-25.63
3865,-0.49,6.35,-8.06,-0.00,0.00,-0.01,-27.71,15.21,-25.63
3876,-0.50,6.34,-8.08,-0.00,0.00,-0.01,-27.71,15.21,-25.63
3887,-0.50,6.34,-8.08,-0.00,0.00,-0.01,-27.71,15.21,-25.63
3898,-0.49,6.34,-8.08,-0.00,0.00,-0.01,-29.21,14.48,-26.52
3910,-0.49,6.34,-8.08,-0.00,0.00,-0.01,-29.21,14.48,-26.52
3920,-0.49,6.33,-8.08,-0.00,0.00,-0.01,-29.21,14.48,-26.52
3931,-0.49,6.33,-8.08,-0.00,0.00,-0.01,-29.21,14.48,-26.52
3942,-0.49,6.32,-8.07,-0.00,0.00,-0.01,-29.21,14.48,-26.52
3953,-0.49,6.32,-8.07,-0.00,0.00,-0.01,-29.21,14.48,-26.52
3964,-0.49,6.33,-8.06,-0.00,0.00,-0.01,-29.21,14.48,-26.52
3975,-0.49,6.33,-8.06,-0.00,0.00,-0.01,-29.21,14.48,-26.52
3986,-0.50,6.34,-8.08,-0.00,0.00,-0.01,-29.21,14.48,-26.52
3997,-0.49,6.33,-8.06,0.00,0.00,-0.01,-29.21,14.48,-26.52
4008,-0.49,6.33,-8.06,0.00,0.00,-0.01,-29.21,14.48,-26.52
4019,-0.49,6.33,-8.10,0.00,0.00,-0.01,-27.06,14.18,-25.81
4030,-0.49,6.33,-8.10,0.00,0.00,-0.01,-27.06,14.18,-25.81
4041,-0.50,6.34,-8.09,0.00,0.00,-0.01,-27.06,14.18,-25.81
4052,-0.50,6.34,-8.09,0.00,0.00,-0.01,-27.06,14.18,-25.81
4063,-0.51,6.33,-8.08,-0.00,0.00,-0.01,-27.06,14.18,-25.81
4074,-0.51,6.33,-8.08,-0.00,0.00,-0.01,-27.06,14.18,-25.81
4085,-0.51,6.33,-8.08,0.00,0.00,-0.01,-27.06,14.18,-25.81
4096,-0.50,6.33,-8.06,0.00,0.00,-0.01,-27.06,14.18,-25.81
4107,-0.50,6.33,-8.06,0.00,0.00,-0.01,-27.06,14.18,-25.81
4118,-0.47,6.33,-8.04,-0.00,0.00,-0.01,-27.06,14.18,-25.81
4129,-0.47,6.33,-8.04,-0.00,0.00,-0.01,-27.06,14.18,-25.81
4140,-0.49,6.33,-8.08,-0.00,0.00,-0.01,-28.56,14.62,-27.06
4151,-0.49,6.33,-8.08,-0.00,0.00,-0.01,-28.56,14.62,-27.06
4162,-0.51,6.32,-8.06,-0.00,0.00,-0.01,-28.56,14.62,-27.06
4173,-0.51,6.32,-8.06,-0.00,0.00,-0.01,-28.56,14.62,-27.06
4184,-0.50,6.34,-8.09,-0.00,0.00,-0.01,-28.56,14.62,-27.06
4195,-0.50,6.34,-8.09,-0.00,0.00,-0.01,-28.56,14.62,-27.06
4206,-0.48,6.32,-8.08,-0.00,0.00,-0.01,-28.56,14.62,-27.06
4217,-0.50,6.31,-8.06,-0.00,0.00,-0.01,-28.56,14.62,-27.06
4228,-0.50,6.31,-8.06,-0.00,0.00,-0.01,-28.56,14.62,-27.06
4239,-0.48,6.34,-8.07,-0.00,-0.00,-0.01,-28.56,14.62,-27.06
4250,-0.48,6.34,-8.07,-0.00,-0.00,-0.01,-28.56,14.62,-27.06
4261,-0.50,6.33,-8.08,-0.00,0.00,-0.01,-28.13,14.33,-26.35
4272,-0.50,6.33,-8.08,-0.00,0.00,-0.01,-28.13,14.33,-26.35
4283,-0.48,6.33,-8.09,-0.00,0.00,-0.01,-28.13,14.33,-26.35
4294,-0.48,6.33,-8.09,-0.00,0.00,-0.01,-28.13,14.33,-26.35
4305,-0.48,6.33,-8.07,-0.00,0.00,-0.01,-28.13,14.33,-26.35
4316,-0.48,6.33,-8.07,-0.00,0.00,-0.01,-28.13,14.33,-26.35
4327,-0.49,6.33,-8.05,0.00,0.00,-0.01,-28.13,14.33,-26.35
4338,-0.49,6.31,-8.06,0.00,0.00,-0.01,-28.13,14.33,-26.35
4349,-0.49,6.31,-8.06,0.00,0.00,-0.01,-28.13,14.33,-26.35
4360,-0.51,6.32,-8.07,-0.00,0.00,-0.01,-28.13,14.33,-26.35
4371,-0.51,6.32,-8.07,-0.00,0.00,-0.01,-28.13,14.33,-26.35
4382,-0.50,6.34,-8.07,0.00,0.00,-0.01,-28.13,14.33,-26.35
4393,-0.50,6.34,-8.07,0.00,0.00,-0.01,-28.13,14.33,-26.35
4409,-0.49,6.34,-8.09,0.00,0.00,-0.01,-27.49,16.24,-25.81
4415,-0.49,6.34,-8.09,0.00,0.00,-0.01,-27.49,16.24,-25.81
4426,-0.50,6.32,-8.06,0.00,0.00,-0.01,-27.49,16.24,-25.81
4437,-0.49,6.34,-8.10,-0.00,0.00,-0.01,-27.49,16.24,-25.81
4448,-0.49,6.34,-8.10,-0.00,0.00,-0.01,-27.49,16.24,-25.81
4459,-0.49,6.34,-8.07,-0.00,0.00,-0.01,-27.49,16.24,-25.81
4470,-0.49,6.34,-8.07,-0.00,0.00,-0.01,-27.49,16.24,-25.81
4481,-0.50,6.33,-8.07,0.00,0.00,-0.01,-27.49,16.24,-25.81
4492,-0.50,6.33,-8.07,0.00,0.00,-0.01,-27.49,16.24,-25.81
4503,-0.48,6.32,-8.07,0.00,0.00,-0.01,-27.49,16.24,-25.81
4514,-0.48,6.32,-8.07,0.00,0.00,-0.01,-27.49,16.24,-25.81
4525,-0.49,6.34,-8.11,0.00,0.00,-0.01,-26.63,14.18,-26.52
4536,-0.49,6.34,-8.11,0.00,0.00,-0.01,-26.63,14.18,-26.52
4547,-0.50,6.34,-8.06,0.00,-0.00,-0.01,-26.63,14.18,-26.52
4558,-0.49,6.34,-8.09,0.00,0.00,-0.01,-26.63,14.18,-26.52
4569,-0.49,6.34,-8.09,0.00,0.00,-0.01,-26.63,14.18,-26.52
4580,-0.48,6.32,-8.06,0.00,0.00,-0.01,-26.63,14.18,-26.52
4591,-0.48,6.32,-8.06,0.00,0.00,-0.01,-26.63,14.18,-26.52
4602,-0.48,6.32,-8.07,0.00,0.00,-0.01,-26.63,14.18,-26.52
4613,-0.48,6.32,-8.07,0.00,0.00,-0.01,-26.63,14.18,-26.52
4624,-0.49,6.32,-8.07,0.00,0.00,-0.01,-26.63,14.18,-26.52
4635,-0.49,6.32,-8.07,0.00,0.00,-0.01,-26.63,14.18,-26.52
4647,-0.50,6.33,-8.08,0.00,0.00,-0.01,-27.92,14.48,-26.52
4657,-0.48,6.34,-8.06,-0.00,0.00,-0.01,-27.92,14.48,-26.52
4668,-0.48,6.34,-8.06,-0.00,0.00,-0.01,-27.92,14.48,-26.52
4679,-0.49,6.32,-8.08,-0.00,0.00,-0.01,-27.92,14.48,-26.52
4690,-0.49,6.32,-8.08,-0.00,0.00,-0.01,-27.92,14.48,-26.52
4701,-0.49,6.33,-8.06,0.00,0.00,-0.01,-27.92,14.48,-26.52
4712,-0.49,6.33,-8.06,0.00,0.00,-0.01,-27.92,14.48,-26.52
4723,-0.50,6.34,-8.07,-0.00,0.00,-0.01,-27.92,14.48,-26.52
4734,-0.50,6.34,-8.07,-0.00,0.00,-0.01,-27.92,14.48,-26.52
4745,-0.50,6.33,-8.06,-0.00,-0.00,-0.01,-27.92,14.48,-26.52
4756,-0.50,6.33,-8.06,-0.00,-0.00,-0.01,-27.92,14.48,-26.52
4767,-0.49,6.32,-8.07,-0.00,0.00,-0.01,-27.92,14.48,-26.52
4778,-0.49,6.32,-8.07,0.00,0.00,-0.01,-26.85,14.62,-26.70
4789,-0.49,6.32,-8.07,0.00,0.00,-0.01,-26.85,14.62,-26.70
4800,-0.49,6.33,-8.08,0.00,0.00,-0.01,-26.85,14.62,-26.70
4811,-0.49,6.33,-8.08,0.00,0.00,-0.01,-26.85,14.62,-26.70
4822,-0.50,6.33,-8.05,-0.00,0.00,-0.01,-26.85,14.62,-26.70
4833,-0.50,6.33,-8.05,-0.00,0.00,-0.01,-26.85,14.62,-26.70
4844,-0.50,6.33,-8.07,0.00,-0.00,-0.01,-26.85,14.62,-26.70
4855,-0.50,6.33,-8.07,0.00,-0.00,-0.01,-26.85,14.62,-26.70
4866,-0.49,6.32,-8.10,-0.00,0.00,-0.01,-26.85,14.62,-26.70
4877,-0.50,6.33,-8.08,-0.00,0.00,-0.01,-26.85,14.62,-26.70
4888,-0.50,6.33,-8.08,-0.00,0.00,-0.01,-26.85,14.62,-26.70
4899,-0.49,6.34,-8.10,0.00,0.00,-0.01,-28.13,15.21,-24.92
4910,-0.49,6.34,-8.10,0.00,0.00,-0.01,-28.13,15.21,-24.92
4921,-0.49,6.33,-8.08,-0.00,0.00,-0.01,-28.13,15.21,-24.92
4932,-0.49,6.33,-8.08,-0.00,0.00,-0.01,-28.13,15.21,-24.92
4943,-0.51,6.32,-8.05,0.00,0.00,-0.01,-28.13,15.21,-24.92
4954,-0.51,6.32,-8.05,0.00,0.00,-0.01,-28.13,15.21,-24.92
4965,-0.49,6.33,-8.08,-0.00,0.00,-0.01,-28.13,15.21,-24.92
4976,-0.49,6.33,-8.08,-0.00,0.00,-0.01,-28.13,15.21,-24.92
4987,-0.50,6.32,-8.06,0.00,0.00,-0.01,-28.13,15.21,-24.92
4998,-0.49,6.32,-8.06,0.00,0.00,-0.01,-28.13,15.21,-24.92
5009,-0.49,6.32,-8.06,0.00,0.00,-0.01,-28.13,15.21,-24.92
5020,-0.49,6.33,-8.08,-0.00,0.00,-0.01,-28.56,15.50,-27.06
5031,-0.49,6.33,-8.08,-0.00,0.00,-0.01,-28.56,15.50,-27.06
5042,-0.50,6.32,-8.09,-0.00,0.00,-0.01,-28.56,15.50,-27.06
5053,-0.50,6.32,-8.09,-0.00,0.00,-0.01,-28.56,15.50,-27.06
5064,-0.49,6.33,-8.07,0.00,0.00,-0.01,-28.56,15.50,-27.06
5075,-0.49,6.33,-8.07,0.00,0.00,-0.01,-28.56,15.50,-27.06
5086,-0.49,6.34,-8.05,0.00,0.00,-0.01,-28.56,15.50,-27.06
5097,-0.50,6.32,-8.05,-0.00,0.00,-0.01,-28.56,15.50,-27.06
5108,-0.50,6.32,-8.05,-0.00,0.00,-0.01,-28.56,15.50,-27.06
5119,-0.49,6.32,-8.07,-0.00,0.00,-0.01,-28.56,15.50,-27.06
5130,-0.49,6.32,-8.07,-0.00,0.00,-0.01,-28.56,15.50,-27.06
5142,-0.50,6.33,-8.07,0.00,0.00,-0.01,-28.56,15.50,-27.06
5152,-0.50,6.33,-8.07,0.00,0.00,-0.01,-28.56,15.50,-27.06
5163,-0.49,6.31,-8.08,-0.00,0.00,-0.01,-28.78,13.30,-27.95
5174,-0.49,6.31,-8.08,-0.00,0.00,-0.01,-28.78,13.30,-27.95
5185,-0.49,6.34,-8.07,-0.01,0.00,-0.01,-28.78,13.30,-27.95
5196,-0.49,6.34,-8.07,-0.01,0.00,-0.01,-28.78,13.30,-27.95
5207,-0.03,6.38,-8.91,-0.11,-0.10,-0.01,-28.78,13.30,-27.95
5218,-0.49,5.95,-8.26,-1.36,-1.18,0.41,-28.78,13.30,-27.95
5229,-0.49,5.95,-8.26,-1.36,-1.18,0.41,-28.78,13.30,-27.95
5240,-0.49,6.09,-7.86,0.12,-0.93,1.09,-28.78,13.30,-27.95
5251,-0.49,6.09,-7.86,0.12,-0.93,1.09,-28.78,13.30,-27.95
5262,-0.98,7.46,-7.64,1.39,-0.19,1.16,-28.78,13.30,-27.95
5273,-0.98,7.46,-7.64,1.39,-0.19,1.16,-28.78,13.30,-27.95
5284,-1.02,6.51,-7.80,-0.28,-0.10,-0.17,-28.78,15.36,-25.10
5295,-1.02,6.51,-7.80,-0.28,-0.10,-0.17,-28.78,15.36,-25.10
5306,-1.30,6.54,-7.75,0.22,0.37,-0.34,-28.78,15.36,-25.10
5317,-1.30,6.54,-7.75,0.22,0.37,-0.34,-28.78,15.36,-25.10
5328,0.54,6.32,-8.37,0.23,0.36,-0.27,-28.78,15.36,-25.10
5339,-0.27,5.89,-8.39,-0.04,-0.01,-0.09,-28.78,15.36,-25.10
5350,-0.27,5.89,-8.39,-0.04,-0.01,-0.09,-28.78,15.36,-25.10
5361,-1.25,6.04,-9.39,0.45,-0.08,0.26,-28.78,15.36,-25.10
5372,-1.25,6.04,-9.39,0.45,-0.08,0.26,-28.78,15.36,-25.10
5383,-0.49,5.76,-9.84,1.31,-0.19,0.36,-28.78,15.36,-25.10
5394,-0.49,5.76,-9.84,1.31,-0.19,0.36,-28.78,15.36,-25.10
5405,-0.14,5.08,-9.12,2.17,-0.44,0.69,-27.06,13.89,-26.88
5416,-0.14,5.08,-9.12,2.17,-0.44,0.69,-27.06,13.89,-26.88
5427,-0.14,5.32,-9.16,2.38,-0.62,1.15,-27.06,13.89,-26.88
5438,-0.90,5.52,-9.94,2.76,-0.66,1.52,-27.06,13.89,-26.88
5449,-0.90,5.52,-9.94,2.76,-0.66,1.52,-27.06,13.89,-26.88
5460,-1.61,5.73,-10.88,4.10,-0.42,1.81,-27.06,13.89,-26.88
5471,-1.61,5.73,-10.88,4.10,-0.42,1.81,-27.06,13.89,-26.88
5482,-1.60,5.34,-7.75,6.50,0.25,1.84,-27.06,13.89,-26.88
5493,-1.60,5.34,-7.75,6.50,0.25,1.84,-27.06,13.89,-26.88
5504,-0.96,9.08,-11.53,5.74,1.13,0.57,-27.06,13.89,-26.88
5515,-0.96,9.08,-11.53,5.74,1.13,0.57,-27.06,13.89,-26.88
5526,-0.13,5.52,-14.51,6.91,1.19,-1.35,-22.35,-1.36,-36.87
5537,-0.13,5.52,-14.51,6.91,1.19,-1.35,-22.35,-1.36,-36.87
5548,-0.11,-1.51,-13.08,8.85,0.28,-2.23,-22.35,-1.36,-36.87
5559,-0.06,-4.70,-11.29,8.41,-0.67,-1.79,-22.35,-1.36,-36.87
5570,-0.06,-4.70,-11.29,8.41,-0.67,-1.79,-22.35,-1.36,-36.87
5581,-0.13,-3.15,-9.87,6.66,-1.46,-1.11,-22.35,-1.36,-36.87
5592,-0.13,-3.15,-9.87,6.66,-1.46,-1.11,-22.35,-1.36,-36.87
5603,0.15,-3.28,-10.53,5.30,-1.93,-1.13,-22.35,-1.36,-36.87
5614,0.15,-3.28,-10.53,5.30,-1.93,-1.13,-22.35,-1.36,-36.87
5625,1.97,-5.89,-12.13,5.03,-2.68,-1.34,-22.35,-1.36,-36.87
5636,1.97,-5.89,-12.13,5.03,-2.68,-1.34,-22.35,-1.36,-36.87
5647,1.26,-7.52,-11.00,4.82,-4.14,-1.04,-22.35,-1.36,-36.87
5658,3.16,-7.14,-10.21,3.51,-5.70,-0.60,-29.21,-29.53,-23.31
5669,3.16,-7.14,-10.21,3.51,-5.70,-0.60,-29.21,-29.53,-23.31
5680,3.09,-6.36,-9.08,2.05,-6.71,-0.27,-29.21,-29.53,-23.31
5691,3.09,-6.36,-9.08,2.05,-6.71,-0.27,-29.21,-29.53,-23.31
5703,2.50,-4.91,-7.62,1.69,-7.39,-0.21,-29.21,-29.53,-23.31
5713,2.50,-4.91,-7.62,1.69,-7.39,-0.21,-29.21,-29.53,-23.31
5729,3.26,-4.17,-4.70,2.82,-7.74,-0.20,-29.21,-29.53,-23.31
5735,3.26,-4.17,-4.70,2.82,-7.74,-0.20,-29.21,-29.53,-23.31
5746,2.27,-4.34,-3.16,4.50,-7.91,-0.10,-29.21,-29.53,-23.31
5757,2.27,-4.34,-3.16,4.50,-7.91,-0.10,-29.21,-29.53,-23.31
5768,2.09,-5.35,4.71,8.78,-7.65,0.76,-29.21,-29.53,-23.31
5779,-4.97,1.60,18.75,15.68,-5.48,2.56,-41.21,-30.99,19.86
5790,-4.97,1.60,18.75,15.68,-5.48,2.56,-41.21,-30.99,19.86
5801,-6.16,-0.97,18.23,11.97,-1.46,1.92,-41.21,-30.99,19.86
5812,-6.16,-0.97,18.23,11.97,-1.46,1.92,-41.21,-30.99,19.86
5823,-3.92,-5.72,5.75,1.45,0.92,-0.02,-41.21,-30.99,19.86
5834,-3.92,-5.72,5.75,1.45,0.92,-0.02,-41.21,-30.99,19.86
5845,-3.93,-7.57,0.16,-0.10,1.43,-0.16,-41.21,-30.99,19.86
5856,-3.93,-7.57,0.16,-0.10,1.43,-0.16,-41.21,-30.99,19.86
5867,-4.76,-8.41,1.13,0.01,0.25,0.37,-41.21,-30.99,19.86
5878,-7.15,-9.29,1.68,1.59,-0.51,0.92,-41.21,-30.99,19.86
5889,-7.15,-9.29,1.68,1.59,-0.51,0.92,-41.21,-30.99,19.86
5900,-4.98,-7.12,1.26,4.24,-0.86,1.75,-42.49,-17.79,32.70
5911,-4.98,-7.12,1.26,4.24,-0.86,1.75,-42.49,-17.79,32.70
5922,-3.29,-4.57,2.01,5.99,-1.41,2.57,-42.49,-17.79,32.70
5933,-3.29,-4.57,2.01,5.99,-1.41,2.57,-42.49,-17.79,32.70
5944,-4.87,-3.37,6.58,8.80,-1.55,3.56,-42.49,-17.79,32.70
5955,-4.87,-3.37,6.58,8.80,-1.55,3.56,-42.49,-17.79,32.70
5966,-7.05,-1.48,8.65,9.88,-0.70,4.53,-42.49,-17.79,32.70
5977,-7.05,-1.48,8.65,9.88,-0.70,4.53,-42.49,-17.79,32.70
5988,-7.83,0.84,7.46,8.93,0.32,4.89,-42.49,-17.79,32.70
5999,-8.86,6.50,6.22,5.48,0.54,3.26,-42.49,-17.79,32.70
6010,-8.86,6.50,6.22,5.48,0.54,3.26,-42.49,-17.79,32.70
6021,-8.34,7.90,4.16,2.41,0.29,1.29,-42.49,-17.79,32.70
6032,-8.34,7.90,4.16,2.41,0.29,1.29,-42.49,-17.79,32.70
6043,-8.13,4.39,5.62,3.94,0.31,0.22,-39.49,13.89,27.71
6054,-8.13,4.39,5.62,3.94,0.31,0.22,-39.49,13.89,27.71
6065,-7.31,1.67,9.13,4.02,0.53,0.03,-39.49,13.89,27.71
6076,-7.31,1.67,9.13,4.02,0.53,0.03,-39.49,13.89,27.71
6087,-8.24,2.40,6.99,1.21,0.96,0.08,-39.49,13.89,27.71
6098,-7.19,3.73,5.19,-0.75,1.14,0.01,-39.49,13.89,27.71
6109,-7.19,3.73,5.19,-0.75,1.14,0.01,-39.49,13.89,27.71
6120,-7.77,4.67,4.27,0.83,0.83,-0.18,-39.49,13.89,27.71
6131,-7.77,4.67,4.27,0.83,0.83,-0.18,-39.49,13.89,27.71
6142,-7.73,2.97,6.22,1.08,0.52,-0.26,-39.49,13.89,27.71
6153,-7.73,2.97,6.22,1.08,0.52,-0.26,-39.49,13.89,27.71
6164,-6.52,4.14,2.55,-0.49,0.33,0.05,-39.92,15.36,19.50
6175,-6.52,4.14,2.55,-0.49,0.33,0.05,-39.92,15.36,19.50
6186,-8.08,4.05,7.51,1.60,0.34,0.19,-39.92,15.36,19.50
6197,-8.08,4.05,7.51,1.60,0.34,0.19,-39.92,15.36,19.50
6208,-6.44,5.46,3.72,0.83,0.75,-0.06,-39.92,15.36,19.50
6219,-6.78,3.35,5.27,3.21,0.93,0.03,-39.92,15.36,19.50
6230,-6.78,3.35,5.27,3.21,0.93,0.03,-39.92,15.36,19.50
6241,-6.84,1.13,5.19,3.60,1.00,0.35,-39.92,15.36,19.50
6252,-6.84,1.13,5.19,3.60,1.00,0.35,-39.92,15.36,19.50
6263,-5.48,4.63,2.25,2.45,0.77,0.92,-39.92,15.36,19.50
6274,-5.48,4.63,2.25,2.45,0.77,0.92,-39.92,15.36,19.50
6285,-7.81,6.20,3.94,5.75,0.87,1.07,-39.71,19.32,3.98
6296,-7.81,6.20,3.94,5.75,0.87,1.07,-39.71,19.32,3.98
6307,-10.91,4.93,5.29,7.08,1.18,0.87,-39.71,19.32,3.98
6318,-10.91,4.93,5.29,7.08,1.18,0.87,-39.71,19.32,3.98
6329,-7.49,6.85,-0.00,4.44,1.08,0.58,-39.71,19.32,3.98
6340,-9.91,7.09,1.78,3.60,0.58,0.33,-39.71,19.32,3.98
6351,-9.91,7.09,1.78,3.60,0.58,0.33,-39.71,19.32,3.98
6362,-8.98,7.41,0.23,0.96,0.12,-0.10,-39.71,19.32,3.98
6373,-8.98,7.41,0.23,0.96,0.12,-0.10,-39.71,19.32,3.98
6384,-7.63,7.01,0.62,0.26,0.01,-0.30,-39.71,19.32,3.98
6395,-7.63,7.01,0.62,0.26,0.01,-0.30,-39.71,19.32,3.98
6406,-7.82,6.69,0.38,0.84,0.30,-0.21,-39.71,19.32,3.98
6417,-7.82,6.69,0.38,0.84,0.30,-0.21,-39.71,19.32,3.98
6428,-7.69,6.36,-0.46,0.85,0.22,-0.27,-39.71,19.32,3.98
6439,-8.14,6.42,0.28,-0.78,-0.20,-0.45,-39.71,19.32,3.98
6450,-8.14,6.42,0.28,-0.78,-0.20,-0.45,-39.71,19.32,3.98
6461,-8.75,5.24,3.08,-3.35,-0.50,-0.60,-39.71,19.32,3.98
6472,-8.75,5.24,3.08,-3.35,-0.50,-0.60,-39.71,19.32,3.98
6483,-7.32,6.81,2.23,-6.60,-0.67,-0.65,-39.71,19.32,3.98
6494,-7.32,6.81,2.23,-6.60,-0.67,-0.65,-39.71,19.32,3.98
6505,-6.64,5.79,2.73,-6.34,-0.72,-0.88,-39.71,19.32,3.98
6516,-6.64,5.79,2.73,-6.34,-0.72,-0.88,-39.71,19.32,3.98
6527,-6.60,5.18,3.07,-5.53,-0.63,-0.96,-39.71,19.32,3.98
6538,-6.60,5.18,3.07,-5.53,-0.63,-0.96,-39.71,19.32,3.98
6549,-6.91,4.11,4.68,-3.06,-0.13,-0.63,-40.56,17.85,9.69
6560,-8.11,4.71,4.45,-0.84,0.47,-0.27,-40.56,17.85,9.69
6571,-8.11,4.71,4.45,-0.84,0.47,-0.27,-40.56,17.85,9.69
6582,-8.49,4.59,3.57,0.06,0.60,-0.19,-40.56,17.85,9.69
6593,-8.49,4.59,3.57,0.06,0.60,-0.19,-40.56,17.85,9.69
6604,-8.27,4.59,3.15,0.38,0.50,-0.07,-40.56,17.85,9.69
6615,-8.27,4.59,3.15,0.38,0.50,-0.07,-40.56,17.85,9.69
6626,-8.04,4.70,3.01,0.39,0.44,0.01,-40.56,17.85,9.69
6637,-8.04,4.70,3.01,0.39,0.44,0.01,-40.56,17.85,9.69
6648,-8.02,4.81,2.65,0.10,0.38,-0.02,-40.56,17.85,9.69
6659,-8.33,4.56,3.02,-0.20,0.16,-0.04,-43.78,18.29,8.44
6670,-8.33,4.56,3.02,-0.20,0.16,-0.04,-43.78,18.29,8.44
6681,-8.29,4.41,3.84,-0.31,0.04,0.03,-43.78,18.29,8.44
6692,-8.29,4.41,3.84,-0.31,0.04,0.03,-43.78,18.29,8.44
6703,-8.35,4.83,3.60,-0.24,0.11,-0.00,-43.78,18.29,8.44
6714,-8.35,4.83,3.60,-0.24,0.11,-0.00,-43.78,18.29,8.44
6725,-8.53,4.38,3.11,-0.19,0.14,-0.13,-43.78,18.29,8.44
6736,-8.53,4.38,3.11,-0.19,0.14,-0.13,-43.78,18.29,8.44
6747,-8.50,4.17,3.17,-0.12,0.19,-0.11,-43.78,18.29,8.44
6758,-8.50,4.17,3.17,-0.12,0.19,-0.11,-43.78,18.29,8.44
6769,-8.21,4.63,2.66,-0.27,0.21,-0.03,-43.78,18.29,8.44
6780,-8.41,4.60,2.94,-0.33,0.09,-0.05,-43.78,16.82,9.87
6791,-8.41,4.60,2.94,-0.33,0.09,-0.05,-43.78,16.82,9.87
6802,-8.42,4.40,3.57,-0.29,-0.01,-0.05,-43.78,16.82,9.87
6813,-8.42,4.40,3.57,-0.29,-0.01,-0.05,-43.78,16.82,9.87
6824,-8.21,4.25,3.58,-0.13,0.03,0.00,-43.78,16.82,9.87
6835,-8.21,4.25,3.58,-0.13,0.03,0.00,-43.78,16.82,9.87
6846,-8.26,4.49,3.61,-0.07,0.07,0.04,-43.78,16.82,9.87
6857,-8.26,4.49,3.61,-0.07,0.07,0.04,-43.78,16.82,9.87
6868,-8.19,4.42,3.79,-0.12,0.05,0.01,-43.78,16.82,9.87
6879,-8.21,4.44,3.61,-0.08,0.03,-0.01,-43.78,16.82,9.87
6890,-8.21,4.44,3.61,-0.08,0.03,-0.01,-43.78,16.82,9.87
6901,-8.30,4.35,3.45,-0.01,0.05,-0.04,-43.78,16.82,9.87
6912,-8.30,4.35,3.45,-0.01,0.05,-0.04,-43.78,16.82,9.87
6923,-8.33,4.26,3.43,0.01,0.09,-0.01,-45.28,17.85,8.26
6934,-8.33,4.26,3.43,0.01,0.09,-0.01,-45.28,17.85,8.26
6945,-8.22,4.64,3.25,-0.07,0.11,0.02,-45.28,17.85,8.26
6956,-8.22,4.64,3.25,-0.07,0.11,0.02,-45.28,17.85,8.26
6967,-8.22,4.47,3.34,-0.12,0.10,-0.05,-45.28,17.85,8.26
6978,-8.22,4.47,3.34,-0.12,0.10,-0.05,-45.28,17.85,8.26
6989,-8.40,4.15,3.52,-0.08,0.10,-0.05,-45.28,17.85,8.26
7000,-8.32,4.31,3.31,-0.08,0.13,0.02,-45.28,17.85,8.26
7011,-8.32,4.31,3.31,-0.08,0.13,0.02,-45.28,17.85,8.26
7022,-8.40,4.39,3.28,-0.07,0.10,0.04,-45.28,17.85,8.26
7033,-8.40,4.39,3.28,-0.07,0.10,0.04,-45.28,17.85,8.26
7044,-8.54,4.29,3.39,-0.02,0.05,0.03,-41.85,15.21,8.98
7055,-8.54,4.29,3.39,-0.02,0.05,0.03,-41.85,15.21,8.98
7066,-8.28,4.35,3.36,0.02,0.01,0.04,-41.85,15.21,8.98
7077,-8.28,4.35,3.36,0.02,0.01,0.04,-41.85,15.21,8.98
7088,-8.21,4.41,3.37,0.00,-0.04,0.02,-41.85,15.21,8.98
7099,-8.50,4.33,3.52,-0.02,-0.05,0.01,-41.85,15.21,8.98
7110,-8.50,4.33,3.52,-0.02,-0.05,0.01,-41.85,15.21,8.98
7121,-8.83,4.11,3.70,-0.03,-0.06,0.07,-41.85,15.21,8.98
7132,-8.83,4.11,3.70,-0.03,-0.06,0.07,-41.85,15.21,8.98
7143,-8.53,4.20,3.54,0.01,-0.14,0.13,-41.85,15.21,8.98
7159,-8.53,4.20,3.54,0.01,-0.14,0.13,-41.85,15.21,8.98
7165,-7.85,4.46,3.30,0.05,-0.20,0.11,-41.42,16.97,10.05
7176,-7.85,4.46,3.30,0.05,-0.20,0.11,-41.42,16.97,10.05
7187,-7.67,4.64,2.97,0.05,-0.20,0.02,-41.42,16.97,10.05
7198,-7.67,4.64,2.97,0.05,-0.20,0.02,-41.42,16.97,10.05
7209,-8.12,4.83,3.34,0.02,-0.24,-0.07,-41.42,16.97,10.05
7220,-8.65,4.24,4.20,0.09,-0.28,-0.13,-41.42,16.97,10.05
7231,-8.65,4.24,4.20,0.09,-0.28,-0.13,-41.42,16.97,10.05
7242,-8.14,4.44,3.90,0.26,-0.24,-0.05,-41.42,16.97,10.05
7253,-8.14,4.44,3.90,0.26,-0.24,-0.05,-41.42,16.97,10.05
7264,-7.56,4.82,3.55,0.37,-0.23,-0.08,-41.42,16.97,10.05
7275,-7.56,4.82,3.55,0.37,-0.23,-0.08,-41.42,16.97,10.05
7286,-7.67,4.53,3.57,0.34,-0.17,-0.19,-41.42,16.97,10.05
7297,-7.67,4.53,3.57,0.34,-0.17,-0.19,-41.42,16.97,10.05
7308,-8.09,4.51,3.52,0.28,-0.10,-0.21,-41.42,16.97,9.33
7319,-8.52,4.30,3.23,0.16,-0.03,-0.13,-41.42,16.97,9.33
7330,-8.52,4.30,3.23,0.16,-0.03,-0.13,-41.42,16.97,9.33
7341,-8.23,4.42,3.50,-0.07,-0.05,-0.01,-41.42,16.97,9.33
7352,-8.23,4.42,3.50,-0.07,-0.05,-0.01,-41.42,16.97,9.33
7363,-7.96,4.51,3.52,-0.20,-0.04,0.02,-41.42,16.97,9.33
7374,-7.96,4.51,3.52,-0.20,-0.04,0.02,-41.42,16.97,9.33
7385,-8.12,4.50,3.66,-0.23,-0.01,-0.03,-41.42,16.97,9.33
7397,-8.12,4.50,3.66,-0.23,-0.01,-0.03,-41.42,16.97,9.33
7407,-8.36,4.33,3.94,-0.13,0.01,-0.08,-41.42,16.97,9.33
7418,-8.36,4.33,3.94,-0.13,0.01,-0.08,-41.42,16.97,9.33
7429,-8.33,4.19,3.72,-0.02,0.07,-0.09,-44.85,16.68,6.84
7440,-8.14,4.47,3.40,0.01,0.11,-0.06,-44.85,16.68,6.84
7451,-8.14,4.47,3.40,0.01,0.11,-0.06,-44.85,16.68,6.84
7462,-8.22,4.41,3.41,-0.03,0.08,-0.08,-44.85,16.68,6.84
7473,-8.22,4.41,3.41,-0.03,0.08,-0.08,-44.85,16.68,6.84
7484,-8.23,4.41,3.41,-0.07,0.05,-0.07,-44.85,16.68,6.84
7495,-8.23,4.41,3.41,-0.07,0.05,-0.07,-44.85,16.68,6.84
7506,-8.13,4.33,3.72,-0.09,0.03,-0.08,-44.85,16.68,6.84
7517,-8.13,4.33,3.72,-0.09,0.03,-0.08,-44.85,16.68,6.84
7528,-8.11,4.31,3.83,-0.04,0.06,-0.10,-44.85,16.68,6.84
7539,-8.11,4.31,3.83,-0.04,0.06,-0.10,-44.85,16.68,6.84
7550,-8.02,4.40,3.73,0.00,0.09,-0.12,-44.21,18.00,9.15
7561,-8.25,4.17,3.69,0.13,0.10,-0.14,-44.21,18.00,9.15
7572,-8.25,4.17,3.69,0.13,0.10,-0.14,-44.21,18.00,9.15
7583,-8.27,4.24,3.50,0.13,0.14,-0.13,-44.21,18.00,9.15
7594,-8.27,4.24,3.50,0.13,0.14,-0.13,-44.21,18.00,9.15
7605,-8.26,4.40,3.53,-0.02,0.16,-0.14,-44.21,18.00,9.15
7616,-8.26,4.40,3.53,-0.02,0.16,-0.14,-44.21,18.00,9.15
7627,-8.47,4.13,3.80,-0.05,0.18,-0.19,-44.21,18.00,9.15
7638,-8.47,4.13,3.80,-0.05,0.18,-0.19,-44.21,18.00,9.15
7649,-8.80,3.94,3.60,-0.05,0.22,-0.19,-44.21,18.00,9.15
7660,-8.80,4.09,3.40,-0.08,0.18,-0.11,-46.99,15.21,10.40
7672,-8.80,4.09,3.40,-0.08,0.18,-0.11,-46.99,15.21,10.40
7682,-8.76,4.16,3.04,-0.18,0.17,-0.09,-46.99,15.21,10.40
7693,-8.76,4.16,3.04,-0.18,0.17,-0.09,-46.99,15.21,10.40
7704,-8.61,4.05,3.24,-0.27,0.14,-0.08,-46.99,15.21,10.40
7715,-8.61,4.05,3.24,-0.27,0.14,-0.08,-46.99,15.21,10.40
7726,-8.52,4.08,2.93,-0.15,0.18,-0.05,-46.99,15.21,10.40
7737,-8.52,4.08,2.93,-0.15,0.18,-0.05,-46.99,15.21,10.40
7748,-8.72,4.29,2.90,0.06,0.18,-0.02,-46.99,15.21,10.40
7759,-8.72,4.29,2.90,0.06,0.18,-0.02,-46.99,15.21,10.40
7770,-8.65,4.09,3.02,0.04,0.21,-0.00,-46.99,15.21,10.40
7781,-8.77,3.86,3.27,-0.05,0.34,0.13,-46.99,15.21,10.40
7792,-8.77,3.86,3.27,-0.05,0.34,0.13,-46.99,15.21,10.40
7803,-8.38,4.19,3.04,-0.18,0.45,0.25,-44.85,16.97,7.91
7814,-8.38,4.19,3.04,-0.18,0.45,0.25,-44.85,16.97,7.91
7825,-8.30,4.15,2.85,-0.32,0.35,0.26,-44.85,16.97,7.91
7836,-8.30,4.15,2.85,-0.32,0.35,0.26,-44.85,16.97,7.91
7847,-8.14,3.86,3.32,-0.45,0.21,0.29,-44.85,16.97,7.91
7858,-8.14,3.86,3.32,-0.45,0.21,0.29,-44.85,16.97,7.91
7869,-8.01,4.39,3.95,-0.52,0.14,0.36,-44.85,16.97,7.91
7880,-7.99,3.86,3.93,-0.37,0.18,0.45,-44.85,16.97,7.91
7891,-7.99,3.86,3.93,-0.37,0.18,0.45,-44.85,16.97,7.91
7902,-7.74,4.48,3.01,-0.15,0.18,0.55,-44.85,16.97,7.91
7913,-7.74,4.48,3.01,-0.15,0.18,0.55,-44.85,16.97,7.91
7924,-8.32,4.37,3.21,0.38,0.16,0.60,-43.99,16.38,8.26
7935,-8.32,4.37,3.21,0.38,0.16,0.60,-43.99,16.38,8.26
7946,-8.31,4.32,2.82,0.85,0.17,0.67,-43.99,16.38,8.26
7957,-8.31,4.32,2.82,0.85,0.17,0.67,-43.99,16.38,8.26
7968,-8.96,4.85,3.05,0.88,0.08,0.63,-43.99,16.38,8.26
7979,-8.96,4.85,3.05,0.88,0.08,0.63,-43.99,16.38,8.26
7990,-8.65,5.12,3.42,0.87,0.01,0.44,-43.99,16.38,8.26
8001,-8.26,4.57,3.00,0.78,-0.09,0.29,-43.99,16.38,8.26
8012,-8.26,4.57,3.00,0.78,-0.09,0.29,-43.99,16.38,8.26
8023,-8.79,5.22,2.76,0.56,-0.21,0.19,-43.99,16.38,8.26
8034,-8.79,5.22,2.76,0.56,-0.21,0.19,-43.99,16.38,8.26
8045,-8.93,5.38,2.67,0.15,-0.28,0.01,-39.71,19.61,4.34
8056,-8.93,5.38,2.67,0.15,-0.28,0.01,-39.71,19.61,4.34
8067,-8.92,5.23,2.87,-0.18,-0.33,-0.23,-39.71,19.61,4.34
8078,-8.92,5.23,2.87,-0.18,-0.33,-0.23,-39.71,19.61,4.34
8089,-8.57,5.06,2.97,-0.27,-0.21,-0.38,-39.71,19.61,4.34
8100,-8.28,4.47,2.80,-0.25,-0.15,-0.50,-39.71,19.61,4.34
8111,-8.28,4.47,2.80,-0.25,-0.15,-0.50,-39.71,19.61,4.34
8122,-8.02,4.29,2.58,-0.04,-0.15,-0.44,-39.71,19.61,4.34
8133,-8.02,4.29,2.58,-0.04,-0.15,-0.44,-39.71,19.61,4.34
8149,-8.53,4.92,2.80,-0.01,-0.24,-0.40,-39.71,19.61,4.34
8155,-8.53,4.92,2.80,-0.01,-0.24,-0.40,-39.71,19.61,4.34
8166,-8.41,5.00,2.91,-0.18,-0.31,-0.49,-39.71,19.61,4.34
8177,-8.41,5.00,2.91,-0.18,-0.31,-0.49,-39.71,19.61,4.34
8188,-8.26,4.48,2.99,-0.41,-0.30,-0.57,-42.71,16.68,6.48
8199,-8.26,4.48,2.99,-0.41,-0.30,-0.57,-42.71,16.68,6.48
8210,-8.44,4.20,3.53,-0.37,-0.20,-0.47,-42.71,16.68,6.48
8221,-8.71,4.18,3.83,-0.36,-0.14,-0.42,-42.71,16.68,6.48
8232,-8.71,4.18,3.83,-0.36,-0.14,-0.42,-42.71,16.68,6.48
8243,-8.80,4.00,3.47,-0.34,-0.14,-0.42,-42.71,16.68,6.48
8254,-8.80,4.00,3.47,-0.34,-0.14,-0.42,-42.71,16.68,6.48
8265,-8.19,4.32,3.36,-0.45,-0.11,-0.46,-42.71,16.68,6.48
8276,-8.19,4.32,3.36,-0.45,-0.11,-0.46,-42.71,16.68,6.48
8287,-8.14,4.01,3.32,-0.40,-0.09,-0.42,-42.71,16.68,6.48
8298,-8.14,4.01,3.32,-0.40,-0.09,-0.42,-42.71,16.68,6.48
8309,-8.09,3.56,3.28,-0.31,-0.03,-0.33,-46.14,14.62,9.33
8320,-8.28,4.07,2.62,-0.19,0.02,-0.20,-46.14,14.62,9.33
8331,-8.28,4.07,2.62,-0.19,0.02,-0.20,-46.14,14.62,9.33
8342,-8.38,3.83,3.62,-0.17,-0.00,-0.16,-46.14,14.62,9.33
8353,-8.38,3.83,3.62,-0.17,-0.00,-0.16,-46.14,14.62,9.33
8364,-8.19,3.79,3.24,-0.16,0.00,-0.09,-46.14,14.62,9.33
8375,-8.19,3.79,3.24,-0.16,0.00,-0.09,-46.14,14.62,9.33
8386,-8.65,4.11,4.14,-0.06,-0.02,-0.04,-46.14,14.62,9.33
8397,-8.65,4.11,4.14,-0.06,-0.02,-0.04,-46.14,14.62,9.33
8408,-8.62,3.81,3.89,-0.05,0.07,-0.06,-46.14,14.62,9.33
8419,-8.62,3.81,3.89,-0.05,0.07,-0.06,-46.14,14.62,9.33
8430,-8.58,3.91,3.63,-0.01,0.13,-0.02,-44.21,13.89,7.73
8441,-8.56,3.70,3.32,-0.05,0.14,0.00,-44.21,13.89,7.73
8452,-8.56,3.70,3.32,-0.05,0.14,0.00,-44.21,13.89,7.73
8463,-8.49,4.21,2.96,-0.14,0.12,0.03,-44.21,13.89,7.73
8474,-8.49,4.21,2.96,-0.14,0.12,0.03,-44.21,13.89,7.73
8485,-8.55,3.44,3.44,-0.10,0.11,0.07,-44.21,13.89,7.73
8496,-8.55,3.44,3.44,-0.10,0.11,0.07,-44.21,13.89,7.73
8507,-8.66,3.90,3.42,-0.09,0.18,0.14,-44.21,13.89,7.73
8518,-8.66,3.90,3.42,-0.09,0.18,0.14,-44.21,13.89,7.73
8529,-8.66,3.85,3.65,-0.05,0.22,0.17,-44.21,13.89,7.73
8540,-8.66,3.85,3.65,-0.05,0.22,0.17,-44.21,13.89,7.73
8551,-8.29,3.95,2.84,-0.03,0.23,0.18,-44.21,13.89,7.73
8562,-8.61,3.54,3.59,-0.13,0.12,0.17,-46.14,16.09,8.26
8573,-8.61,3.54,3.59,-0.13,0.12,0.17,-46.14,16.09,8.26
8585,-8.46,3.92,3.46,-0.20,0.12,0.23,-46.14,16.09,8.26
8595,-8.46,3.92,3.46,-0.20,0.12,0.23,-46.14,16.09,8.26
8606,-8.21,4.02,3.11,-0.17,0.12,0.27,-46.14,16.09,8.26
8617,-8.21,4.02,3.11,-0.17,0.12,0.27,-46.14,16.09,8.26
8628,-8.06,3.76,3.45,-0.10,0.10,0.31,-46.14,16.09,8.26
8639,-8.06,3.76,3.45,-0.10,0.10,0.31,-46.14,16.09,8.26
8650,-8.81,3.79,3.55,0.06,0.15,0.43,-46.14,16.09,8.26
8661,-8.35,4.30,3.43,0.10,0.18,0.46,-46.14,16.09,8.26
8672,-8.35,4.30,3.43,0.10,0.18,0.46,-46.14,16.09,8.26
8683,-7.96,4.98,3.14,0.12,0.14,0.42,-40.99,17.56,6.84
8694,-7.96,4.98,3.14,0.12,0.14,0.42,-40.99,17.56,6.84
8705,-8.94,4.34,4.13,0.22,0.12,0.39,-40.99,17.56,6.84
8716,-8.94,4.34,4.13,0.22,0.12,0.39,-40.99,17.56,6.84
8727,-8.40,4.42,3.62,0.24,0.12,0.41,-40.99,17.56,6.84
8738,-8.40,4.42,3.62,0.24,0.12,0.41,-40.99,17.56,6.84
8749,-7.83,4.53,3.20,0.30,0.04,0.41,-40.99,17.56,6.84
8760,-7.83,4.53,3.20,0.30,0.04,0.41,-40.99,17.56,6.84
8771,-7.78,4.28,3.58,0.45,-0.00,0.44,-40.99,17.56,6.84
8782,-8.06,4.64,3.10,0.67,-0.01,0.51,-40.99,17.56,6.84
8793,-8.06,4.64,3.10,0.67,-0.01,0.51,-40.99,17.56,6.84
8804,-8.49,4.89,3.20,0.63,-0.04,0.45,-40.99,19.02,5.41
8816,-8.49,4.89,3.20,0.63,-0.04,0.45,-40.99,19.02,5.41
8826,-8.34,5.08,2.67,0.55,-0.10,0.34,-40.99,19.02,5.41
8837,-8.34,5.08,2.67,0.55,-0.10,0.34,-40.99,19.02,5.41
8848,-8.45,4.60,3.14,0.65,-0.14,0.27,-40.99,19.02,5.41
8859,-8.45,4.60,3.14,0.65,-0.14,0.27,-40.99,19.02,5.41
8870,-8.64,5.56,2.93,0.48,-0.11,0.19,-40.99,19.02,5.41
8881,-8.59,5.21,2.75,0.36,-0.12,0.03,-40.99,19.02,5.41
8892,-8.59,5.21,2.75,0.36,-0.12,0.03,-40.99,19.02,5.41
8903,-8.81,5.50,3.11,0.08,-0.24,-0.15,-40.99,19.02,5.41
8914,-8.81,5.50,3.11,0.08,-0.24,-0.15,-40.99,19.02,5.41
8925,-8.34,5.26,3.17,-0.14,-0.31,-0.38,-40.99,19.02,5.41
8936,-8.34,5.26,3.17,-0.14,-0.31,-0.38,-40.99,19.02,5.41
8947,-8.29,4.30,3.20,-0.09,-0.27,-0.48,-39.28,18.14,4.69
8958,-8.29,4.30,3.20,-0.09,-0.27,-0.48,-39.28,18.14,4.69
8969,-8.54,4.57,3.03,-0.12,-0.24,-0.48,-39.28,18.14,4.69
8980,-8.54,4.57,3.03,-0.12,-0.24,-0.48,-39.28,18.14,4.69
8991,-8.38,4.53,2.73,-0.18,-0.22,-0.50,-39.28,18.14,4.69
9002,-8.34,4.82,3.10,-0.19,-0.19,-0.49,-39.28,18.14,4.69
9013,-8.34,4.82,3.10,-0.19,-0.19,-0.49,-39.28,18.14,4.69
9024,-8.74,3.72,3.80,-0.20,-0.18,-0.52,-39.28,18.14,4.69
9035,-8.74,3.72,3.80,-0.20,-0.18,-0.52,-39.28,18.14,4.69
9046,-8.65,4.30,3.29,-0.27,-0.14,-0.46,-39.28,18.14,4.69
9057,-8.65,4.30,3.29,-0.27,-0.14,-0.46,-39.28,18.14,4.69
9068,-8.61,4.57,3.29,-0.31,-0.10,-0.43,-42.92,15.94,7.01
9079,-8.61,4.57,3.29,-0.31,-0.10,-0.43,-42.92,15.94,7.01
9090,-8.17,4.48,2.79,-0.35,-0.12,-0.44,-42.92,15.94,7.01
9101,-8.33,3.68,3.73,-0.33,-0.09,-0.46,-42.92,15.94,7.01
9113,-8.33,3.68,3.73,-0.33,-0.09,-0.46,-42.92,15.94,7.01
9123,-8.78,3.97,3.51,-0.27,-0.04,-0.39,-42.92,15.94,7.01
9134,-8.78,3.97,3.51,-0.27,-0.04,-0.39,-42.92,15.94,7.01
9145,-8.24,4.17,2.92,-0.26,0.01,-0.38,-42.92,15.94,7.01
9156,-8.24,4.17,2.92,-0.26,0.01,-0.38,-42.92,15.94,7.01
9167,-8.49,4.32,3.39,-0.25,0.02,-0.33,-42.92,15.94,7.01
9178,-8.49,4.32,3.39,-0.25,0.02,-0.33,-42.92,15.94,7.01
9189,-8.12,3.98,2.81,-0.33,0.07,-0.24,-46.14,13.74,7.91
9200,-8.12,3.98,2.81,-0.33,0.07,-0.24,-46.14,13.74,7.91
9211,-8.46,3.73,3.37,-0.39,0.05,-0.14,-46.14,13.74,7.91
9222,-8.61,3.80,3.55,-0.30,0.08,-0.04,-46.14,13.74,7.91
9233,-8.61,3.80,3.55,-0.30,0.08,-0.04,-46.14,13.74,7.91
9244,-8.32,4.00,2.77,-0.25,0.15,0.02,-46.14,13.74,7.91
9255,-8.32,4.00,2.77,-0.25,0.15,0.02,-46.14,13.74,7.91
9266,-8.65,3.81,3.35,-0.23,0.13,0.09,-46.14,13.74,7.91
9277,-8.65,3.81,3.35,-0.23,0.13,0.09,-46.14,13.74,7.91
9288,-8.43,3.78,3.33,-0.25,0.12,0.14,-46.14,13.74,7.91
9299,-8.43,3.78,3.33,-0.25,0.12,0.14,-46.14,13.74,7.91
9310,-8.72,3.70,3.75,-0.21,0.16,0.19,-43.78,14.18,10.58
9321,-8.31,3.75,3.73,-0.21,0.17,0.21,-43.78,14.18,10.58
9332,-8.31,3.75,3.73,-0.21,0.17,0.21,-43.78,14.18,10.58
9343,-8.10,4.50,3.58,-0.11,0.15,0.27,-43.78,14.18,10.58
9354,-8.10,4.50,3.58,-0.11,0.15,0.27,-43.78,14.18,10.58
9365,-8.04,3.86,3.83,-0.08,0.11,0.22,-43.78,14.18,10.58
9376,-8.04,3.86,3.83,-0.08,0.11,0.22,-43.78,14.18,10.58
9387,-8.35,3.83,3.75,0.03,0.11,0.24,-43.78,14.18,10.58
9398,-8.35,3.83,3.75,0.03,0.11,0.24,-43.78,14.18,10.58
9409,-8.41,3.87,3.80,0.07,0.13,0.29,-43.78,14.18,10.58
9420,-8.41,3.87,3.80,0.07,0.13,0.29,-43.78,14.18,10.58
9431,-8.27,4.32,3.45,0.09,0.14,0.34,-43.78,14.18,10.58
9442,-8.51,4.44,3.36,0.09,0.10,0.33,-42.28,16.09,7.91
9453,-8.51,4.44,3.36,0.09,0.10,0.33,-42.28,16.09,7.91
9464,-7.95,3.97,3.76,0.04,0.03,0.26,-42.28,16.09,7.91
9475,-7.95,3.97,3.76,0.04,0.03,0.26,-42.28,16.09,7.91
9486,-8.08,4.28,3.15,0.11,0.04,0.32,-42.28,16.09,7.91
9497,-8.08,4.28,3.15,0.11,0.04,0.32,-42.28,16.09,7.91
9508,-8.56,4.27,3.88,0.33,0.09,0.39,-42.28,16.09,7.91
9519,-8.56,4.27,3.88,0.33,0.09,0.39,-42.28,16.09,7.91
9530,-7.89,4.50,2.85,0.33,0.08,0.37,-42.28,16.09,7.91
9541,-7.89,4.50,2.85,0.33,0.08,0.37,-42.28,16.09,7.91
9552,-8.05,4.94,3.02,0.32,0.03,0.33,-42.28,16.09,7.91
9563,-8.08,4.27,3.12,0.46,0.00,0.29,-40.78,17.41,8.80
9574,-8.08,4.27,3.12,0.46,0.00,0.29,-40.78,17.41,8.80
9585,-8.16,4.00,3.60,0.50,-0.03,0.31,-40.78,17.41,8.80
9596,-8.16,4.00,3.60,0.50,-0.03,0.31,-40.78,17.41,8.80
9607,-8.59,4.61,3.59,0.54,-0.03,0.36,-40.78,17.41,8.80
9618,-8.59,4.61,3.59,0.54,-0.03,0.36,-40.78,17.41,8.80
9629,-8.55,5.15,2.86,0.38,-0.08,0.28,-40.78,17.41,8.80
9640,-8.55,5.15,2.86,0.38,-0.08,0.28,-40.78,17.41,8.80
9651,-8.70,4.58,3.11,0.34,-0.09,0.13,-40.78,17.41,8.80
9662,-8.06,4.74,2.69,0.28,-0.06,0.06,-40.78,17.41,8.80
9673,-8.06,4.74,2.69,0.28,-0.06,0.06,-40.78,17.41,8.80
9684,-8.30,4.98,3.02,0.30,-0.12,0.05,-37.13,18.44,6.48
9695,-8.30,4.98,3.02,0.30,-0.12,0.05,-37.13,18.44,6.48
9706,-8.43,5.38,3.26,0.13,-0.19,-0.05,-37.13,18.44,6.48
9717,-8.43,5.38,3.26,0.13,-0.19,-0.05,-37.13,18.44,6.48
9728,-8.54,4.56,3.18,-0.10,-0.24,-0.25,-37.13,18.44,6.48
9739,-8.54,4.56,3.18,-0.10,-0.24,-0.25,-37.13,18.44,6.48
9750,-8.54,4.54,3.08,-0.14,-0.19,-0.33,-37.13,18.44,6.48
9761,-8.54,4.54,3.08,-0.14,-0.19,-0.33,-37.13,18.44,6.48
9772,-8.37,5.11,3.01,-0.11,-0.15,-0.35,-37.13,18.44,6.48
9783,-8.56,5.05,3.06,-0.04,-0.15,-0.39,-37.13,18.44,6.48
9794,-8.56,5.05,3.06,-0.04,-0.15,-0.39,-37.13,18.44,6.48
9805,-8.76,4.07,3.58,-0.08,-0.13,-0.45,-37.13,18.44,6.48
9816,-8.76,4.07,3.58,-0.08,-0.13,-0.45,-37.13,18.44,6.48
9827,-8.42,4.69,3.19,-0.20,-0.11,-0.46,-41.63,18.29,7.37
9838,-8.42,4.69,3.19,-0.20,-0.11,-0.46,-41.63,18.29,7.37
9849,-8.32,4.41,3.10,-0.26,-0.15,-0.53,-41.63,18.29,7.37
9860,-8.32,4.41,3.10,-0.26,-0.15,-0.53,-41.63,18.29,7.37
9871,-8.66,3.98,3.26,-0.32,-0.13,-0.55,-41.63,18.29,7.37
9882,-8.73,4.29,3.62,-0.36,-0.08,-0.53,-41.63,18.29,7.37
9893,-8.73,4.29,3.62,-0.36,-0.08,-0.53,-41.63,18.29,7.37
9904,-8.54,4.02,3.57,-0.39,-0.06,-0.51,-41.63,18.29,7.37
9915,-8.54,4.02,3.57,-0.39,-0.06,-0.51,-41.63,18.29,7.37
9926,-8.95,3.75,3.89,-0.41,-0.06,-0.46,-41.63,18.29,7.37
9937,-8.95,3.75,3.89,-0.41,-0.06,-0.46,-41.63,18.29,7.37
9948,-8.33,4.05,3.51,-0.37,0.00,-0.41,-43.35,15.36,9.87
9959,-8.33,4.05,3.51,-0.37,0.00,-0.41,-43.35,15.36,9.87
9970,-8.32,3.90,3.27,-0.40,-0.01,-0.42,-43.35,15.36,9.87
9981,-8.32,3.90,3.27,-0.40,-0.01,-0.42,-43.35,15.36,9.87
9992,-8.67,3.12,3.04,-0.32,0.04,-0.38,-43.35,15.36,9.87
10003,-8.52,3.96,2.87,-0.31,0.09,-0.25,-43.35,15.36,9.87
10014,-8.52,3.96,2.87,-0.31,0.09,-0.25,-43.35,15.36,9.87
10025,-8.31,3.54,2.70,-0.32,0.09,-0.16,-43.35,15.36,9.87
10036,-8.31,3.54,2.70,-0.32,0.09,-0.16,-43.35,15.36,9.87
10047,-8.15,3.51,3.15,-0.37,0.10,-0.09,-43.35,15.36,9.87
10058,-8.15,3.51,3.15,-0.37,0.10,-0.09,-43.35,15.36,9.87
10069,-8.30,3.49,3.16,-0.37,0.13,0.05,-43.13,14.33,11.12
10080,-8.30,3.49,3.16,-0.37,0.13,0.05,-43.13,14.33,11.12
10091,-8.60,3.63,3.65,-0.39,0.17,0.19,-43.13,14.33,11.12
10102,-8.43,3.54,3.89,-0.41,0.14,0.21,-43.13,14.33,11.12
10113,-8.43,3.54,3.89,-0.41,0.14,0.21,-43.13,14.33,11.12
10124,-8.15,3.79,3.61,-0.30,0.12,0.25,-43.13,14.33,11.12
10135,-8.15,3.79,3.61,-0.30,0.12,0.25,-43.13,14.33,11.12
10146,-8.28,4.18,3.75,-0.20,0.07,0.26,-43.13,14.33,11.12
10157,-8.28,4.18,3.75,-0.20,0.07,0.26,-43.13,14.33,11.12
10168,-8.56,3.84,4.26,-0.07,0.09,0.27,-43.13,14.33,11.12
10179,-8.56,3.84,4.26,-0.07,0.09,0.27,-43.13,14.33,11.12
10190,-8.36,3.66,3.71,-0.02,0.17,0.31,-43.13,14.33,11.12
10201,-8.36,3.66,3.71,-0.02,0.17,0.31,-43.13,14.33,11.12
10212,-8.81,3.45,4.28,-0.04,0.12,0.31,-44.21,15.36,11.30
10223,-8.63,3.59,4.24,-0.07,0.07,0.27,-44.21,15.36,11.30
10234,-8.63,3.59,4.24,-0.07,0.07,0.27,-44.21,15.36,11.30
10245,-8.01,3.72,3.75,-0.06,0.08,0.25,-44.21,15.36,11.30
10256,-8.01,3.72,3.75,-0.06,0.08,0.25,-44.21,15.36,11.30
10267,-8.75,3.94,3.85,0.00,0.08,0.27,-44.21,15.36,11.30
10278,-8.75,3.94,3.85,0.00,0.08,0.27,-44.21,15.36,11.30
10289,-8.02,3.26,3.82,0.03,0.09,0.22,-44.21,15.36,11.30
10300,-8.02,3.26,3.82,0.03,0.09,0.22,-44.21,15.36,11.30
10311,-8.39,4.21,3.31,0.18,0.13,0.33,-44.21,15.36,11.30
10322,-8.47,4.25,3.66,0.21,0.09,0.32,-40.56,15.36,11.30
10333,-8.47,4.25,3.66,0.21,0.09,0.32,-40.56,15.80,11.12
10344,-8.34,3.96,3.41,0.20,0.05,0.30,-40.56,15.80,11.12
10355,-8.34,3.96,3.41,0.20,0.05,0.30,-40.56,15.80,11.12
10366,-8.42,3.81,4.00,0.30,0.07,0.31,-40.56,15.80,11.12
10377,-8.42,3.81,4.00,0.30,0.07,0.31,-40.56,15.80,11.12
10388,-8.27,4.63,3.11,0.32,0.04,0.29,-40.56,15.80,11.12
10399,-8.27,4.63,3.11,0.32,0.04,0.29,-40.56,15.80,11.12
10410,-8.11,4.13,2.94,0.36,0.02,0.25,-40.56,15.80,11.12
10421,-8.11,4.13,2.94,0.36,0.02,0.25,-40.56,15.80,11.12
10432,-8.10,4.27,3.11,0.37,-0.01,0.25,-40.56,15.80,11.12
10443,-7.90,4.24,3.11,0.43,-0.04,0.26,-40.78,17.12,9.51
10454,-7.90,4.24,3.11,0.43,-0.04,0.26,-40.78,17.12,9.51
10465,-8.27,4.82,2.92,0.47,-0.02,0.28,-40.78,17.12,9.51
10476,-8.27,4.82,2.92,0.47,-0.02,0.28,-40.78,17.12,9.51
10487,-8.28,4.16,3.09,0.40,-0.01,0.19,-40.78,17.12,9.51
10498,-8.28,4.16,3.09,0.40,-0.01,0.19,-40.78,17.12,9.51
10509,-9.11,4.95,3.12,0.32,-0.06,0.14,-40.78,17.12,9.51
10520,-9.11,4.95,3.12,0.32,-0.06,0.14,-40.78,17.12,9.51
10531,-8.20,4.16,3.07,0.16,-0.05,0.00,-40.78,17.12,9.51
10542,-8.20,4.16,3.07,0.16,-0.05,0.00,-40.78,17.12,9.51
10553,-8.74,5.01,3.10,0.14,-0.12,-0.02,-40.78,17.12,9.51
10565,-8.69,4.14,3.72,-0.06,-0.17,-0.17,-39.71,18.14,7.55
10575,-8.69,4.14,3.72,-0.06,-0.17,-0.17,-39.71,18.14,7.55
10586,-8.56,4.60,3.25,-0.09,-0.12,-0.21,-39.71,18.14,7.55
10597,-8.56,4.60,3.25,-0.09,-0.12,-0.21,-39.71,18.14,7.55
10608,-8.55,4.30,3.46,-0.17,-0.13,-0.30,-39.71,18.14,7.55
10619,-8.55,4.30,3.46,-0.17,-0.13,-0.30,-39.71,18.14,7.55
10630,-8.58,4.42,3.14,-0.15,-0.13,-0.30,-39.71,18.14,7.55
10641,-8.58,4.42,3.14,-0.15,-0.13,-0.30,-39.71,18.14,7.55
10652,-8.37,4.25,2.96,-0.16,-0.08,-0.32,-39.71,18.14,7.55
10663,-8.53,4.72,3.35,-0.11,-0.05,-0.27,-39.71,18.14,7.55
10674,-8.53,4.72,3.35,-0.11,-0.05,-0.27,-39.71,18.14,7.55
10685,-8.18,4.50,3.05,-0.20,-0.07,-0.36,-39.71,18.14,7.55
10696,-8.18,4.50,3.05,-0.20,-0.07,-0.36,-39.71,18.14,7.55
10707,-8.79,3.69,3.82,-0.12,-0.10,-0.39,-42.71,16.38,10.05
10718,-8.79,3.69,3.82,-0.12,-0.10,-0.39,-42.71,16.38,10.05
10729,-8.30,4.24,3.07,-0.18,-0.07,-0.40,-42.71,16.38,10.05
10740,-8.30,4.24,3.07,-0.18,-0.07,-0.40,-42.71,16.38,10.05
10751,-8.32,3.90,2.99,-0.18,-0.08,-0.43,-42.71,16.38,10.05
10762,-8.32,3.90,2.99,-0.18,-0.08,-0.43,-42.71,16.38,10.05
10773,-8.75,4.10,3.64,-0.23,-0.05,-0.43,-42.71,16.38,10.05
10784,-8.81,3.29,3.95,-0.24,-0.04,-0.44,-42.71,16.38,10.05
10795,-8.81,3.29,3.95,-0.24,-0.04,-0.44,-42.71,16.38,10.05
10806,-8.74,3.36,3.41,-0.21,-0.04,-0.40,-42.71,16.38,10.05
10817,-8.74,3.36,3.41,-0.21,-0.04,-0.40,-42.71,16.38,10.05
10828,-8.14,3.30,2.57,-0.24,-0.05,-0.39,-42.92,14.48,9.51
10839,-8.14,3.30,2.57,-0.24,-0.05,-0.39,-42.92,14.48,9.51
10850,-8.57,4.09,2.89,-0.21,-0.03,-0.30,-42.92,14.48,9.51
10861,-8.57,4.09,2.89,-0.21,-0.03,-0.30,-42.92,14.48,9.51
10872,-8.60,3.45,3.42,-0.28,0.02,-0.27,-42.92,14.48,9.51
10883,-8.34,4.12,3.12,-0.34,0.05,-0.16,-42.92,14.48,9.51
10894,-8.34,4.12,3.12,-0.34,0.05,-0.16,-42.92,14.48,9.51
10905,-8.46,3.49,3.55,-0.38,0.07,-0.05,-42.92,14.48,9.51
10916,-8.46,3.49,3.55,-0.38,0.07,-0.05,-42.92,14.48,9.51
10927,-8.45,3.44,3.47,-0.47,0.11,0.09,-42.92,14.48,9.51
10938,-8.45,3.44,3.47,-0.47,0.11,0.09,-42.92,14.48,9.51
10950,-8.51,3.75,3.95,-0.45,0.07,0.17,-44.63,15.36,7.37
10960,-8.51,3.75,3.95,-0.45,0.07,0.17,-44.63,15.36,7.37
10971,-8.24,3.96,3.55,-0.32,0.08,0.19,-44.63,15.36,7.37
10982,-8.24,3.96,3.55,-0.32,0.08,0.19,-44.63,15.36,7.37
10993,-8.29,3.25,3.62,-0.18,0.09,0.20,-44.63,15.36,7.37
11004,-8.26,3.42,3.96,-0.04,0.10,0.29,-44.63,15.36,7.37
11015,-8.26,3.42,3.96,-0.04,0.10,0.29,-44.63,15.36,7.37
11026,-8.47,3.92,3.57,0.03,0.17,0.36,-44.63,15.36,7.37
11037,-8.47,3.92,3.57,0.03,0.17,0.36,-44.63,15.36,7.37
11053,-8.04,3.78,3.59,0.08,0.16,0.35,-44.63,15.36,7.37
11059,-8.04,3.78,3.59,0.08,0.16,0.35,-44.63,15.36,7.37
11070,-8.02,3.99,3.48,0.16,0.17,0.41,-44.63,15.36,7.37
11081,-8.02,3.99,3.48,0.16,0.17,0.41,-44.63,15.36,7.37
11092,-8.66,4.50,3.76,0.08,0.11,0.40,-40.78,16.82,11.30
11103,-8.76,2.79,4.59,0.06,0.08,0.29,-40.78,16.82,11.30
11114,-8.76,2.79,4.59,0.06,0.08,0.29,-40.78,16.82,11.30
11125,-8.13,4.18,3.26,0.14,0.10,0.35,-40.78,16.82,11.30
11136,-8.13,4.18,3.26,0.14,0.10,0.35,-40.78,16.82,11.30
11147,-8.20,3.74,3.26,0.27,0.09,0.37,-40.78,16.82,11.30
11158,-8.20,3.74,3.26,0.27,0.09,0.37,-40.78,16.82,11.30
11169,-7.67,4.11,3.17,0.22,0.02,0.36,-40.78,16.82,11.30
11180,-7.67,4.11,3.17,0.22,0.02,0.36,-40.78,16.82,11.30
11191,-8.81,4.40,3.95,0.39,0.01,0.39,-40.78,16.82,11.30
11202,-8.81,4.40,3.95,0.39,0.01,0.39,-40.78,16.82,11.30
11213,-8.19,4.08,3.16,0.32,-0.00,0.32,-40.35,16.53,9.15
11225,-8.20,4.86,2.84,0.26,-0.03,0.31,-40.35,16.53,9.15
11235,-8.20,4.86,2.84,0.26,-0.03,0.31,-40.35,16.53,9.15
11246,-8.22,4.47,2.97,0.25,-0.07,0.28,-40.35,16.53,9.15
11257,-8.22,4.47,2.97,0.25,-0.07,0.28,-40.35,16.53,9.15
11268,-8.13,4.20,3.29,0.33,-0.05,0.27,-40.35,16.53,9.15
11279,-8.13,4.20,3.29,0.33,-0.05,0.27,-40.35,16.53,9.15
11290,-8.57,4.96,3.55,0.24,-0.08,0.21,-40.35,16.53,9.15
11301,-8.57,4.96,3.55,0.24,-0.08,0.21,-40.35,16.53,9.15
11312,-8.38,4.65,3.19,0.25,-0.13,0.08,-40.35,16.53,9.15
11323,-8.55,4.53,3.17,0.24,-0.11,0.04,-92.85,16.53,9.15
11334,-8.55,4.53,3.17,0.24,-0.11,0.04,-37.99,18.44,9.69
11350,-8.42,4.95,3.11,0.12,-0.11,-0.03,-37.99,18.44,9.69
11356,-8.42,4.95,3.11,0.12,-0.11,-0.03,-37.99,18.44,9.69
11367,-8.56,4.99,3.27,0.03,-0.15,-0.16,-37.99,18.44,9.69
11378,-8.56,4.99,3.27,0.03,-0.15,-0.16,-37.99,18.44,9.69
11389,-8.54,4.18,3.63,-0.04,-0.10,-0.29,-37.99,18.44,9.69
11400,-8.54,4.18,3.63,-0.04,-0.10,-0.29,-37.99,18.44,9.69
11411,-8.72,4.94,3.57,-0.05,-0.04,-0.31,-37.99,18.44,9.69
11422,-8.72,4.94,3.57,-0.05,-0.04,-0.31,-37.99,18.44,9.69
11433,-8.65,4.06,3.63,-0.09,-0.05,-0.40,-37.99,18.44,9.69
11444,-8.53,4.82,2.89,-0.15,-0.07,-0.46,-37.99,18.44,9.69
11455,-8.53,4.82,2.89,-0.15,-0.07,-0.46,-37.99,18.44,9.69
11466,-8.68,3.73,3.55,-0.11,-0.11,-0.49,-40.35,15.94,9.87
11477,-8.68,3.73,3.55,-0.11,-0.11,-0.49,-40.35,15.94,9.87
11488,-8.45,4.29,3.04,-0.19,-0.11,-0.48,-40.35,15.94,9.87
11499,-8.45,4.29,3.04,-0.19,-0.11,-0.48,-40.35,15.94,9.87
11510,-8.62,3.93,3.78,-0.27,-0.13,-0.54,-40.35,15.94,9.87
11521,-8.62,3.93,3.78,-0.27,-0.13,-0.54,-40.35,15.94,9.87
11532,-8.46,3.99,3.30,-0.36,-0.08,-0.51,-40.35,15.94,9.87
11543,-8.46,3.99,3.30,-0.36,-0.08,-0.51,-40.35,15.94,9.87
11554,-8.35,3.75,3.49,-0.41,-0.06,-0.51,-40.35,15.94,9.87
11565,-8.32,3.64,3.44,-0.39,-0.03,-0.44,-40.35,15.94,9.87
11576,-8.32,3.64,3.44,-0.39,-0.03,-0.44,-40.35,15.94,9.87
11588,-8.45,3.83,3.70,-0.32,0.01,-0.33,-42.71,14.62,10.40
11598,-8.45,3.83,3.70,-0.32,0.01,-0.33,-42.71,14.62,10.40
11609,-8.64,3.36,4.00,-0.27,0.03,-0.30,-42.71,14.62,10.40
11620,-8.64,3.36,4.00,-0.27,0.03,-0.30,-42.71,14.62,10.40
11631,-8.57,3.52,3.31,-0.30,0.03,-0.20,-42.71,14.62,10.40
11642,-8.57,3.52,3.31,-0.30,0.03,-0.20,-42.71,14.62,10.40
11653,-8.48,3.12,3.40,-0.33,0.01,-0.12,-42.71,14.62,10.40
11664,-8.77,3.74,3.38,-0.28,0.05,0.02,-42.71,14.62,10.40
11675,-8.77,3.74,3.38,-0.28,0.05,0.02,-42.71,14.62,10.40
11686,-8.72,3.58,3.43,-0.23,0.13,0.09,-42.71,14.62,10.40
11697,-8.72,3.58,3.43,-0.23,0.13,0.09,-42.71,14.62,10.40
11708,-8.45,3.35,2.87,-0.26,0.17,0.16,-41.42,14.04,11.83
11719,-8.45,3.35,2.87,-0.26,0.17,0.16,-41.42,14.04,11.83
11730,-8.75,4.19,3.71,-0.26,0.14,0.22,-41.42,14.04,11.83
11741,-8.75,4.19,3.71,-0.26,0.14,0.22,-41.42,14.04,11.83
11752,-8.40,3.56,3.49,-0.31,0.15,0.16,-41.42,14.04,11.83
11763,-8.40,3.56,3.49,-0.31,0.15,0.16,-41.42,14.04,11.83
11774,-8.39,3.46,4.00,-0.32,0.13,0.21,-41.42,14.04,11.83
11785,-8.21,3.88,3.75,-0.32,0.15,0.26,-41.42,14.04,11.83
11796,-8.21,3.88,3.75,-0.32,0.15,0.26,-41.42,14.04,11.83
11807,-8.16,3.99,3.73,-0.27,0.15,0.27,-41.42,14.04,11.83
11818,-8.16,3.99,3.73,-0.27,0.15,0.27,-41.42,14.04,11.83
11829,-8.29,3.85,4.26,-0.19,0.14,0.28,-41.42,14.04,11.83
11840,-8.29,3.85,4.26,-0.19,0.14,0.28,-41.42,14.04,11.83
11851,-8.41,3.55,4.27,-0.08,0.15,0.32,-43.13,15.21,12.54
11862,-8.41,3.55,4.27,-0.08,0.15,0.32,-43.13,15.21,12.54
11873,-7.99,3.73,3.82,0.05,0.16,0.36,-43.13,15.21,12.54
11884,-8.21,3.32,3.77,0.14,0.13,0.38,-43.13,15.21,12.54
11895,-8.21,3.32,3.77,0.14,0.13,0.38,-43.13,15.21,12.54
11906,-8.58,3.79,3.98,0.19,0.09,0.43,-43.13,15.21,12.54
11917,-8.58,3.79,3.98,0.19,0.09,0.43,-43.13,15.21,12.54
11928,-8.47,4.01,3.76,0.18,0.05,0.42,-43.13,15.21,12.54
11939,-8.47,4.01,3.76,0.18,0.05,0.42,-43.13,15.21,12.54
11950,-8.06,3.82,3.63,0.16,0.01,0.41,-43.13,15.21,12.54
11961,-8.06,3.82,3.63,0.16,0.01,0.41,-43.13,15.21,12.54
11972,-8.66,3.69,3.91,0.28,-0.03,0.48,-38.85,16.09,10.76
11983,-8.66,3.69,3.91,0.28,-0.03,0.48,-38.85,16.09,10.76
11994,-8.43,4.55,3.58,0.41,-0.02,0.45,-38.85,16.09,10.76
12005,-8.40,4.16,3.72,0.37,-0.05,0.31,-38.85,16.09,10.76
12016,-8.40,4.16,3.72,0.37,-0.05,0.31,-38.85,16.09,10.76
12027,-8.58,4.44,3.22,0.29,-0.09,0.22,-38.85,16.09,10.76
12038,-8.58,4.44,3.22,0.29,-0.09,0.22,-38.85,16.09,10.76
12049,-8.62,4.26,3.42,0.32,-0.11,0.14,-38.85,16.09,10.76
12060,-8.62,4.26,3.42,0.32,-0.11,0.14,-38.85,16.09,10.76
12071,-8.92,4.97,3.00,0.19,-0.12,0.04,-38.85,16.09,10.76
12082,-8.92,4.97,3.00,0.19,-0.12,0.04,-38.85,16.09,10.76
12093,-8.87,4.29,3.77,-0.02,-0.16,-0.18,-38.42,17.26,11.83
12104,-8.26,4.69,3.27,-0.07,-0.10,-0.25,-38.42,17.26,11.83
12115,-8.26,4.69,3.27,-0.07,-0.10,-0.25,-38.42,17.26,11.83
12126,-8.49,4.55,3.66,-0.14,-0.09,-0.35,-38.42,17.26,11.83
12137,-8.49,4.55,3.66,-0.14,-0.09,-0.35,-38.42,17.26,11.83
12148,-8.35,3.77,3.30,-0.07,-0.07,-0.38,-38.42,17.26,11.83
12159,-8.35,3.77,3.30,-0.07,-0.07,-0.38,-38.42,17.26,11.83
12170,-8.61,4.80,3.38,-0.06,-0.11,-0.38,-38.42,17.26,11.83
12181,-8.61,4.80,3.38,-0.06,-0.11,-0.38,-38.42,17.26,11.83
12192,-8.49,3.60,3.71,-0.12,-0.13,-0.50,-38.42,17.26,11.83
12203,-8.49,3.60,3.71,-0.12,-0.13,-0.50,-38.42,17.26,11.83
12215,-8.56,4.26,3.54,-0.12,-0.11,-0.42,-41.21,16.24,12.37
12225,-8.58,3.53,3.80,-0.17,-0.09,-0.45,-41.21,16.24,12.37
12236,-8.58,3.53,3.80,-0.17,-0.09,-0.45,-41.21,16.24,12.37
12247,-8.68,4.06,3.82,-0.17,-0.06,-0.41,-41.21,16.24,12.37
12258,-8.68,4.06,3.82,-0.17,-0.06,-0.41,-41.21,16.24,12.37
12269,-8.41,3.65,3.21,-0.17,-0.06,-0.42,-41.21,16.24,12.37
12280,-8.41,3.65,3.21,-0.17,-0.06,-0.42,-41.21,16.24,12.37
12291,-8.57,3.83,3.54,-0.19,-0.05,-0.40,-41.21,16.24,12.37
12302,-8.57,3.83,3.54,-0.19,-0.05,-0.40,-41.21,16.24,12.37
12313,-8.36,4.07,3.18,-0.21,-0.02,-0.38,-41.21,16.24,12.37
12324,-8.54,3.87,3.82,-0.26,-0.01,-0.42,-41.21,16.24,12.37
12335,-8.54,3.87,3.82,-0.26,-0.01,-0.42,-41.21,16.24,12.37
12346,-8.36,3.66,3.03,-0.30,-0.00,-0.40,-43.78,15.36,13.08
12357,-8.36,3.66,3.03,-0.30,-0.00,-0.40,-43.78,15.36,13.08
12368,-7.93,2.36,2.83,-0.38,0.01,-0.39,-43.78,15.36,13.08
12379,-7.93,2.36,2.83,-0.38,0.01,-0.39,-43.78,15.36,13.08
12390,-8.56,4.16,3.07,-0.36,0.02,-0.19,-43.78,15.36,13.08
12401,-8.56,4.16,3.07,-0.36,0.02,-0.19,-43.78,15.36,13.08
12412,-8.55,2.73,3.23,-0.41,0.06,-0.13,-43.78,15.36,13.08
12423,-8.55,2.73,3.23,-0.41,0.06,-0.13,-43.78,15.36,13.08
12434,-8.54,3.26,3.27,-0.30,0.13,0.07,-43.78,15.36,13.08
12445,-8.68,3.17,3.79,-0.18,0.13,0.15,-43.78,15.36,13.08
12456,-8.68,3.17,3.79,-0.18,0.13,0.15,-43.78,15.36,13.08
12467,-8.42,3.08,3.13,-0.13,0.16,0.21,-43.56,14.33,12.90
12478,-8.42,3.08,3.13,-0.13,0.16,0.21,-43.56,14.33,12.90
12489,-8.62,3.27,3.64,-0.22,0.15,0.24,-43.56,14.33,12.90
12500,-8.62,3.27,3.64,-0.22,0.15,0.24,-43.56,14.33,12.90
12511,-8.52,3.35,3.84,-0.23,0.15,0.30,-43.56,14.33,12.90
12522,-8.52,3.35,3.84,-0.23,0.15,0.30,-43.56,14.33,12.90
12533,-8.39,3.18,4.14,-0.19,0.15,0.34,-43.56,14.33,12.90
12544,-8.39,3.18,4.14,-0.19,0.15,0.34,-43.56,14.33,12.90
12555,-8.18,3.64,3.75,-0.14,0.15,0.38,-43.56,14.33,12.90
12566,-8.43,3.99,3.95,-0.06,0.15,0.41,-43.56,14.33,12.90
12577,-8.43,3.99,3.95,-0.06,0.15,0.41,-43.56,14.33,12.90
12588,-8.29,3.66,4.18,-0.06,0.13,0.40,-42.92,15.65,13.79
12599,-8.29,3.66,4.18,-0.06,0.13,0.40,-42.92,15.65,13.79
12610,-8.20,3.23,4.11,0.16,0.14,0.50,-42.92,15.65,13.79
12621,-8.20,3.23,4.11,0.16,0.14,0.50,-42.92,15.65,13.79
12632,-8.43,3.94,3.96,0.28,0.11,0.55,-42.92,15.65,13.79
12648,-8.43,3.94,3.96,0.28,0.11,0.55,-42.92,15.65,13.79
12654,-8.42,3.73,3.80,0.34,0.10,0.55,-42.92,15.65,13.79
12665,-8.05,4.42,3.68,0.36,0.09,0.56,-42.92,15.65,13.79
12676,-8.05,4.42,3.68,0.36,0.09,0.56,-42.92,15.65,13.79
12687,-8.79,3.78,4.39,0.33,-0.01,0.49,-42.92,15.65,13.79
12698,-8.79,3.78,4.39,0.33,-0.01,0.49,-42.92,15.65,13.79
12709,-8.31,4.34,3.24,0.38,0.00,0.49,-42.92,15.65,13.79
12720,-8.31,4.34,3.24,0.38,0.00,0.49,-42.92,15.65,13.79
12731,-8.12,4.30,3.46,0.38,-0.03,0.47,-39.06,16.82,13.08
12742,-8.12,4.30,3.46,0.38,-0.03,0.47,-39.06,16.82,13.08
12753,-8.60,4.42,3.42,0.38,-0.04,0.40,-39.06,16.82,13.08
12764,-8.60,4.42,3.42,0.38,-0.04,0.40,-39.06,16.82,13.08
12775,-8.43,4.61,3.46,0.34,-0.05,0.29,-39.06,16.82,13.08
12786,-8.87,4.53,3.60,0.30,-0.06,0.17,-39.06,16.82,13.08
12797,-8.87,4.53,3.60,0.30,-0.06,0.17,-39.06,16.82,13.08
12808,-8.45,4.38,3.10,0.10,-0.08,0.00,-39.06,16.82,13.08
12819,-8.45,4.38,3.10,0.10,-0.08,0.00,-39.06,16.82,13.08
12830,-8.35,4.87,3.00,0.12,-0.11,-0.09,-39.06,16.82,13.08
12842,-8.35,4.87,3.00,0.12,-0.11,-0.09,-39.06,16.82,13.08
12852,-8.57,3.89,3.62,0.02,-0.16,-0.24,-39.28,16.97,12.54
12863,-8.57,3.89,3.62,0.02,-0.16,-0.24,-39.28,16.97,12.54
12874,-8.67,5.33,3.26,-0.10,-0.11,-0.27,-39.28,16.97,12.54
12885,-8.73,3.56,3.69,-0.18,-0.12,-0.43,-39.28,16.97,12.54
12896,-8.73,3.56,3.69,-0.18,-0.12,-0.43,-39.28,16.97,12.54
12907,-8.91,4.23,3.81,-0.24,-0.08,-0.41,-39.28,16.97,12.54
12918,-8.91,4.23,3.81,-0.24,-0.08,-0.41,-39.28,16.97,12.54
12929,-8.29,3.96,3.26,-0.22,-0.05,-0.45,-39.28,16.97,12.54
12940,-8.29,3.96,3.26,-0.22,-0.05,-0.45,-39.28,16.97,12.54
12951,-8.55,4.39,3.43,-0.13,-0.05,-0.45,-39.28,16.97,12.54
12962,-8.55,4.39,3.43,-0.13,-0.05,-0.45,-39.28,16.97,12.54
12973,-8.40,3.77,3.70,-0.15,-0.05,-0.53,-41.42,16.09,12.19
12984,-8.40,3.77,3.70,-0.15,-0.05,-0.53,-41.42,16.09,12.19
12995,-8.41,3.78,3.38,-0.15,-0.05,-0.48,-41.42,16.09,12.19
13006,-8.50,4.20,3.48,-0.23,-0.07,-0.44,-41.42,16.09,12.19
13017,-8.50,4.20,3.48,-0.23,-0.07,-0.44,-41.42,16.09,12.19
13028,-8.40,3.62,3.14,-0.22,-0.07,-0.43,-41.42,16.09,12.19
13039,-8.40,3.62,3.14,-0.22,-0.07,-0.43,-41.42,16.09,12.19
13050,-8.10,4.06,3.18,-0.29,-0.05,-0.44,-41.42,16.09,12.19
13061,-8.10,4.06,3.18,-0.29,-0.05,-0.44,-41.42,16.09,12.19
13072,-8.19,3.88,3.33,-0.24,-0.06,-0.38,-41.42,16.09,12.19
13083,-8.19,3.88,3.33,-0.24,-0.06,-0.38,-41.42,16.09,12.19
13094,-8.66,3.62,3.60,-0.26,-0.00,-0.37,-41.42,16.09,12.19
13105,-8.31,3.33,3.36,-0.34,0.02,-0.38,-43.56,14.33,10.76
13116,-8.31,3.33,3.36,-0.34,0.02,-0.38,-43.56,14.33,10.76
13127,-8.40,3.61,2.65,-0.34,0.03,-0.25,-43.56,14.33,10.76
13138,-8.40,3.61,2.65,-0.34,0.03,-0.25,-43.56,14.33,10.76
13149,-8.78,3.16,3.78,-0.29,0.01,-0.17,-43.56,14.33,10.76
13160,-8.78,3.16,3.78,-0.29,0.01,-0.17,-43.56,14.33,10.76
13171,-8.33,2.92,3.25,-0.31,0.06,-0.10,-43.56,14.33,10.76
13182,-8.33,2.92,3.25,-0.31,0.06,-0.10,-43.56,14.33,10.76
13193,-8.75,3.34,3.77,-0.30,0.10,0.05,-43.56,14.33,10.76
13204,-8.75,3.34,3.77,-0.30,0.10,0.05,-43.56,14.33,10.76
13215,-8.45,3.06,3.38,-0.28,0.15,0.17,-43.56,14.33,10.76
13226,-8.51,3.32,3.66,-0.20,0.14,0.21,-40.99,14.92,13.61
13237,-8.51,3.32,3.66,-0.20,0.14,0.21,-40.99,14.92,13.61
13248,-8.74,3.87,3.93,-0.13,0.12,0.19,-40.99,14.92,13.61
13259,-8.74,3.87,3.93,-0.13,0.12,0.19,-40.99,14.92,13.61
13270,-8.58,3.04,3.73,-0.14,0.14,0.17,-40.99,14.92,13.61
13281,-8.58,3.04,3.73,-0.14,0.14,0.17,-40.99,14.92,13.61
13292,-8.39,3.19,3.34,-0.19,0.18,0.28,-40.99,14.92,13.61
13303,-8.39,3.19,3.34,-0.19,0.18,0.28,-40.99,14.92,13.61
13315,-8.35,3.40,3.75,-0.22,0.15,0.33,-40.99,14.92,13.61
13325,-8.44,3.82,4.15,-0.18,0.15,0.37,-40.99,14.92,13.61
13336,-8.44,3.82,4.15,-0.18,0.15,0.37,-40.99,14.92,13.61
13347,-8.37,3.65,3.85,-0.14,0.13,0.37,-43.35,14.48,13.79
13358,-8.37,3.65,3.85,-0.14,0.13,0.37,-43.35,14.48,13.79
13369,-8.43,3.54,4.02,-0.02,0.14,0.38,-43.35,14.48,13.79
13380,-8.43,3.54,4.02,-0.02,0.14,0.38,-43.35,14.48,13.79
13391,-8.31,3.73,3.77,0.12,0.16,0.45,-43.35,14.48,13.79
13402,-8.31,3.73,3.77,0.12,0.16,0.45,-43.35,14.48,13.79
13413,-8.20,3.71,4.29,0.13,0.09,0.43,-43.35,14.48,13.79
13424,-8.20,3.71,4.29,0.13,0.09,0.43,-43.35,14.48,13.79
13435,-7.59,3.57,3.93,0.22,0.07,0.43,-43.35,14.48,13.79
13446,-8.47,3.60,3.66,0.47,0.12,0.58,-43.35,14.48,13.79
13457,-8.47,3.60,3.66,0.47,0.12,0.58,-43.35,14.48,13.79
13468,-8.41,4.22,3.65,0.45,0.09,0.57,-40.56,17.56,12.90
13479,-8.41,4.22,3.65,0.45,0.09,0.57,-40.56,17.56,12.90
13490,-8.13,4.25,3.86,0.30,-0.01,0.43,-40.56,17.56,12.90
13501,-8.13,4.25,3.86,0.30,-0.01,0.43,-40.56,17.56,12.90
13512,-8.77,4.08,3.76,0.33,-0.03,0.40,-40.56,17.56,12.90
13523,-8.77,4.08,3.76,0.33,-0.03,0.40,-40.56,17.56,12.90
13534,-8.78,4.22,3.55,0.38,-0.03,0.34,-40.56,17.56,12.90
13545,-8.78,4.22,3.55,0.38,-0.03,0.34,-40.56,17.56,12.90
13556,-8.47,4.11,3.11,0.29,-0.09,0.21,-40.56,17.56,12.90
13567,-8.63,4.38,3.25,0.22,-0.12,0.11,-40.56,17.56,12.90
13578,-8.63,4.38,3.25,0.22,-0.12,0.11,-40.56,17.56,12.90
13589,-8.62,4.27,3.15,0.17,-0.13,0.04,-40.56,17.56,12.90
13600,-8.62,4.27,3.15,0.17,-0.13,0.04,-40.56,17.56,12.90
13611,-8.59,4.62,3.16,0.09,-0.13,-0.02,-39.28,17.26,12.90
13622,-8.59,4.62,3.16,0.09,-0.13,-0.02,-39.28,17.26,12.90
13634,-8.60,4.74,3.39,0.04,-0.17,-0.12,-39.28,17.26,12.90
13644,-8.60,4.74,3.39,0.04,-0.17,-0.12,-39.28,17.26,12.90
13655,-8.61,4.78,3.46,-0.13,-0.18,-0.27,-39.28,17.26,12.90
13666,-8.66,4.37,4.00,-0.22,-0.16,-0.43,-39.28,17.26,12.90
13677,-8.66,4.37,4.00,-0.22,-0.16,-0.43,-39.28,17.26,12.90
13688,-8.28,3.98,3.35,-0.20,-0.12,-0.46,-39.28,17.26,12.90
13699,-8.28,3.98,3.35,-0.20,-0.12,-0.46,-39.28,17.26,12.90
13710,-8.77,3.99,4.07,-0.16,-0.10,-0.44,-39.28,17.26,12.90
13721,-8.77,3.99,4.07,-0.16,-0.10,-0.44,-39.28,17.26,12.90
13732,-8.60,3.78,3.62,-0.21,-0.10,-0.51,-40.99,16.68,13.26
13743,-8.60,3.78,3.62,-0.21,-0.10,-0.51,-40.99,16.68,13.26
13754,-8.44,3.71,3.68,-0.24,-0.12,-0.55,-40.99,16.68,13.26
13765,-8.44,3.71,3.68,-0.24,-0.12,-0.55,-40.99,16.68,13.26
13776,-8.50,3.93,3.71,-0.27,-0.11,-0.57,-40.99,16.68,13.26
13787,-8.79,3.37,3.80,-0.28,-0.11,-0.57,-40.99,16.68,13.26
13798,-8.79,3.37,3.80,-0.28,-0.11,-0.57,-40.99,16.68,13.26
13809,-8.46,3.80,3.36,-0.33,-0.04,-0.50,-40.99,16.68,13.26
13820,-8.46,3.80,3.36,-0.33,-0.04,-0.50,-40.99,16.68,13.26
13831,-8.43,3.56,3.15,-0.32,-0.05,-0.46,-40.99,16.68,13.26
13847,-8.43,3.56,3.15,-0.32,-0.05,-0.46,-40.99,16.68,13.26
13853,-8.39,3.66,3.35,-0.31,-0.01,-0.42,-43.56,14.62,13.97
13864,-8.39,3.66,3.35,-0.31,-0.01,-0.42,-43.56,14.62,13.97
13875,-8.59,3.68,3.72,-0.32,0.03,-0.39,-43.56,14.62,13.97
13886,-8.44,3.10,3.60,-0.34,0.03,-0.35,-43.56,14.62,13.97
13897,-8.44,3.10,3.60,-0.34,0.03,-0.35,-43.56,14.62,13.97
13908,-8.39,3.04,3.29,-0.34,0.06,-0.24,-43.56,14.62,13.97
13919,-8.39,3.04,3.29,-0.34,0.06,-0.24,-43.56,14.62,13.97
13930,-8.48,3.32,3.55,-0.21,0.08,-0.10,-43.56,14.62,13.97
13941,-8.48,3.32,3.55,-0.21,0.08,-0.10,-43.56,14.62,13.97
13952,-8.55,3.39,3.59,-0.14,0.10,-0.00,-43.56,14.62,13.97
13963,-8.55,3.39,3.59,-0.14,0.10,-0.00,-43.56,14.62,13.97
13974,-8.50,2.92,3.56,-0.14,0.09,0.02,-43.56,14.62,13.97
13990,-8.50,2.92,3.56,-0.14,0.09,0.02,-43.56,14.62,13.97
13996,-8.68,2.93,3.60,-0.15,0.11,0.09,-42.28,14.92,15.40
14007,-8.56,3.16,3.29,-0.18,0.15,0.16,-42.28,14.92,15.40
14018,-8.56,3.16,3.29,-0.18,0.15,0.16,-42.28,14.92,15.40
14029,-8.69,3.27,3.56,-0.21,0.14,0.20,-42.28,14.92,15.40
14040,-8.69,3.27,3.56,-0.21,0.14,0.20,-42.28,14.92,15.40
14051,-8.62,2.93,3.81,-0.21,0.16,0.22,-42.28,14.92,15.40
14062,-8.62,2.93,3.81,-0.21,0.16,0.22,-42.28,14.92,15.40
14073,-8.58,3.42,3.90,-0.11,0.17,0.29,-42.28,14.92,15.40
14084,-8.58,3.42,3.90,-0.11,0.17,0.29,-42.28,14.92,15.40
14095,-8.17,3.11,3.92,-0.09,0.19,0.32,-42.28,14.92,15.40
14106,-8.27,3.73,3.90,-0.06,0.16,0.38,-43.35,14.18,17.36
14117,-8.27,3.73,3.90,-0.06,0.16,0.38,-43.35,14.18,17.36
14128,-8.32,3.29,4.22,-0.05,0.16,0.42,-43.35,14.18,17.36
14139,-8.32,3.29,4.22,-0.05,0.16,0.42,-43.35,14.18,17.36
14150,-7.86,3.52,3.82,0.02,0.15,0.53,-43.35,14.18,17.36
14161,-7.86,3.52,3.82,0.02,0.15,0.53,-43.35,14.18,17.36
14172,-8.55,3.74,4.07,0.12,0.14,0.56,-43.35,14.18,17.36
14183,-8.55,3.74,4.07,0.12,0.14,0.56,-43.35,14.18,17.36
14194,-8.59,3.68,4.44,0.24,0.08,0.52,-43.35,14.18,17.36
14205,-8.59,3.68,4.44,0.24,0.08,0.52,-43.35,14.18,17.36
14216,-8.02,3.47,4.18,0.34,0.08,0.55,-43.35,14.18,17.36
14227,-8.11,3.93,3.59,0.39,0.06,0.67,-42.06,16.24,15.22
14238,-8.11,3.93,3.59,0.39,0.06,0.67,-42.06,16.24,15.22
14249,-8.33,4.13,3.76,0.46,0.02,0.66,-42.06,16.24,15.22
14260,-8.33,4.13,3.76,0.46,0.02,0.66,-42.06,16.24,15.22
14271,-8.37,4.80,3.50,0.44,0.00,0.48,-42.06,16.24,15.22
14282,-8.37,4.80,3.50,0.44,0.00,0.48,-42.06,16.24,15.22
14293,-8.06,3.79,3.44,0.46,-0.06,0.33,-42.06,16.24,15.22
14304,-8.06,3.79,3.44,0.46,-0.06,0.33,-42.06,16.24,15.22
14315,-8.27,4.42,3.09,0.46,-0.04,0.36,-42.06,16.24,15.22
14326,-8.82,4.54,3.56,0.40,-0.07,0.23,-42.06,16.24,15.22
14337,-8.82,4.54,3.56,0.40,-0.07,0.23,-42.06,16.24,15.22
14348,-9.00,4.20,3.43,0.22,-0.08,0.03,-42.06,16.24,15.22
14359,-9.00,4.20,3.43,0.22,-0.08,0.03,-42.06,16.24,15.22
14370,-8.87,5.05,3.03,0.05,-0.09,-0.11,-40.13,18.44,11.12
14381,-8.87,5.05,3.03,0.05,-0.09,-0.11,-40.13,18.44,11.12
14392,-8.61,4.04,3.75,-0.27,-0.19,-0.40,-40.13,18.44,11.12
14403,-8.61,4.04,3.75,-0.27,-0.19,-0.40,-40.13,18.44,11.12
14414,-7.91,4.23,3.18,-0.44,-0.16,-0.49,-40.13,18.44,11.12
14425,-7.91,4.23,3.18,-0.44,-0.16,-0.49,-40.13,18.44,11.12
14436,-8.75,4.37,3.44,-0.33,-0.18,-0.49,-40.13,18.44,11.12
14447,-8.33,4.09,2.94,-0.26,-0.14,-0.58,-40.13,18.44,11.12
14458,-8.33,4.09,2.94,-0.26,-0.14,-0.58,-40.13,18.44,11.12
14469,-8.55,3.58,3.58,-0.23,-0.14,-0.64,-40.13,18.44,11.12
14480,-8.55,3.58,3.58,-0.23,-0.14,-0.64,-40.13,18.44,11.12
14491,-9.10,3.72,4.17,-0.16,-0.09,-0.61,-41.63,16.53,14.86
14502,-9.10,3.72,4.17,-0.16,-0.09,-0.61,-41.63,16.53,14.86
14513,-8.56,2.93,3.60,-0.07,-0.03,-0.64,-41.63,16.53,14.86
14524,-8.56,2.93,3.60,-0.07,-0.03,-0.64,-41.63,16.53,14.86
14535,-8.34,3.84,2.93,-0.08,-0.01,-0.56,-41.63,16.53,14.86
14547,-8.89,3.67,3.67,-0.18,-0.05,-0.54,-41.63,16.53,14.86
14557,-8.89,3.67,3.67,-0.18,-0.05,-0.54,-41.63,16.53,14.86
14568,-8.40,2.91,3.34,-0.30,-0.01,-0.54,-41.63,16.53,14.86
14579,-8.40,2.91,3.34,-0.30,-0.01,-0.54,-41.63,16.53,14.86
14590,-8.50,3.17,3.33,-0.32,-0.02,-0.44,-41.63,16.53,14.86
14601,-8.50,3.17,3.33,-0.32,-0.02,-0.44,-41.63,16.53,14.86
14612,-8.46,3.15,3.65,-0.35,0.01,-0.36,-43.13,14.04,14.68
14623,-8.46,3.15,3.65,-0.35,0.01,-0.36,-43.13,14.04,14.68
14634,-8.59,3.06,4.22,-0.42,0.01,-0.28,-43.13,14.04,14.68
14645,-8.59,3.06,4.22,-0.42,0.01,-0.28,-43.13,14.04,14.68
14656,-8.80,2.76,4.27,-0.38,0.06,-0.17,-43.13,14.04,14.68
14667,-8.37,2.78,3.39,-0.34,0.10,-0.07,-43.13,14.04,14.68
14678,-8.37,2.78,3.39,-0.34,0.10,-0.07,-43.13,14.04,14.68
14689,-8.47,3.21,3.50,-0.25,0.15,0.11,-43.13,14.04,14.68
14700,-8.47,3.21,3.50,-0.25,0.15,0.11,-43.13,14.04,14.68
14711,-8.62,3.10,3.66,-0.21,0.16,0.24,-43.13,14.04,14.68
14722,-8.62,3.10,3.66,-0.21,0.16,0.24,-43.13,14.04,14.68
14733,-8.52,3.30,3.58,-0.19,0.15,0.30,-43.13,13.74,15.04
14744,-8.52,3.30,3.58,-0.19,0.15,0.30,-43.13,13.74,15.04
14760,-8.41,2.91,4.10,-0.19,0.11,0.28,-43.13,13.74,15.04
14766,-8.41,2.91,4.10,-0.19,0.11,0.28,-43.13,13.74,15.04
14777,-8.17,3.28,3.45,-0.14,0.16,0.32,-43.13,13.74,15.04
14788,-8.31,3.22,3.48,-0.05,0.16,0.37,-43.13,13.74,15.04
14799,-8.31,3.22,3.48,-0.05,0.16,0.37,-43.13,13.74,15.04
14810,-8.82,3.50,3.94,-0.04,0.16,0.43,-43.13,13.74,15.04
14821,-8.82,3.50,3.94,-0.04,0.16,0.43,-43.13,13.74,15.04
14832,-8.22,3.34,3.77,-0.07,0.15,0.46,-43.13,13.74,15.04
14843,-8.22,3.34,3.77,-0.07,0.15,0.46,-43.13,13.74,15.04
14854,-8.17,3.65,3.99,-0.07,0.16,0.51,-43.13,13.74,15.04
14865,-8.17,3.65,3.99,-0.07,0.16,0.51,-43.13,13.74,15.04
14876,-8.42,3.95,3.96,0.04,0.12,0.52,-41.21,15.65,14.86
14887,-8.38,3.55,3.82,0.10,0.11,0.48,-41.21,15.65,14.86
14898,-8.38,3.55,3.82,0.10,0.11,0.48,-41.21,15.65,14.86
14909,-8.21,3.86,3.39,0.27,0.12,0.53,-41.21,15.65,14.86
14920,-8.21,3.86,3.39,0.27,0.12,0.53,-41.21,15.65,14.86
14931,-8.90,3.54,4.22,0.43,0.11,0.54,-41.21,15.65,14.86
14942,-8.90,3.54,4.22,0.43,0.11,0.54,-41.21,15.65,14.86
14953,-8.39,4.34,3.38,0.43,0.10,0.50,-41.21,15.65,14.86
14964,-8.39,4.34,3.38,0.43,0.10,0.50,-41.21,15.65,14.86
14975,-8.29,3.71,3.50,0.37,0.01,0.44,-41.21,15.65,14.86
14986,-8.29,3.71,3.50,0.37,0.01,0.44,-41.21,15.65,14.86
14997,-8.38,4.24,3.73,0.28,-0.04,0.45,-38.85,16.68,13.61
15008,-8.87,3.87,3.91,0.35,-0.05,0.43,-38.85,16.68,13.61
15019,-8.87,3.87,3.91,0.35,-0.05,0.43,-38.85,16.68,13.61
15030,-8.60,4.41,3.49,0.38,-0.06,0.37,-38.85,16.68,13.61
15041,-8.60,4.41,3.49,0.38,-0.06,0.37,-38.85,16.68,13.61
15052,-8.70,4.19,3.62,0.32,-0.11,0.22,-38.85,16.68,13.61
15063,-8.70,4.19,3.62,0.32,-0.11,0.22,-38.85,16.68,13.61
15074,-8.26,4.32,3.13,0.32,-0.13,0.17,-38.85,16.68,13.61
15085,-8.26,4.32,3.13,0.32,-0.13,0.17,-38.85,16.68,13.61
15096,-8.53,4.63,3.11,0.25,-0.16,0.11,-38.85,16.68,13.61
15107,-8.70,4.54,3.20,0.16,-0.12,0.01,-36.92,17.70,12.01
15118,-8.70,4.54,3.20,0.16,-0.12,0.01,-36.92,17.70,12.01
15129,-8.58,4.95,3.15,0.14,-0.09,-0.08,-36.92,17.70,12.01
15140,-8.58,4.95,3.15,0.14,-0.09,-0.08,-36.92,17.70,12.01
15151,-8.55,4.89,3.74,-0.10,-0.17,-0.26,-36.92,17.70,12.01
15162,-8.55,4.89,3.74,-0.10,-0.17,-0.26,-36.92,17.70,12.01
15173,-8.65,4.12,3.80,-0.19,-0.14,-0.39,-36.92,17.70,12.01
15184,-8.65,4.12,3.80,-0.19,-0.14,-0.39,-36.92,17.70,12.01
15195,-8.62,4.10,4.02,-0.10,-0.14,-0.43,-36.92,17.70,12.01
15206,-8.62,4.10,4.02,-0.10,-0.14,-0.43,-36.92,17.70,12.01
15217,-8.53,4.35,3.61,-0.11,-0.15,-0.47,-36.92,17.70,12.01
15228,-8.55,3.50,3.55,-0.15,-0.16,-0.50,-36.92,17.70,12.01
15244,-8.55,3.50,3.55,-0.15,-0.16,-0.50,-36.92,17.70,12.01
15250,-8.70,4.29,3.68,-0.16,-0.11,-0.46,-39.49,16.82,14.51
15261,-8.70,4.29,3.68,-0.16,-0.11,-0.46,-39.49,16.82,14.51
15272,-8.49,4.06,3.47,-0.23,-0.07,-0.53,-39.49,16.82,14.51
15283,-8.49,4.06,3.47,-0.23,-0.07,-0.53,-39.49,16.82,14.51
15294,-8.24,3.75,2.99,-0.24,-0.05,-0.51,-39.49,16.82,14.51
15305,-8.24,3.75,2.99,-0.24,-0.05,-0.51,-39.49,16.82,14.51
15316,-8.36,3.10,3.39,-0.24,-0.05,-0.48,-39.49,16.82,14.51
15327,-8.95,4.45,3.55,-0.29,-0.01,-0.42,-39.49,16.82,14.51
15338,-8.95,4.45,3.55,-0.29,-0.01,-0.42,-39.49,16.82,14.51
15349,-8.96,3.18,4.07,-0.39,0.01,-0.53,-39.49,16.82,14.51
15360,-8.96,3.18,4.07,-0.39,0.01,-0.53,-39.49,16.82,14.51
15371,-9.06,3.46,3.65,-0.45,0.02,-0.51,-42.06,15.65,16.29
15382,-9.06,3.46,3.65,-0.45,0.02,-0.51,-42.06,15.65,16.29
15393,-8.40,2.82,3.38,-0.41,0.04,-0.52,-42.06,15.65,16.29
15404,-8.40,2.82,3.38,-0.41,0.04,-0.52,-42.06,15.65,16.29
15415,-8.59,3.11,3.87,-0.37,0.04,-0.42,-42.06,15.65,16.29
15426,-8.59,3.11,3.87,-0.37,0.04,-0.42,-42.06,15.65,16.29
15437,-8.43,2.95,3.81,-0.35,0.02,-0.30,-42.06,15.65,16.29
15448,-8.55,2.68,3.68,-0.31,0.08,-0.13,-42.06,15.65,16.29
15459,-8.55,2.68,3.68,-0.31,0.08,-0.13,-42.06,15.65,16.29
15470,-8.71,3.20,4.04,-0.23,0.12,0.03,-42.06,15.65,16.29
15481,-8.71,3.20,4.04,-0.23,0.12,0.03,-42.06,15.65,16.29
15492,-8.49,3.30,3.45,-0.20,0.20,0.13,-40.78,14.77,15.22
15504,-8.49,3.30,3.45,-0.20,0.20,0.13,-40.78,14.77,15.22
15514,-8.47,3.28,3.62,-0.21,0.18,0.22,-40.78,14.77,15.22
15525,-8.47,3.28,3.62,-0.21,0.18,0.22,-40.78,14.77,15.22
15536,-8.84,3.07,3.92,-0.21,0.15,0.30,-40.78,14.77,15.22
15547,-8.17,3.43,3.60,-0.13,0.16,0.38,-40.78,14.77,15.22
15558,-8.17,3.43,3.60,-0.13,0.16,0.38,-40.78,14.77,15.22
15569,-8.04,3.87,3.55,-0.02,0.17,0.43,-40.78,14.77,15.22
15580,-8.04,3.87,3.55,-0.02,0.17,0.43,-40.78,14.77,15.22
15591,-8.21,4.05,3.47,-0.05,0.15,0.40,-40.78,14.77,15.22
15602,-8.21,4.05,3.47,-0.05,0.15,0.40,-40.78,14.77,15.22
15613,-8.58,3.32,4.27,0.04,0.15,0.41,-40.78,14.77,15.22
15624,-8.58,3.32,4.27,0.04,0.15,0.41,-40.78,14.77,15.22
15635,-8.76,3.70,3.68,0.11,0.20,0.46,-40.56,13.74,15.04
15646,-8.76,3.70,3.68,0.11,0.20,0.46,-40.56,13.74,15.04
15657,-8.37,3.19,3.96,0.11,0.14,0.42,-40.56,13.74,15.04
15668,-8.81,3.97,3.84,0.06,0.09,0.44,-40.56,13.74,15.04
15679,-8.81,3.97,3.84,0.06,0.09,0.44,-40.56,13.74,15.04
15690,-8.48,3.17,3.96,0.11,0.05,0.43,-40.56,13.74,15.04
15701,-8.48,3.17,3.96,0.11,0.05,0.43,-40.56,13.74,15.04
15712,-8.40,3.54,3.68,0.23,0.06,0.53,-40.56,13.74,15.04
15723,-8.40,3.54,3.68,0.23,0.06,0.53,-40.56,13.74,15.04
15734,-9.04,4.09,3.96,0.48,0.06,0.55,-40.56,13.74,15.04
15745,-9.04,4.09,3.96,0.48,0.06,0.55,-40.56,13.74,15.04
15756,-8.82,4.33,4.30,0.48,-0.01,0.41,-40.56,16.97,15.04
15767,-8.82,4.33,4.30,0.48,-0.01,0.41,-40.56,16.97,15.04
15778,-7.98,3.96,4.00,0.43,-0.10,0.31,-40.56,16.97,15.04
15789,-8.78,4.42,3.46,0.46,-0.11,0.28,-40.56,16.97,15.04
15800,-8.78,4.42,3.46,0.46,-0.11,0.28,-40.56,16.97,15.04
15811,-8.67,4.05,3.85,0.36,-0.12,0.12,-40.56,16.97,15.04
15822,-8.67,4.05,3.85,0.36,-0.12,0.12,-40.56,16.97,15.04
15833,-8.92,4.08,3.56,0.33,-0.12,0.03,-40.56,16.97,15.04
15844,-8.92,4.08,3.56,0.33,-0.12,0.03,-40.56,16.97,15.04
15855,-8.94,3.98,2.97,0.23,-0.11,-0.04,-40.56,16.97,15.04
15866,-8.94,3.98,2.97,0.23,-0.11,-0.04,-40.56,16.97,15.04
15877,-8.97,4.56,3.39,0.10,-0.16,-0.15,-36.92,17.12,13.08
15888,-8.84,4.24,3.85,-0.09,-0.18,-0.30,-36.92,17.12,13.08
15899,-8.84,4.24,3.85,-0.09,-0.18,-0.30,-36.92,17.12,13.08
15910,-8.34,4.49,3.06,-0.26,-0.16,-0.43,-36.92,17.12,13.08
15921,-8.34,4.49,3.06,-0.26,-0.16,-0.43,-36.92,17.12,13.08
15932,-8.59,4.29,3.64,-0.27,-0.18,-0.51,-36.92,17.12,13.08
15943,-8.59,4.29,3.64,-0.27,-0.18,-0.51,-36.92,17.12,13.08
15954,-8.28,3.71,3.19,-0.28,-0.20,-0.58,-36.92,17.12,13.08
15965,-8.28,3.71,3.19,-0.28,-0.20,-0.58,-36.92,17.12,13.08
15976,-8.37,4.43,3.49,-0.20,-0.20,-0.56,-36.92,17.12,13.08
15987,-8.37,4.43,3.49,-0.20,-0.20,-0.56,-36.92,17.12,13.08
15998,-8.68,4.00,3.55,-0.09,-0.10,-0.54,-39.06,15.06,14.51
16009,-8.17,3.49,2.86,-0.11,-0.03,-0.56,-39.06,15.06,14.51
16020,-8.17,3.49,2.86,-0.11,-0.03,-0.56,-39.06,15.06,14.51
16031,-8.42,3.40,3.32,-0.21,-0.04,-0.56,-39.06,15.06,14.51
16042,-8.42,3.40,3.32,-0.21,-0.04,-0.56,-39.06,15.06,14.51
16053,-8.27,3.06,3.13,-0.32,-0.01,-0.50,-39.06,15.06,14.51
16064,-8.27,3.06,3.13,-0.32,-0.01,-0.50,-39.06,15.06,14.51
16075,-8.31,3.30,3.45,-0.40,-0.01,-0.39,-39.06,15.06,14.51
16086,-8.31,3.30,3.45,-0.40,-0.01,-0.39,-39.06,15.06,14.51
16097,-8.55,3.14,3.66,-0.44,0.04,-0.31,-39.06,15.06,14.51
16108,-8.77,3.33,3.45,-0.44,0.09,-0.17,-39.06,15.06,14.51
16119,-8.77,3.33,3.45,-0.44,0.09,-0.17,-39.06,15.06,14.51
16130,-8.35,2.66,3.54,-0.48,0.10,-0.07,-41.63,13.89,14.86
16141,-8.35,2.66,3.54,-0.48,0.10,-0.07,-41.63,13.89,14.86
16152,-8.42,3.48,3.39,-0.40,0.13,0.09,-41.63,13.89,14.86
16163,-8.42,3.48,3.39,-0.40,0.13,0.09,-41.63,13.89,14.86
16174,-8.42,3.24,3.69,-0.23,0.15,0.19,-41.63,13.89,14.86
16185,-8.42,3.24,3.69,-0.23,0.15,0.19,-41.63,13.89,14.86
16196,-8.55,3.25,3.94,-0.18,0.15,0.25,-41.63,13.89,14.86
16207,-8.55,3.25,3.94,-0.18,0.15,0.25,-41.63,13.89,14.86
16218,-8.54,3.26,3.84,-0.15,0.20,0.28,-41.63,13.89,14.86
16229,-8.58,3.78,3.72,-0.10,0.22,0.33,-41.63,13.89,14.86
16240,-8.58,3.78,3.72,-0.10,0.22,0.33,-41.63,13.89,14.86
16251,-8.55,3.51,3.52,-0.14,0.17,0.31,-39.71,14.62,16.83
16262,-8.55,3.51,3.52,-0.14,0.17,0.31,-39.71,14.62,16.83
16274,-8.56,3.14,3.92,-0.14,0.13,0.34,-39.71,14.62,16.83
16284,-8.56,3.14,3.92,-0.14,0.13,0.34,-39.71,14.62,16.83
16300,-8.35,3.64,4.02,-0.08,0.14,0.42,-39.71,14.62,16.83
16306,-8.35,3.64,4.02,-0.08,0.14,0.42,-39.71,14.62,16.83
16317,-8.50,3.17,4.05,0.09,0.19,0.47,-39.71,14.62,16.83
16328,-8.33,3.92,3.96,0.21,0.20,0.52,-39.71,14.62,16.83
16339,-8.33,3.92,3.96,0.21,0.20,0.52,-39.71,14.62,16.83
16350,-7.95,4.11,3.35,0.12,0.16,0.48,-39.71,14.62,16.83
16361,-7.95,4.11,3.35,0.12,0.16,0.48,-39.71,14.62,16.83
16372,-8.25,3.80,4.04,0.10,0.08,0.42,-40.99,16.09,15.76
16383,-8.25,3.80,4.04,0.10,0.08,0.42,-40.99,16.09,15.76
16394,-8.02,3.65,3.60,0.23,0.09,0.45,-40.99,16.09,15.76
16405,-8.02,3.65,3.60,0.23,0.09,0.45,-40.99,16.09,15.76
16416,-8.42,3.83,3.64,0.36,0.10,0.49,-40.99,16.09,15.76
16427,-8.42,3.83,3.64,0.36,0.10,0.49,-40.99,16.09,15.76
16438,-8.77,3.86,3.47,0.52,0.10,0.49,-40.99,16.09,15.76
16449,-8.48,4.46,3.63,0.55,0.05,0.50,-40.99,16.09,15.76
16460,-8.48,4.46,3.63,0.55,0.05,0.50,-40.99,16.09,15.76
16471,-8.77,4.31,3.74,0.35,-0.06,0.36,-40.99,16.09,15.76
16482,-8.77,4.31,3.74,0.35,-0.06,0.36,-40.99,16.09,15.76
16493,-8.80,4.18,3.60,0.29,-0.10,0.23,-40.99,16.09,15.76
16504,-8.80,4.18,3.60,0.29,-0.10,0.23,-40.99,16.09,15.76
16515,-8.66,4.65,2.96,0.17,-0.12,0.11,-38.21,18.29,14.15
16526,-8.66,4.65,2.96,0.17,-0.12,0.11,-38.21,18.29,14.15
16537,-8.92,4.06,3.51,0.09,-0.17,-0.04,-38.21,18.29,14.15
16548,-8.84,4.64,3.45,-0.01,-0.15,-0.14,-38.21,18.29,14.15
16559,-8.84,4.64,3.45,-0.01,-0.15,-0.14,-38.21,18.29,14.15
16570,-8.40,4.32,3.57,-0.23,-0.21,-0.35,-38.21,18.29,14.15
16581,-8.40,4.32,3.57,-0.23,-0.21,-0.35,-38.21,18.29,14.15
16592,-8.54,4.38,3.54,-0.22,-0.18,-0.43,-38.21,18.29,14.15
16603,-8.54,4.38,3.54,-0.22,-0.18,-0.43,-38.21,18.29,14.15
16614,-8.65,4.46,3.69,-0.17,-0.15,-0.47,-38.21,18.29,14.15
16625,-8.65,4.46,3.69,-0.17,-0.15,-0.47,-38.21,18.29,14.15
16636,-8.83,3.88,3.64,-0.10,-0.18,-0.57,-38.21,16.24,14.86
16647,-8.83,3.88,3.64,-0.10,-0.18,-0.57,-38.21,16.24,14.86
16659,-8.64,3.93,3.44,-0.16,-0.11,-0.57,-38.21,16.24,14.86
16669,-8.63,4.56,3.14,-0.14,-0.05,-0.51,-38.21,16.24,14.86
16680,-8.63,4.56,3.14,-0.14,-0.05,-0.51,-38.21,16.24,14.86
16691,-8.95,3.64,3.49,-0.12,-0.01,-0.52,-38.21,16.24,14.86
16702,-8.95,3.64,3.49,-0.12,-0.01,-0.52,-38.21,16.24,14.86
16713,-8.96,3.49,4.11,-0.24,-0.01,-0.55,-38.21,16.24,14.86
16724,-8.96,3.49,4.11,-0.24,-0.01,-0.55,-38.21,16.24,14.86
16735,-8.66,3.64,3.31,-0.31,-0.01,-0.54,-38.21,16.24,14.86
16746,-8.66,3.64,3.31,-0.31,-0.01,-0.54,-38.21,16.24,14.86
16757,-8.68,3.14,3.61,-0.36,-0.01,-0.49,-42.92,13.89,17.72
16768,-8.68,3.14,3.61,-0.36,-0.01,-0.49,-42.92,13.89,17.72
16779,-8.05,3.19,3.02,-0.36,0.03,-0.38,-42.92,13.89,17.72
16790,-8.76,3.57,3.55,-0.26,0.04,-0.27,-42.92,13.89,17.72
16801,-8.76,3.57,3.55,-0.26,0.04,-0.27,-42.92,13.89,17.72
16812,-8.30,2.50,3.65,-0.31,0.10,-0.21,-42.92,13.89,17.72
16828,-8.30,2.50,3.65,-0.31,0.10,-0.21,-42.92,13.89,17.72
16834,-8.53,3.38,3.25,-0.34,0.11,0.00,-42.92,13.89,17.72
16845,-8.53,3.38,3.25,-0.34,0.11,0.00,-42.92,13.89,17.72
16856,-8.69,2.75,3.88,-0.34,0.12,0.11,-42.92,13.89,17.72
16867,-8.69,2.75,3.88,-0.34,0.12,0.11,-42.92,13.89,17.72
16878,-8.56,3.70,3.81,-0.26,0.14,0.20,-42.92,13.89,17.72
16889,-8.61,3.45,3.74,-0.21,0.13,0.19,-41.21,14.48,16.65
16900,-8.61,3.45,3.74,-0.21,0.13,0.19,-41.21,14.48,16.65
16911,-8.34,2.89,3.74,-0.22,0.14,0.22,-41.21,14.48,16.65
16922,-8.34,2.89,3.74,-0.22,0.14,0.22,-41.21,14.48,16.65
16933,-8.33,3.61,3.64,-0.15,0.18,0.31,-41.21,14.48,16.65
16944,-8.33,3.61,3.64,-0.15,0.18,0.31,-41.21,14.48,16.65
16955,-8.52,3.24,3.72,-0.12,0.18,0.31,-41.21,14.48,16.65
16966,-8.52,3.24,3.72,-0.12,0.18,0.31,-41.21,14.48,16.65
16977,-8.49,3.57,3.74,-0.08,0.15,0.33,-41.21,14.48,16.65
16988,-8.49,3.57,3.74,-0.08,0.15,0.33,-41.21,14.48,16.65
16999,-8.81,2.58,4.23,-0.07,0.14,0.34,-41.21,14.48,16.65
17010,-8.35,3.28,3.28,-0.11,0.16,0.43,-41.21,16.53,16.65
17021,-8.35,3.28,3.28,-0.11,0.16,0.43,-41.21,16.53,16.65
17032,-8.71,3.94,3.40,0.08,0.16,0.49,-41.21,16.53,16.65
17043,-8.71,3.94,3.40,0.08,0.16,0.49,-41.21,16.53,16.65
17054,-8.10,3.11,3.71,0.09,0.14,0.43,-41.21,16.53,16.65
17065,-8.10,3.11,3.71,0.09,0.14,0.43,-41.21,16.53,16.65
17076,-8.49,3.92,3.68,0.15,0.09,0.46,-41.21,16.53,16.65
17087,-8.49,3.92,3.68,0.15,0.09,0.46,-41.21,16.53,16.65
17098,-8.25,3.12,3.74,0.35,0.07,0.45,-41.21,16.53,16.65
17109,-8.09,3.96,3.41,0.48,0.08,0.56,-41.21,16.53,16.65
17120,-8.09,3.96,3.41,0.48,0.08,0.56,-41.21,16.53,16.65
17131,-8.51,4.08,3.62,0.39,0.00,0.54,-38.85,18.73,13.97
17142,-8.51,4.08,3.62,0.39,0.00,0.54,-38.85,18.73,13.97
17153,-8.91,4.22,3.66,0.42,0.00,0.46,-38.85,18.73,13.97
17164,-8.91,4.22,3.66,0.42,0.00,0.46,-38.85,18.73,13.97
17175,-8.41,4.43,3.19,0.37,-0.05,0.32,-38.85,18.73,13.97
17186,-8.41,4.43,3.19,0.37,-0.05,0.32,-38.85,18.73,13.97
17197,-8.80,4.00,3.58,0.35,-0.13,0.27,-38.85,18.73,13.97
17208,-8.80,4.00,3.58,0.35,-0.13,0.27,-38.85,18.73,13.97
17219,-8.67,4.45,3.29,0.29,-0.11,0.24,-38.85,18.73,13.97
17230,-8.62,4.50,2.77,0.23,-0.08,0.14,-38.85,18.73,13.97
17241,-8.62,4.50,2.77,0.23,-0.08,0.14,-38.85,18.73,13.97
17252,-8.61,4.48,3.11,0.20,-0.09,0.03,-37.13,17.56,14.33
17263,-8.61,4.48,3.11,0.20,-0.09,0.03,-37.13,17.56,14.33
17274,-8.67,4.74,3.41,0.20,-0.13,-0.10,-37.13,17.56,14.33
17285,-8.67,4.74,3.41,0.20,-0.13,-0.10,-37.13,17.56,14.33
17296,-8.35,4.45,3.41,0.10,-0.15,-0.24,-37.13,17.56,14.33
17307,-8.35,4.45,3.41,0.10,-0.15,-0.24,-37.13,17.56,14.33
17318,-8.20,4.38,3.12,-0.01,-0.15,-0.32,-37.13,17.56,14.33
17329,-8.61,4.30,3.60,-0.01,-0.17,-0.33,-37.13,17.56,14.33
17340,-8.61,4.30,3.60,-0.01,-0.17,-0.33,-37.13,17.56,14.33
17351,-8.66,3.94,3.13,-0.07,-0.17,-0.39,-37.13,17.56,14.33
17362,-8.66,3.94,3.13,-0.07,-0.17,-0.39,-37.13,17.56,14.33
17373,-8.06,3.73,2.75,-0.12,-0.17,-0.45,-37.13,17.56,14.33
17384,-8.06,3.73,2.75,-0.12,-0.17,-0.45,-37.13,17.56,14.33
17395,-8.76,4.35,3.77,-0.19,-0.12,-0.44,-37.99,16.97,15.40
17406,-8.76,4.35,3.77,-0.19,-0.12,-0.44,-37.99,16.97,15.40
17417,-8.14,3.84,2.91,-0.13,-0.06,-0.47,-37.99,16.97,15.40
17428,-8.14,3.84,2.91,-0.13,-0.06,-0.47,-37.99,16.97,15.40
17439,-8.69,4.30,3.67,-0.08,-0.04,-0.44,-37.99,16.97,15.40
17450,-8.44,3.53,3.23,-0.15,-0.03,-0.52,-37.99,16.97,15.40
17461,-8.44,3.53,3.23,-0.15,-0.03,-0.52,-37.99,16.97,15.40
17472,-8.35,3.94,3.16,-0.21,-0.02,-0.46,-37.99,16.97,15.40
17483,-8.35,3.94,3.16,-0.21,-0.02,-0.46,-37.99,16.97,15.40
17494,-8.51,3.77,3.55,-0.30,0.00,-0.39,-37.99,16.97,15.40
17505,-8.51,3.77,3.55,-0.30,0.00,-0.39,-37.99,16.97,15.40
17516,-8.93,4.06,3.57,-0.30,0.04,-0.34,-39.49,15.36,15.93
17527,-8.93,4.06,3.57,-0.30,0.04,-0.34,-39.49,15.36,15.93
17538,-8.14,3.07,3.11,-0.32,0.09,-0.36,-39.49,15.36,15.93
17549,-8.55,3.36,3.39,-0.31,0.06,-0.19,-39.49,15.36,15.93
17560,-8.55,3.36,3.39,-0.31,0.06,-0.19,-39.49,15.36,15.93
17572,-8.61,3.30,3.46,-0.24,0.08,-0.07,-39.49,15.36,15.93
17582,-8.61,3.30,3.46,-0.24,0.08,-0.07,-39.49,15.36,15.93
17593,-8.80,3.92,3.35,-0.21,0.08,-0.01,-39.49,15.36,15.93
17604,-8.80,3.92,3.35,-0.21,0.08,-0.01,-39.49,15.36,15.93
17615,-8.61,3.28,3.09,-0.23,0.09,0.03,-39.49,15.36,15.93
17626,-8.61,3.28,3.09,-0.23,0.09,0.03,-39.49,15.36,15.93
17637,-8.87,3.39,3.71,-0.28,0.11,0.09,-40.56,15.21,15.04
17648,-8.87,3.39,3.71,-0.28,0.11,0.09,-40.56,15.21,15.04
17659,-8.51,3.24,3.48,-0.20,0.16,0.13,-40.56,15.21,15.04
17670,-8.31,3.13,3.55,-0.16,0.18,0.19,-40.56,15.21,15.04
17681,-8.31,3.13,3.55,-0.16,0.18,0.19,-40.56,15.21,15.04
17692,-8.53,3.83,3.08,-0.14,0.21,0.27,-40.56,15.21,15.04
17703,-8.53,3.83,3.08,-0.14,0.21,0.27,-40.56,15.21,15.04
17714,-8.50,3.17,4.19,-0.21,0.16,0.22,-40.56,15.21,15.04
17725,-8.50,3.17,4.19,-0.21,0.16,0.22,-40.56,15.21,15.04
17736,-8.39,3.68,3.98,-0.18,0.11,0.21,-40.56,15.21,15.04
17747,-8.39,3.68,3.98,-0.18,0.11,0.21,-40.56,15.21,15.04
17758,-8.46,3.70,3.81,-0.08,0.03,0.18,-40.56,15.21,15.04
17769,-8.46,3.70,3.81,-0.08,0.03,0.18,-40.56,15.21,15.04
17780,-8.61,3.43,4.07,-0.14,-0.08,0.10,-38.63,15.06,15.93
17791,-8.56,3.60,3.83,-0.13,-0.03,0.10,-38.63,15.06,15.93
17802,-8.56,3.60,3.83,-0.13,-0.03,0.10,-38.63,15.06,15.93
17813,-8.62,3.64,3.62,-0.06,0.03,0.10,-38.63,15.06,15.93
17824,-8.62,3.64,3.62,-0.06,0.03,0.10,-38.63,15.06,15.93
17835,-8.80,3.31,3.58,-0.08,0.03,0.08,-38.63,15.06,15.93
17846,-8.80,3.31,3.58,-0.08,0.03,0.08,-38.63,15.06,15.93
17857,-9.12,3.08,3.42,-0.08,0.08,0.21,-38.63,15.06,15.93
17868,-9.12,3.08,3.42,-0.08,0.08,0.21,-38.63,15.06,15.93
17879,-9.79,3.19,3.18,-0.20,-0.06,0.45,-38.63,15.06,15.93
17890,-9.38,4.15,3.44,-0.37,-0.25,0.59,-39.71,17.85,17.54
17901,-9.38,4.15,3.44,-0.37,-0.25,0.59,-39.71,17.85,17.54
17912,-9.29,3.85,3.97,-0.33,-0.27,0.58,-39.71,17.85,17.54
17923,-9.29,3.85,3.97,-0.33,-0.27,0.58,-39.71,17.85,17.54
17934,-9.10,4.01,3.90,-0.34,-0.26,0.63,-39.71,17.85,17.54
17945,-9.10,4.01,3.90,-0.34,-0.26,0.63,-39.71,17.85,17.54
17956,-8.75,3.88,3.73,-0.43,-0.30,0.69,-39.71,17.85,17.54
17967,-8.75,3.88,3.73,-0.43,-0.30,0.69,-39.71,17.85,17.54
17978,-8.35,4.11,3.88,-0.50,-0.39,0.82,-39.71,17.85,17.54
17989,-8.35,4.11,3.88,-0.50,-0.39,0.82,-39.71,17.85,17.54
18000,-7.65,4.36,4.39,-0.08,-0.40,0.86,-39.71,17.85,17.54
18011,-7.58,4.39,4.86,0.20,-0.36,0.77,-36.92,18.58,19.50
18022,-7.58,4.39,4.86,0.20,-0.36,0.77,-36.92,18.58,19.50
18033,-7.19,4.32,5.46,0.13,-0.29,0.61,-36.92,18.58,19.50
18044,-7.19,4.32,5.46,0.13,-0.29,0.61,-36.92,18.58,19.50
18055,-6.35,4.31,4.74,-0.05,-0.14,0.53,-36.92,18.58,19.50
18066,-6.35,4.31,4.74,-0.05,-0.14,0.53,-36.92,18.58,19.50
18077,-7.05,4.71,4.54,-0.31,0.03,0.55,-36.92,18.58,19.50
18088,-7.05,4.71,4.54,-0.31,0.03,0.55,-36.92,18.58,19.50
18099,-7.95,4.22,4.64,-0.33,0.22,0.39,-36.92,18.58,19.50
18110,-8.01,4.51,4.21,-0.12,0.19,0.24,-36.92,18.58,19.50
18121,-8.01,4.51,4.21,-0.12,0.19,0.24,-36.92,18.58,19.50
18132,-7.70,4.36,4.32,1.00,0.08,0.10,-36.92,18.58,19.50
18143,-7.70,4.36,4.32,1.00,0.08,0.10,-36.92,18.58,19.50
18154,-8.01,4.50,4.69,1.58,0.08,0.04,-34.35,19.46,19.14
18165,-8.01,4.50,4.69,1.58,0.08,0.04,-34.35,19.46,19.14
18176,-5.48,7.20,0.68,1.81,0.23,-0.06,-34.35,19.46,19.14
18187,-5.48,7.20,0.68,1.81,0.23,-0.06,-34.35,19.46,19.14
18198,-8.63,4.86,5.29,5.25,0.50,-0.31,-34.35,19.46,19.14
18209,-8.63,4.86,5.29,5.25,0.50,-0.31,-34.35,19.46,19.14
18220,-7.99,5.55,3.55,3.83,0.04,-0.83,-34.35,19.46,19.14
18231,-8.25,5.39,3.91,3.29,-0.67,-1.17,-34.35,19.46,19.14
18242,-8.25,5.39,3.91,3.29,-0.67,-1.17,-34.35,19.46,19.14
18253,-8.34,4.83,4.24,2.32,-1.05,-1.39,-34.35,19.46,19.14
18264,-8.34,4.83,4.24,2.32,-1.05,-1.39,-34.35,19.46,19.14
18275,-7.74,4.84,4.09,0.58,-1.16,-1.63,-37.99,21.96,5.41
18286,-7.74,4.84,4.09,0.58,-1.16,-1.63,-37.99,21.96,5.41
18297,-6.77,4.25,3.62,-0.28,-1.00,-2.07,-37.99,21.96,5.41
18308,-6.77,4.25,3.62,-0.28,-1.00,-2.07,-37.99,21.96,5.41
18319,-7.56,3.53,3.19,-0.72,-0.93,-2.63,-37.99,21.96,5.41
18330,-9.32,3.21,3.11,-1.35,-0.86,-3.00,-37.99,21.96,5.41
18341,-9.32,3.21,3.11,-1.35,-0.86,-3.00,-37.99,21.96,5.41
18352,-9.77,2.55,3.51,-1.94,-0.53,-3.07,-37.99,21.96,5.41
18363,-9.77,2.55,3.51,-1.94,-0.53,-3.07,-37.99,21.96,5.41
18374,-9.57,1.59,4.13,-3.19,-0.27,-3.08,-37.99,21.96,5.41
18385,-9.57,1.59,4.13,-3.19,-0.27,-3.08,-37.99,21.96,5.41
18396,-9.41,1.02,4.18,-5.94,-0.33,-3.33,-49.56,8.46,15.76
18407,-9.41,1.02,4.18,-5.94,-0.33,-3.33,-49.56,8.46,15.76
18418,-9.66,0.55,3.66,-8.83,-0.21,-3.68,-49.56,8.46,15.76
18429,-9.66,0.55,3.66,-8.83,-0.21,-3.68,-49.56,8.46,15.76
18440,-9.87,-1.58,4.31,-8.66,0.63,-3.51,-49.56,8.46,15.76
18451,-8.69,-2.42,3.44,-7.75,1.59,-2.74,-49.56,8.46,15.76
18462,-8.69,-2.42,3.44,-7.75,1.59,-2.74,-49.56,8.46,15.76
18473,-10.15,-0.29,0.60,-7.81,2.05,-2.16,-49.56,8.46,15.76
18484,-10.15,-0.29,0.60,-7.81,2.05,-2.16,-49.56,8.46,15.76
18495,-9.03,1.00,2.70,-8.14,2.08,-2.36,-49.56,8.46,15.76
18507,-9.03,1.00,2.70,-8.14,2.08,-2.36,-49.56,8.46,15.76
18517,-7.99,0.77,2.51,-11.17,2.54,-3.21,-55.78,-15.15,14.86
18528,-7.99,0.77,2.51,-11.17,2.54,-3.21,-55.78,-15.15,14.86
18539,-7.49,-1.81,-0.29,-12.02,3.61,-3.18,-55.78,-15.15,14.86
18550,-4.86,-5.31,-2.79,-9.98,4.58,-2.32,-55.78,-15.15,14.86
18561,-4.86,-5.31,-2.79,-9.98,4.58,-2.32,-55.78,-15.15,14.86
18572,-3.70,-5.65,-6.13,-7.67,4.89,-0.81,-55.78,-15.15,14.86
18583,-3.70,-5.65,-6.13,-7.67,4.89,-0.81,-55.78,-15.15,14.86
18594,-3.68,-3.02,-4.83,-5.54,4.62,0.58,-55.78,-15.15,14.86
18605,-3.68,-3.02,-4.83,-5.54,4.62,0.58,-55.78,-15.15,14.86
18616,-3.86,0.46,-5.27,-5.92,4.52,1.05,-55.78,-15.15,14.86
18627,-3.86,0.46,-5.27,-5.92,4.52,1.05,-55.78,-15.15,14.86
18638,-3.51,1.18,-6.86,-4.82,4.66,1.04,-55.78,-15.15,14.86
18649,-3.51,1.18,-6.86,-4.82,4.66,1.04,-55.78,-15.15,14.86
18660,-1.40,-0.85,-8.09,-3.64,4.78,0.66,-46.35,-12.81,-20.81
18671,-1.02,-2.36,-12.43,-4.06,4.59,0.48,-46.35,-12.81,-20.81
18682,-1.02,-2.36,-12.43,-4.06,4.59,0.48,-46.35,-12.81,-20.81
18693,-2.06,-1.70,-16.80,-3.00,3.52,1.24,-46.35,-12.81,-20.81
18704,-2.06,-1.70,-16.80,-3.00,3.52,1.24,-46.35,-12.81,-20.81
18715,-3.39,1.47,-16.23,-0.67,1.71,1.98,-46.35,-12.81,-20.81
18726,-3.39,1.47,-16.23,-0.67,1.71,1.98,-46.35,-12.81,-20.81
18737,-3.96,3.64,-13.15,-0.10,-0.09,1.62,-46.35,-12.81,-20.81
18748,-3.96,3.64,-13.15,-0.10,-0.09,1.62,-46.35,-12.81,-20.81
18759,-3.84,1.13,-7.47,0.02,-0.92,0.85,-46.35,-12.81,-20.81
18770,-3.84,1.13,-7.47,0.02,-0.92,0.85,-46.35,-12.81,-20.81
18781,-3.40,-0.45,-5.57,-0.12,-0.41,0.55,-38.42,-2.98,-30.63
18792,-2.24,-1.70,-8.91,-0.83,0.67,0.37,-38.42,-2.98,-30.63
18803,-2.24,-1.70,-8.91,-0.83,0.67,0.37,-38.42,-2.98,-30.63
18814,-2.47,-0.45,-10.65,-1.06,0.88,0.72,-38.42,-2.98,-30.63
18825,-2.47,-0.45,-10.65,-1.06,0.88,0.72,-38.42,-2.98,-30.63
18836,-3.44,2.58,-10.28,-1.04,0.65,1.02,-38.42,-2.98,-30.63
18847,-3.44,2.58,-10.28,-1.04,0.65,1.02,-38.42,-2.98,-30.63
18858,-3.12,3.37,-9.38,-0.67,0.60,0.85,-38.42,-2.98,-30.63
18869,-3.12,3.37,-9.38,-0.67,0.60,0.85,-38.42,-2.98,-30.63
18880,-2.91,1.52,-9.63,-0.59,0.76,0.43,-38.42,-2.98,-30.63
18891,-3.21,2.27,-10.38,-0.67,0.89,0.46,-33.92,2.16,-33.30
18902,-3.21,2.27,-10.38,-0.67,0.89,0.46,-33.92,2.16,-33.30
18913,-2.85,3.34,-10.67,-0.44,0.87,0.46,-33.92,2.16,-33.30
18924,-2.85,3.34,-10.67,-0.44,0.87,0.46,-33.92,2.16,-33.30
18935,-2.86,2.60,-10.49,-0.60,0.66,0.29,-33.92,2.16,-33.30
18946,-2.86,2.60,-10.49,-0.60,0.66,0.29,-33.92,2.16,-33.30
18957,-2.79,3.08,-10.66,-1.03,0.52,0.27,-33.92,2.16,-33.30
18968,-2.79,3.08,-10.66,-1.03,0.52,0.27,-33.92,2.16,-33.30
18979,-2.28,3.47,-10.19,-1.01,0.53,0.21,-33.92,2.16,-33.30
18990,-2.28,3.47,-10.19,-1.01,0.53,0.21,-33.92,2.16,-33.30
19001,-1.85,3.63,-10.00,-0.62,0.55,0.08,-33.92,2.16,-33.30
19012,-1.58,3.37,-9.36,-0.18,0.51,0.00,-33.92,2.16,-33.30
19023,-1.58,3.37,-9.36,-0.18,0.51,0.00,-33.92,2.16,-33.30
19034,-2.24,2.21,-10.37,-0.37,0.52,-0.05,-29.63,5.09,-32.95
19046,-2.24,2.21,-10.37,-0.37,0.52,-0.05,-29.63,5.09,-32.95
19056,-2.08,3.17,-11.36,-0.56,0.51,0.03,-29.63,5.09,-32.95
19067,-2.08,3.17,-11.36,-0.56,0.51,0.03,-29.63,5.09,-32.95
19078,-1.64,3.81,-9.97,-0.34,0.35,-0.07,-29.63,5.09,-32.95
19089,-1.64,3.81,-9.97,-0.34,0.35,-0.07,-29.63,5.09,-32.95
19100,-0.44,3.01,-8.79,-0.28,0.31,-0.23,-29.63,5.09,-32.95
19111,-0.06,1.87,-8.89,-0.17,0.42,-0.14,-29.63,5.09,-32.95
19122,-0.06,1.87,-8.89,-0.17,0.42,-0.14,-29.63,5.09,-32.95
19133,-0.63,1.24,-9.29,-0.06,0.54,0.07,-29.63,5.09,-32.95
19144,-0.63,1.24,-9.29,-0.06,0.54,0.07,-29.63,5.09,-32.95
19155,-1.66,2.43,-10.78,-0.22,0.64,0.29,-28.78,5.38,-34.37
19166,-1.66,2.43,-10.78,-0.22,0.64,0.29,-28.78,5.38,-34.37
19177,-1.36,4.21,-11.51,-0.40,0.53,0.34,-28.78,5.38,-34.37
19188,-1.36,4.21,-11.51,-0.40,0.53,0.34,-28.78,5.38,-34.37
19199,-0.65,3.39,-10.66,-0.35,0.25,0.10,-28.78,5.38,-34.37
19210,-0.65,3.39,-10.66,-0.35,0.25,0.10,-28.78,5.38,-34.37
19221,-0.85,2.95,-8.39,-0.32,0.15,0.02,-28.78,5.38,-34.37
19232,-0.68,3.64,-9.57,-0.82,0.38,0.05,-28.78,5.38,-34.37
19243,-0.68,3.64,-9.57,-0.82,0.38,0.05,-28.78,5.38,-34.37
19254,-0.19,3.55,-11.23,-0.91,0.48,0.08,-28.78,5.38,-34.37
19265,-0.19,3.55,-11.23,-0.91,0.48,0.08,-28.78,5.38,-34.37
19276,-0.09,3.68,-10.68,-0.59,0.29,0.16,-26.42,8.46,-33.84
19287,-0.09,3.68,-10.68,-0.59,0.29,0.16,-26.42,8.46,-33.84
19298,-0.41,3.58,-9.40,-0.54,0.10,0.17,-26.42,8.46,-33.84
19309,-0.41,3.58,-9.40,-0.54,0.10,0.17,-26.42,8.46,-33.84
19320,-0.20,2.96,-8.73,-0.84,0.10,0.12,-26.42,8.46,-33.84
19331,-0.50,3.15,-9.12,-1.46,0.13,0.19,-26.42,8.46,-33.84
19342,-0.50,3.15,-9.12,-1.46,0.13,0.19,-26.42,8.46,-33.84
19353,-0.27,3.64,-8.53,-1.59,0.18,0.39,-26.42,8.46,-33.84
19364,-0.27,3.64,-8.53,-1.59,0.18,0.39,-26.42,8.46,-33.84
19375,0.05,3.43,-8.37,-1.90,0.36,0.53,-26.42,8.46,-33.84
19386,0.05,3.43,-8.37,-1.90,0.36,0.53,-26.42,8.46,-33.84
19397,0.19,3.54,-8.88,-2.39,0.50,0.81,-26.42,8.46,-33.84
19408,0.19,3.54,-8.88,-2.39,0.50,0.81,-26.42,8.46,-33.84
19419,1.09,7.97,-14.83,-2.51,0.33,1.11,-25.13,13.16,-30.63
19430,1.09,7.97,-14.83,-2.51,0.33,1.11,-25.13,13.16,-30.63
19441,-0.24,6.89,-7.63,-1.97,-0.45,0.75,-25.13,13.16,-30.63
19452,0.04,7.69,-8.45,-1.71,-0.38,0.42,-25.13,13.16,-30.63
19463,0.04,7.69,-8.45,-1.71,-0.38,0.42,-25.13,13.16,-30.63
19474,-0.62,6.78,-8.27,-0.63,-0.31,0.14,-25.13,13.16,-30.63
19485,-0.62,6.78,-8.27,-0.63,-0.31,0.14,-25.13,13.16,-30.63
19496,0.05,6.34,-8.08,-0.14,-0.12,-0.02,-25.13,13.16,-30.63
19507,0.05,6.34,-8.08,-0.14,-0.12,-0.02,-25.13,13.16,-30.63
19519,-0.24,5.61,-8.36,-0.10,-0.16,-0.07,-25.13,13.16,-30.63
19529,-0.24,5.61,-8.36,-0.10,-0.16,-0.07,-25.13,13.16,-30.63
19540,0.06,6.19,-8.21,-0.23,-0.31,-0.01,-25.35,16.24,-27.24
19551,0.00,6.03,-8.09,-0.28,-0.39,0.01,-25.35,16.24,-27.24
19562,0.00,6.03,-8.09,-0.28,-0.39,0.01,-25.35,16.24,-27.24
19573,-0.04,6.41,-8.21,-0.15,-0.52,-0.15,-25.35,16.24,-27.24
19584,-0.04,6.41,-8.21,-0.15,-0.52,-0.15,-25.35,16.24,-27.24
19595,-0.93,6.27,-9.08,0.23,-0.92,-0.75,-25.35,16.24,-27.24
19606,-0.93,6.27,-9.08,0.23,-0.92,-0.75,-25.35,16.24,-27.24
19617,-0.82,6.78,-8.92,-1.72,-0.87,-0.88,-25.35,16.24,-27.24
19628,-0.82,6.78,-8.92,-1.72,-0.87,-0.88,-25.35,16.24,-27.24
19639,-1.24,7.40,-7.03,-0.17,-0.07,-0.05,-25.35,16.24,-27.24
19650,-1.24,7.40,-7.03,-0.17,-0.07,-0.05,-25.35,16.24,-27.24
19661,-0.22,5.91,-8.65,1.61,0.61,0.55,-27.28,16.97,-25.63
19672,0.34,6.30,-8.38,0.33,0.43,0.40,-27.28,16.97,-25.63
19683,0.34,6.30,-8.38,0.33,0.43,0.40,-27.28,16.97,-25.63
19694,-0.64,5.49,-8.60,-0.35,-0.46,-0.41,-27.28,16.97,-25.63
19705,-0.64,5.49,-8.60,-0.35,-0.46,-0.41,-27.28,16.97,-25.63
19716,-0.96,6.85,-7.40,-0.69,-0.34,-0.22,-27.28,16.97,-25.63
19727,-0.96,6.85,-7.40,-0.69,-0.34,-0.22,-27.28,16.97,-25.63
19738,-0.53,5.81,-8.40,0.76,0.29,0.30,-27.28,16.97,-25.63
19749,-0.53,5.81,-8.40,0.76,0.29,0.30,-27.28,16.97,-25.63
19760,0.08,6.37,-8.50,0.32,0.33,0.25,-27.28,16.97,-25.63
19771,-0.72,6.55,-8.39,-0.34,-0.33,-0.26,-27.28,16.97,-25.63
19782,-0.72,6.55,-8.39,-0.34,-0.33,-0.26,-27.28,16.97,-25.63
19793,-0.99,6.76,-7.45,-0.33,-0.18,-0.14,-27.28,16.97,-25.63
19804,-0.99,6.76,-7.45,-0.33,-0.18,-0.14,-27.28,16.97,-25.63
19815,-0.48,6.32,-8.16,0.49,0.30,0.21,-27.28,16.97,-25.63
19826,-0.48,6.32,-8.16,0.49,0.30,0.21,-27.28,16.97,-25.63
19837,-0.16,6.17,-8.40,0.17,0.16,0.10,-27.28,16.97,-25.63
19848,-0.16,6.17,-8.40,0.17,0.16,0.10,-27.28,16.97,-25.63
19859,-0.45,6.23,-8.22,-0.26,-0.21,-0.18,-27.28,16.97,-25.63
19870,-0.45,6.23,-8.22,-0.26,-0.21,-0.18,-27.28,16.97,-25.63
19881,-0.89,6.62,-7.68,-0.30,-0.18,-0.14,-27.28,16.97,-25.63
19892,-0.49,6.24,-8.25,0.29,0.18,0.12,-27.28,16.97,-25.63
19903,-0.49,6.24,-8.25,0.29,0.18,0.12,-27.28,16.97,-25.63
19914,-0.34,6.13,-8.30,0.17,0.14,0.09,-29.42,16.09,-23.85
19925,-0.34,6.13,-8.30,0.17,0.14,0.09,-29.42,16.09,-23.85
19936,-0.40,6.14,-8.24,-0.07,-0.05,-0.05,-29.42,16.09,-23.85
19947,-0.40,6.14,-8.24,-0.07,-0.05,-0.05,-29.42,16.09,-23.85
19958,-0.69,6.15,-7.94,-0.26,-0.18,-0.15,-29.42,16.09,-23.85
19969,-0.69,6.15,-7.94,-0.26,-0.18,-0.15,-29.42,16.09,-23.85
19980,-0.59,6.30,-8.10,-0.01,-0.01,-0.01,-29.42,16.09,-23.85
19991,-0.59,6.30,-8.10,-0.01,-0.01,-0.01,-29.42,16.09,-23.85
20002,-0.41,6.17,-8.25,0.17,0.13,0.09,-29.42,16.09,-23.85
20013,-0.42,6.19,-8.24,0.02,0.02,0.01,-29.42,16.09,-23.85
20024,-0.42,6.19,-8.24,0.02,0.02,0.01,-29.42,16.09,-23.85
20035,-0.55,6.28,-8.19,-0.14,-0.09,-0.08,-28.78,15.94,-24.74
20046,-0.55,6.28,-8.19,-0.14,-0.09,-0.08,-28.78,15.94,-24.74
20057,-0.66,6.36,-7.97,-0.09,-0.05,-0.05,-28.78,15.94,-24.74
20068,-0.66,6.36,-7.97,-0.09,-0.05,-0.05,-28.78,15.94,-24.74
20079,-0.46,6.23,-8.19,0.11,0.08,0.05,-28.78,15.94,-24.74
20090,-0.46,6.23,-8.19,0.11,0.08,0.05,-28.78,15.94,-24.74
20101,-0.45,6.20,-8.20,0.03,0.03,0.01,-28.78,15.94,-24.74
20112,-0.50,6.24,-8.16,-0.07,-0.05,-0.05,-28.78,15.94,-24.74
20123,-0.50,6.24,-8.16,-0.07,-0.05,-0.05,-28.78,15.94,-24.74
20134,-0.63,6.39,-7.99,-0.07,-0.04,-0.04,-28.78,15.94,-24.74
20145,-0.63,6.39,-7.99,-0.07,-0.04,-0.04,-28.78,15.94,-24.74
20156,0.24,7.19,-7.10,-0.03,0.05,-0.06,-27.92,15.94,-25.45
20167,0.24,7.19,-7.10,-0.03,0.05,-0.06,-27.92,15.94,-25.45
20178,-0.02,8.27,-6.84,-0.09,0.20,-0.23,-27.92,15.94,-25.45
20189,-0.02,8.27,-6.84,-0.09,0.20,-0.23,-27.92,15.94,-25.45
20200,-1.40,5.71,-8.30,-0.17,0.23,-0.34,-27.92,15.94,-25.45
20211,-1.40,5.71,-8.30,-0.17,0.23,-0.34,-27.92,15.94,-25.45
20222,-1.02,4.81,-9.46,0.16,0.36,-0.13,-27.92,15.94,-25.45
20233,-0.49,5.91,-8.68,0.16,0.36,-0.04,-27.92,15.94,-25.45
20244,-0.49,5.91,-8.68,0.16,0.36,-0.04,-27.92,15.94,-25.45
20255,-0.85,5.78,-8.61,-0.06,0.15,-0.28,-27.92,15.94,-25.45
20266,-0.85,5.78,-8.61,-0.06,0.15,-0.28,-27.92,15.94,-25.45
20277,-1.36,5.98,-8.20,-0.36,0.02,-0.53,-27.92,15.94,-25.45
20288,-1.36,5.98,-8.20,-0.36,0.02,-0.53,-27.92,15.94,-25.45
20299,0.15,6.61,-7.84,-0.05,0.19,-0.33,-28.99,16.38,-25.63
20310,0.15,6.61,-7.84,-0.05,0.19,-0.33,-28.99,16.38,-25.63
20321,0.14,6.54,-7.88,0.32,0.47,-0.15,-28.99,16.38,-25.63
20332,-1.08,6.38,-7.98,0.05,0.39,-0.41,-28.99,16.38,-25.63
20343,-1.08,6.38,-7.98,0.05,0.39,-0.41,-28.99,16.38,-25.63
20354,-1.46,5.95,-8.11,-0.39,0.10,-0.66,-28.99,16.38,-25.63
20365,-1.46,5.95,-8.11,-0.39,0.10,-0.66,-28.99,16.38,-25.63
20376,-0.42,6.59,-7.70,-0.12,0.25,-0.42,-28.99,16.38,-25.63
20387,-0.42,6.59,-7.70,-0.12,0.25,-0.42,-28.99,16.38,-25.63
20399,1.13,6.56,-8.03,0.36,0.63,-0.21,-28.99,16.38,-25.63
20409,1.13,6.56,-8.03,0.36,0.63,-0.21,-28.99,16.38,-25.63
20420,-1.19,5.85,-8.61,0.04,0.48,-0.53,-28.13,16.09,-25.99
20431,-1.19,5.85,-8.61,0.04,0.48,-0.53,-28.13,16.09,-25.99
20442,-1.65,5.87,-8.00,-0.56,0.10,-0.81,-28.13,16.09,-25.99
20453,-0.71,6.36,-7.99,0.03,0.36,-0.42,-28.13,16.09,-25.99
20464,-0.71,6.36,-7.99,0.03,0.36,-0.42,-28.13,16.09,-25.99
20475,0.79,6.12,-8.38,0.37,0.64,-0.18,-28.13,16.09,-25.99
20486,0.79,6.12,-8.38,0.37,0.64,-0.18,-28.13,16.09,-25.99
20497,-1.01,5.72,-8.59,-0.06,0.31,-0.52,-28.13,16.09,-25.99
20508,-1.01,5.72,-8.59,-0.06,0.31,-0.52,-28.13,16.09,-25.99
20519,-1.45,6.46,-7.71,-0.52,0.01,-0.63,-28.13,16.09,-25.99
20530,-1.45,6.46,-7.71,-0.52,0.01,-0.63,-28.13,16.09,-25.99
20541,0.92,6.36,-8.11,0.26,0.35,-0.18,-29.42,14.92,-25.99
20552,0.61,6.83,-8.05,0.24,0.40,-0.04,-29.42,14.92,-25.99
20563,0.61,6.83,-8.05,0.24,0.40,-0.04,-29.42,14.92,-25.99
20574,0.33,6.72,-8.01,-0.27,0.00,-0.46,-29.42,14.92,-25.99
20585,0.33,6.72,-8.01,-0.27,0.00,-0.46,-29.42,14.92,-25.99
20596,-1.42,6.37,-7.83,-0.18,0.22,-0.48,-29.42,14.92,-25.99
20607,-1.42,6.37,-7.83,-0.18,0.22,-0.48,-29.42,14.92,-25.99
20618,-0.33,5.99,-8.45,0.23,0.39,-0.17,-29.42,14.92,-25.99
20629,-0.33,5.99,-8.45,0.23,0.39,-0.17,-29.42,14.92,-25.99
20640,-0.14,6.12,-8.35,0.04,0.14,-0.09,-29.42,14.92,-25.99
20651,-0.14,6.12,-8.35,0.04,0.14,-0.09,-29.42,14.92,-25.99
20662,-0.47,6.33,-8.17,-0.15,-0.09,-0.12,-29.42,14.92,-25.99
20673,-0.65,6.77,-7.77,-0.16,0.04,-0.18,-28.99,14.62,-26.35
20684,-0.65,6.77,-7.77,-0.16,0.04,-0.18,-28.99,14.62,-26.35
20695,-0.45,6.28,-8.17,0.19,0.62,-0.53,-28.99,14.62,-26.35
20706,-0.45,6.28,-8.17,0.19,0.62,-0.53,-28.99,14.62,-26.35
20717,0.72,5.78,-8.39,0.13,0.31,-0.16,-28.99,14.62,-26.35
20728,0.72,5.78,-8.39,0.13,0.31,-0.16,-28.99,14.62,-26.35
20739,0.08,6.23,-8.13,0.08,-0.21,0.52,-28.99,14.62,-26.35
20750,0.08,6.23,-8.13,0.08,-0.21,0.52,-28.99,14.62,-26.35
20761,-0.19,6.32,-7.98,0.02,-0.37,0.65,-28.99,14.62,-26.35
20772,-0.44,6.31,-8.01,0.02,-0.50,0.77,-28.99,14.62,-26.35
20783,-0.44,6.31,-8.01,0.02,-0.50,0.77,-28.99,14.62,-26.35
20794,-0.74,6.17,-8.17,0.02,-0.53,0.81,-27.28,14.04,-26.35
20805,-0.74,6.17,-8.17,0.02,-0.53,0.81,-27.28,14.04,-26.35
20816,-0.75,6.36,-8.04,-0.04,-0.41,0.81,-27.28,14.04,-26.35
20827,-0.75,6.36,-8.04,-0.04,-0.41,0.81,-27.28,14.04,-26.35
20843,-0.22,6.36,-8.04,-0.08,-0.31,0.84,-27.28,14.04,-26.35
20849,-0.22,6.36,-8.04,-0.08,-0.31,0.84,-27.28,14.04,-26.35
20860,-0.17,6.40,-8.03,-0.08,-0.32,0.77,-27.28,14.04,-26.35
20871,-0.17,6.40,-8.03,-0.08,-0.32,0.77,-27.28,14.04,-26.35
20882,-0.58,6.35,-8.06,-0.03,-0.39,0.60,-27.28,14.04,-26.35
20893,-0.57,6.31,-8.11,0.04,-0.42,0.33,-27.28,14.04,-26.35
20904,-0.57,6.31,-8.11,0.04,-0.42,0.33,-27.28,14.04,-26.35
20916,-0.28,6.32,-8.16,0.14,-0.47,-0.14,-26.85,14.92,-26.35
20926,-0.28,6.32,-8.16,0.14,-0.47,-0.14,-26.85,14.92,-26.35
20937,-1.30,6.02,-8.10,-0.15,-0.50,-0.38,-26.85,14.92,-26.35
20948,-1.30,6.02,-8.10,-0.15,-0.50,-0.38,-26.85,14.92,-26.35
20959,-0.10,6.21,-8.12,-0.03,-0.12,-0.03,-26.85,14.92,-26.35
20970,-0.10,6.21,-8.12,-0.03,-0.12,-0.03,-26.85,14.92,-26.35
20981,-0.49,6.34,-8.02,0.01,-0.01,-0.02,-26.85,14.92,-26.35
20992,-0.49,6.34,-8.02,0.01,-0.01,-0.02,-26.85,14.92,-26.35
21003,-0.48,6.34,-8.05,0.09,0.07,-0.01,-26.85,14.92,-26.35
21014,-0.43,6.36,-8.10,-0.02,0.07,-0.14,-26.85,14.92,-26.35
21025,-0.43,6.36,-8.10,-0.02,0.07,-0.14,-26.85,14.92,-26.35
21036,-0.54,6.42,-7.96,-0.11,0.03,-0.23,-26.85,14.92,-26.35
21047,-0.54,6.42,-7.96,-0.11,0.03,-0.23,-26.85,14.92,-26.35
21058,-0.50,6.51,-7.98,-0.11,0.00,-0.14,-26.63,15.36,-25.45
21069,-0.50,6.51,-7.98,-0.11,0.00,-0.14,-26.63,15.36,-25.45
21080,-0.49,6.40,-8.04,0.07,0.03,0.02,-26.63,15.36,-25.45
21091,-0.49,6.40,-8.04,0.07,0.03,0.02,-26.63,15.36,-25.45
21102,-0.45,6.33,-8.10,0.04,0.02,0.01,-26.63,15.36,-25.45
21113,-0.47,6.36,-8.09,-0.04,-0.03,-0.03,-26.63,15.36,-25.45
21124,-0.47,6.36,-8.09,-0.04,-0.03,-0.03,-26.63,15.36,-25.45
21135,-0.54,6.35,-7.98,-0.06,-0.04,-0.04,-26.63,15.36,-25.45
21146,-0.54,6.35,-7.98,-0.06,-0.04,-0.04,-26.63,15.36,-25.45
21157,-0.53,6.33,-8.05,0.01,0.01,-0.00,-26.63,15.36,-25.45
21168,-0.53,6.33,-8.05,0.01,0.01,-0.00,-26.63,15.36,-25.45
21179,-0.51,6.30,-8.10,0.03,0.03,0.01,-27.92,15.65,-26.52
21190,-0.51,6.30,-8.10,0.03,0.03,0.01,-27.92,15.65,-26.52
21201,-0.48,6.32,-8.08,0.00,-0.00,-0.01,-27.92,15.65,-26.52
21212,-0.48,6.32,-8.08,0.00,-0.00,-0.01,-27.92,15.65,-26.52
21223,-0.49,6.34,-8.05,-0.02,-0.02,-0.02,-27.92,15.65,-26.52
21234,-0.51,6.36,-8.03,-0.01,-0.01,-0.01,-27.92,15.65,-26.52
21245,-0.51,6.36,-8.03,-0.01,-0.01,-0.01,-27.92,15.65,-26.52
21256,-0.51,6.33,-8.09,0.02,0.01,-0.00,-27.92,15.65,-26.52
21267,-0.51,6.33,-8.09,0.02,0.01,-0.00,-27.92,15.65,-26.52
21278,-0.54,6.32,-8.05,0.00,-0.00,-0.01,-27.92,15.65,-26.52
21289,-0.54,6.32,-8.05,0.00,-0.00,-0.01,-27.92,15.65,-26.52
21300,-0.51,6.33,-8.06,-0.00,-0.00,-0.01,-27.28,16.68,-23.85
21311,-0.51,6.33,-8.06,-0.00,-0.00,-0.01,-27.28,16.68,-23.85
21322,-0.47,6.34,-8.04,0.01,0.01,-0.00,-27.28,16.68,-23.85
21333,-0.50,6.34,-8.06,-0.01,-0.00,-0.01,-27.28,16.68,-23.85
21344,-0.50,6.34,-8.06,-0.01,-0.00,-0.01,-27.28,16.68,-23.85
21355,-0.52,6.32,-8.08,0.00,0.00,-0.01,-27.28,16.68,-23.85
21366,-0.52,6.32,-8.08,0.00,0.00,-0.01,-27.28,16.68,-23.85
21377,-0.52,6.32,-8.07,-0.00,0.00,-0.01,-27.28,16.68,-23.85
21388,-0.52,6.32,-8.07,-0.00,0.00,-0.01,-27.28,16.68,-23.85
21399,-0.51,6.34,-8.08,-0.00,0.00,-0.01,-27.28,16.68,-23.85
21410,-0.51,6.34,-8.08,-0.00,0.00,-0.01,-27.28,16.68,-23.85
21421,-0.49,6.34,-8.05,0.00,0.00,-0.01,-28.35,15.36,-26.17
21432,-0.49,6.34,-8.05,0.00,0.00,-0.01,-28.35,15.36,-26.17
21443,-0.51,6.35,-8.05,-0.00,0.00,-0.01,-28.35,15.36,-26.17
21454,-0.51,6.32,-8.09,0.00,0.00,-0.01,-28.35,15.36,-26.17
21465,-0.51,6.32,-8.09,0.00,0.00,-0.01,-28.35,15.36,-26.17
21476,-0.52,6.33,-8.08,0.00,-0.00,-0.01,-28.35,15.36,-26.17
21487,-0.52,6.33,-8.08,0.00,-0.00,-0.01,-28.35,15.36,-26.17
21498,-0.51,6.34,-8.09,0.00,0.00,-0.01,-28.35,15.36,-26.17
21509,-0.51,6.34,-8.09,0.00,0.00,-0.01,-28.35,15.36,-26.17
21520,-0.48,6.36,-8.04,-0.00,0.00,-0.01,-28.35,15.36,-26.17
21531,-0.48,6.36,-8.04,-0.00,0.00,-0.01,-28.35,15.36,-26.17
21542,-0.50,6.34,-8.05,0.00,0.00,-0.01,-28.35,15.36,-26.17
21553,-0.52,6.34,-8.09,0.00,0.00,-0.01,-28.56,16.09,-24.56
21564,-0.52,6.34,-8.09,0.00,0.00,-0.01,-28.56,16.09,-24.56
21575,-0.51,6.32,-8.07,0.00,0.00,-0.01,-28.56,16.09,-24.56
21586,-0.51,6.32,-8.07,0.00,0.00,-0.01,-28.56,16.09,-24.56
21597,-0.48,6.35,-8.04,0.00,0.00,-0.01,-28.56,16.09,-24.56
21608,-0.48,6.35,-8.04,0.00,0.00,-0.01,-28.56,16.09,-24.56
21619,-0.48,6.35,-8.07,-0.00,0.00,-0.01,-28.56,16.09,-24.56
21630,-0.48,6.35,-8.07,-0.00,0.00,-0.01,-28.56,16.09,-24.56
21641,-0.51,6.35,-8.05,-0.00,0.00,-0.01,-28.56,16.09,-24.56
21652,-0.51,6.35,-8.05,-0.00,0.00,-0.01,-28.56,16.09,-24.56
21663,-0.53,6.33,-8.08,0.00,0.00,-0.01,-28.56,16.09,-24.56
21674,-0.50,6.34,-8.08,0.00,0.00,-0.01,-27.49,15.94,-25.81
21685,-0.50,6.34,-8.08,0.00,0.00,-0.01,-27.49,15.94,-25.81
21696,-0.50,6.35,-8.07,0.00,0.00,-0.01,-27.49,15.94,-25.81
21707,-0.50,6.35,-8.07,0.00,0.00,-0.01,-27.49,15.94,-25.81
21718,-0.50,6.34,-8.05,0.00,0.00,-0.01,-27.49,15.94,-25.81
21729,-0.50,6.34,-8.05,0.00,0.00,-0.01,-27.49,15.94,-25.81
21740,-0.51,6.35,-8.06,0.00,0.00,-0.01,-27.49,15.94,-25.81
21751,-0.51,6.35,-8.06,0.00,0.00,-0.01,-27.49,15.94,-25.81
21762,-0.51,6.34,-8.07,0.00,0.00,-0.01,-27.49,15.94,-25.81
21773,-0.50,6.32,-8.05,0.00,0.00,-0.01,-27.49,15.94,-25.81
21784,-0.50,6.32,-8.05,0.00,0.00,-0.01,-27.49,15.94,-25.81
21795,-0.50,6.35,-8.06,0.00,0.00,-0.01,-28.35,15.94,-24.74
21806,-0.50,6.35,-8.06,0.00,0.00,-0.01,-28.35,15.94,-24.74
21817,-0.50,6.34,-8.07,0.00,0.00,-0.01,-28.35,15.94,-24.74
21828,-0.50,6.34,-8.07,0.00,0.00,-0.01,-28.35,15.94,-24.74
21839,-0.51,6.33,-8.06,-0.00,0.00,-0.01,-28.35,15.94,-24.74
21850,-0.51,6.33,-8.06,-0.00,0.00,-0.01,-28.35,15.94,-24.74
21861,-0.49,6.33,-8.07,-0.00,0.00,-0.01,-28.35,15.94,-24.74
21872,-0.49,6.33,-8.07,-0.00,0.00,-0.01,-28.35,15.94,-24.74
21883,-0.50,6.33,-8.05,-0.00,0.00,-0.01,-28.35,15.94,-24.74
21894,-0.51,6.33,-8.08,-0.00,0.00,-0.01,-28.35,15.94,-24.74
21905,-0.51,6.33,-8.08,-0.00,0.00,-0.01,-28.35,15.94,-24.74
21916,-0.51,6.34,-8.07,-0.00,0.00,-0.01,-28.35,15.94,-24.74
21927,-0.51,6.34,-8.07,-0.00,0.00,-0.01,-28.35,15.94,-24.74
21938,-0.51,6.34,-8.07,-0.00,0.00,-0.01,-27.92,15.94,-25.81
21949,-0.51,6.34,-8.07,-0.00,0.00,-0.01,-27.92,15.94,-25.81
21960,-0.49,6.33,-8.07,0.00,0.00,-0.01,-27.92,15.94,-25.81
21971,-0.49,6.33,-8.07,0.00,0.00,-0.01,-27.92,15.94,-25.81
21982,-0.50,6.34,-8.07,0.00,0.00,-0.01,-27.92,15.94,-25.81
21993,-0.50,6.34,-8.07,0.00,0.00,-0.01,-27.92,15.94,-25.81
22004,-0.51,6.34,-8.05,-0.00,0.00,-0.01,-27.92,15.94,-25.81
22015,-0.51,6.34,-8.06,-0.00,0.00,-0.01,-27.92,15.94,-25.81
22026,-0.51,6.34,-8.06,-0.00,0.00,-0.01,-27.92,15.94,-25.81
22037,-0.51,6.35,-8.06,-0.00,0.00,-0.01,-27.92,15.94,-25.81
22048,-0.51,6.35,-8.06,-0.00,0.00,-0.01,-27.92,15.94,-25.81
22059,-0.51,6.33,-8.08,-0.00,0.00,-0.01,-27.71,14.62,-24.20
22070,-0.51,6.33,-8.08,-0.00,0.00,-0.01,-27.71,14.62,-24.20
22081,-0.51,6.34,-8.07,-0.00,0.00,-0.01,-27.71,14.62,-24.20
22093,-0.51,6.34,-8.07,-0.00,0.00,-0.01,-27.71,14.62,-24.20
22103,-0.51,6.34,-8.06,-0.00,0.00,-0.01,-27.71,14.62,-24.20
22114,-0.51,6.33,-8.06,-0.00,0.00,-0.01,-27.71,14.62,-24.20
22125,-0.51,6.33,-8.06,-0.00,0.00,-0.01,-27.71,14.62,-24.20
22136,-0.51,6.34,-8.05,-0.01,0.00,-0.01,-27.71,14.62,-24.20
22147,-0.51,6.34,-8.05,-0.01,0.00,-0.01,-27.71,14.62,-24.20
22158,-0.48,6.34,-8.08,-0.02,0.01,-0.00,-27.71,14.62,-24.20
22169,-0.48,6.34,-8.08,-0.02,0.01,-0.00,-27.71,14.62,-24.20
22180,-0.49,6.35,-8.08,-0.02,0.01,-0.00,-29.42,14.62,-23.85
22191,-0.49,6.35,-8.08,-0.02,0.01,-0.00,-29.42,14.62,-23.85
22202,-0.51,6.34,-8.07,-0.00,0.00,-0.01,-29.42,14.62,-23.85
22213,-0.51,6.34,-8.07,-0.00,0.00,-0.01,-29.42,14.62,-23.85
22224,-0.56,6.37,-8.04,0.03,0.02,0.00,-29.42,14.62,-23.85
22235,-0.57,6.41,-8.02,0.09,0.07,0.02,-29.42,14.62,-23.85
22246,-0.57,6.41,-8.02,0.09,0.07,0.02,-29.42,14.62,-23.85
22257,-0.34,6.19,-8.16,0.05,0.08,-0.02,-29.42,14.62,-23.85
22268,-0.34,6.19,-8.16,0.05,0.08,-0.02,-29.42,14.62,-23.85
22279,-0.44,6.37,-8.08,-0.06,-0.02,-0.03,-29.42,14.62,-23.85
22290,-0.44,6.37,-8.08,-0.06,-0.02,-0.03,-29.42,14.62,-23.85
22301,-0.52,6.35,-8.04,-0.09,-0.06,-0.05,-29.42,14.62,-23.85
22312,-0.52,6.35,-8.04,-0.09,-0.06,-0.05,-29.42,14.62,-23.85
22329,-0.57,6.37,-8.03,0.02,0.01,-0.00,-28.99,15.21,-26.70
22334,-0.50,6.27,-8.04,0.07,0.08,0.01,-28.99,15.21,-26.70
22345,-0.50,6.27,-8.04,0.07,0.08,0.01,-28.99,15.21,-26.70
22356,-0.11,6.55,-7.90,0.02,0.17,-0.08,-28.99,15.21,-26.70
22367,-0.11,6.55,-7.90,0.02,0.17,-0.08,-28.99,15.21,-26.70
22378,-0.49,6.18,-8.19,0.06,0.44,-0.30,-28.99,15.21,-26.70
22389,-0.49,6.18,-8.19,0.06,0.44,-0.30,-28.99,15.21,-26.70
22400,-0.64,6.05,-8.25,-0.03,0.52,-0.56,-28.99,15.21,-26.70
22411,-0.64,6.05,-8.25,-0.03,0.52,-0.56,-28.99,15.21,-26.70
22422,-0.47,6.31,-8.13,-0.08,0.35,-0.45,-28.99,15.21,-26.70
22433,-0.47,6.31,-8.13,-0.08,0.35,-0.45,-28.99,15.21,-26.70
22444,-0.42,6.35,-8.13,-0.01,0.10,-0.08,-28.78,14.77,-27.24
22455,-0.96,6.28,-8.09,0.04,0.05,-0.00,-28.78,14.77,-27.24
22466,-0.96,6.28,-8.09,0.04,0.05,-0.00,-28.78,14.77,-27.24
22477,-0.28,6.44,-7.96,0.01,0.01,-0.03,-28.78,14.77,-27.24
22488,-0.28,6.44,-7.96,0.01,0.01,-0.03,-28.78,14.77,-27.24
22499,-0.17,6.38,-8.08,-0.03,-0.09,0.08,-28.78,14.77,-27.24
22515,-0.17,6.38,-8.08,-0.03,-0.09,0.08,-28.78,14.77,-27.24
22521,-0.47,6.13,-8.23,-0.02,-0.15,0.21,-28.78,14.77,-27.24
22532,-0.47,6.13,-8.23,-0.02,-0.15,0.21,-28.78,14.77,-27.24
22543,-0.45,6.31,-8.10,-0.03,-0.02,0.07,-28.78,14.77,-27.24
22554,-0.38,6.36,-8.08,-0.02,0.04,-0.00,-28.56,15.50,-27.06
22565,-0.38,6.36,-8.08,-0.02,0.04,-0.00,-28.56,15.50,-27.06
22576,-0.38,6.37,-8.06,-0.01,0.05,-0.04,-28.56,15.50,-27.06
22587,-0.38,6.37,-8.06,-0.01,0.05,-0.04,-28.56,15.50,-27.06
22598,-0.39,6.36,-8.03,-0.01,0.14,-0.15,-28.56,15.50,-27.06
22609,-0.39,6.36,-8.03,-0.01,0.14,-0.15,-28.56,15.50,-27.06
22620,-0.35,6.35,-8.07,-0.03,0.26,-0.31,-28.56,15.50,-27.06
22631,-0.35,6.35,-8.07,-0.03,0.26,-0.31,-28.56,15.50,-27.06
22642,-0.37,6.31,-8.06,-0.02,0.27,-0.28,-28.56,15.50,-27.06
22653,-0.37,6.31,-8.06,-0.02,0.27,-0.28,-28.56,15.50,-27.06
22664,-0.46,6.29,-8.09,-0.01,0.17,-0.14,-28.56,15.50,-27.06
22675,-0.24,6.36,-8.08,-0.02,0.05,-0.00,-28.35,14.48,-25.81
22686,-0.24,6.36,-8.08,-0.02,0.05,-0.00,-28.35,14.48,-25.81
22697,-0.37,6.33,-8.08,-0.02,0.03,0.01,-28.35,14.48,-25.81
22708,-0.37,6.33,-8.08,-0.02,0.03,0.01,-28.35,14.48,-25.81
22719,-0.50,6.35,-8.07,-0.01,-0.04,0.11,-28.35,14.48,-25.81
22730,-0.50,6.35,-8.07,-0.01,-0.04,0.11,-28.35,14.48,-25.81
22749,-0.40,6.34,-8.05,0.02,-0.11,0.14,-28.35,14.48,-25.81
22752,-0.40,6.34,-8.05,0.02,-0.11,0.14,-28.35,14.48,-25.81
22763,-0.34,6.37,-8.04,0.01,-0.03,0.06,-28.35,14.48,-25.81
22774,-0.32,6.35,-8.06,0.01,0.01,0.01,-28.35,14.48,-25.81
22785,-0.32,6.35,-8.06,0.01,0.01,0.01,-28.35,14.48,-25.81
22796,-0.36,6.34,-8.07,0.01,-0.00,-0.00,-28.35,14.48,-25.81
22807,-0.36,6.34,-8.07,0.01,-0.00,-0.00,-28.35,14.48,-25.81
22818,-0.35,6.33,-8.06,0.00,0.00,-0.00,-26.85,15.21,-26.35
22829,-0.35,6.33,-8.06,0.00,0.00,-0.00,-26.85,15.21,-26.35
22840,-0.31,6.35,-8.08,-0.02,0.01,0.01,-26.85,15.21,-26.35
22851,-0.31,6.35,-8.08,-0.02,0.01,0.01,-26.85,15.21,-26.35
22862,-0.31,6.36,-8.05,-0.03,0.02,0.00,-26.85,15.21,-26.35
22873,-0.31,6.36,-8.05,-0.03,0.02,0.00,-26.85,15.21,-26.35
22884,-0.31,6.37,-8.04,-0.01,0.02,-0.03,-26.85,15.21,-26.35
22895,-0.31,6.32,-8.05,0.00,0.03,-0.08,-26.85,15.21,-26.35
22906,-0.31,6.32,-8.05,0.00,0.03,-0.08,-26.85,15.21,-26.35
22917,-0.39,6.36,-8.03,0.01,-0.04,-0.00,-26.85,15.21,-26.35
22928,-0.39,6.36,-8.03,0.01,-0.04,-0.00,-26.85,15.21,-26.35
22939,-0.47,6.34,-8.07,0.01,-0.07,-0.03,-28.35,14.77,-25.10
22950,-0.47,6.34,-8.07,0.01,-0.07,-0.03,-28.35,14.77,-25.10
22961,-0.37,6.35,-8.05,0.00,-0.05,-0.01,-28.35,14.77,-25.10
22972,-0.37,6.35,-8.05,0.00,-0.05,-0.01,-28.35,14.77,-25.10
22983,-0.37,6.35,-8.06,0.01,-0.06,0.03,-28.35,14.77,-25.10
22994,-0.37,6.35,-8.06,0.01,-0.06,0.03,-28.35,14.77,-25.10
23005,-0.39,6.34,-8.08,0.02,-0.02,-0.00,-28.35,14.77,-25.10
23016,-0.38,6.34,-8.08,0.02,0.01,-0.00,-28.35,14.77,-25.10
23027,-0.38,6.34,-8.08,0.02,0.01,-0.00,-28.35,14.77,-25.10
23038,-0.36,6.33,-8.06,-0.00,0.03,0.02,-28.35,14.77,-25.10
23049,-0.36,6.33,-8.06,-0.00,0.03,0.02,-28.35,14.77,-25.10
23060,-0.34,6.36,-8.08,-0.02,0.02,0.01,-29.85,13.74,-26.70
23071,-0.34,6.36,-8.08,-0.02,0.02,0.01,-29.85,13.74,-26.70
23082,-0.36,6.36,-8.08,-0.02,0.00,-0.01,-29.85,13.74,-26.70
23093,-0.36,6.36,-8.08,-0.02,0.00,-0.01,-29.85,13.74,-26.70
23104,-0.36,6.34,-8.06,-0.01,0.00,-0.01,-29.85,13.74,-26.70
23115,-0.35,6.36,-8.04,0.00,0.01,-0.00,-29.85,13.74,-26.70
23126,-0.35,6.36,-8.04,0.00,0.01,-0.00,-29.85,13.74,-26.70
23137,-0.34,6.34,-8.09,0.02,-0.01,-0.01,-29.85,13.74,-26.70
23148,-0.34,6.34,-8.09,0.02,-0.01,-0.01,-29.85,13.74,-26.70
23159,-0.36,6.33,-8.05,0.01,-0.01,-0.02,-29.85,13.74,-26.70
23170,-0.36,6.33,-8.05,0.01,-0.01,-0.02,-29.85,13.74,-26.70
23181,-0.38,6.33,-8.04,0.00,-0.01,-0.01,-29.85,13.74,-26.70
23192,-0.38,6.33,-8.04,0.00,-0.01,-0.01,-29.85,13.74,-26.70
23203,-0.37,6.36,-8.05,-0.01,0.01,-0.02,-26.42,14.92,-24.92
