time,ax,ay,az,gx,gy,gz,mx,my,mz
401,-0.22,5.71,-8.66,0.00,-0.02,0.02,-17.21,18.30,-25.14
411,-0.36,6.45,-7.99,0.01,-0.14,0.16,-17.21,18.30,-25.14
423,-0.36,6.45,-7.99,0.01,-0.14,0.16,-17.21,18.30,-25.14
433,-0.62,6.70,-7.76,-0.00,-0.13,0.16,-17.21,18.30,-25.14
444,-0.62,6.70,-7.76,-0.00,-0.13,0.16,-17.21,18.30,-25.14
455,-0.43,6.34,-8.04,0.00,-0.02,0.03,-17.21,18.30,-25.14
466,-0.43,6.34,-8.04,0.00,-0.02,0.03,-17.21,18.30,-25.14
582,-0.40,6.32,-8.09,0.00,0.00,-0.01,-17.61,18.62,-25.82
593,-0.43,6.32,-8.05,0.00,0.00,-0.01,-17.61,18.62,-25.82
604,-0.43,6.32,-8.05,0.00,0.00,-0.01,-17.61,18.62,-25.82
615,-0.44,6.34,-8.05,-0.00,0.00,-0.01,-17.61,18.62,-25.82
626,-0.44,6.34,-8.05,-0.00,0.00,-0.01,-17.61,18.62,-25.82
637,-0.41,6.31,-8.05,-0.00,0.00,-0.01,-16.01,18.30,-26.51
648,-0.41,6.31,-8.05,0.00,0.00,-0.01,-16.01,18.30,-26.51
659,-0.41,6.31,-8.05,0.00,0.00,-0.01,-16.01,18.30,-26.51
670,-0.40,6.31,-8.07,-0.00,0.00,-0.01,-16.01,18.30,-26.51
681,-0.40,6.31,-8.07,-0.00,0.00,-0.01,-16.01,18.30,-26.51
692,-0.43,6.33,-8.08,-0.00,-0.00,-0.01,-16.01,18.30,-26.51
703,-0.43,6.33,-8.08,-0.00,-0.00,-0.01,-16.01,18.30,-26.51
714,-0.42,6.35,-8.04,-0.00,0.00,-0.01,-16.01,18.30,-26.51
725,-0.42,6.35,-8.04,-0.00,0.00,-0.01,-16.01,18.30,-26.51
736,-0.41,6.34,-8.05,0.00,0.00,-0.01,-16.01,18.30,-26.51
747,-0.41,6.32,-8.07,0.00,0.00,-0.01,-16.81,18.30,-25.14
758,-0.41,6.32,-8.07,0.00,0.00,-0.01,-16.81,18.30,-25.14
859,-0.41,6.33,-8.07,-0.00,0.00,-0.01,-16.81,18.30,-25.14
870,-0.42,6.31,-8.09,-0.00,0.00,-0.01,-16.61,18.78,-23.59
881,-0.42,6.31,-8.09,-0.00,0.00,-0.01,-16.61,18.78,-23.59
892,-0.42,6.33,-8.06,-0.00,0.00,-0.01,-16.61,18.78,-23.59
903,-0.42,6.33,-8.06,-0.00,0.00,-0.01,-16.61,18.78,-23.59
914,-0.42,6.33,-8.03,-0.00,0.00,-0.01,-16.61,18.78,-23.59
925,-0.42,6.33,-8.03,-0.00,0.00,-0.01,-16.61,18.78,-23.59
936,-0.42,6.32,-8.04,-0.00,0.00,-0.01,-16.61,18.78,-23.59
947,-0.43,6.31,-8.05,0.00,0.00,-0.01,-16.61,18.78,-23.59
958,-0.43,6.31,-8.05,0.00,0.00,-0.01,-16.61,18.78,-23.59
969,-0.43,6.31,-8.05,0.00,0.00,-0.01,-16.61,18.78,-23.59
980,-0.43,6.31,-8.05,0.00,0.00,-0.01,-16.61,18.78,-23.59
991,-0.42,6.33,-8.05,0.00,0.00,-0.01,-16.61,18.78,-23.59
1092,-0.42,6.34,-8.03,-0.00,0.00,-0.01,-17.41,19.41,-23.93
1102,-0.42,6.34,-8.03,-0.00,0.00,-0.01,-17.41,19.41,-23.93
1113,-0.41,6.33,-8.05,-0.00,0.00,-0.01,-17.41,19.41,-23.93
1124,-0.41,6.33,-8.05,-0.00,0.00,-0.01,-17.41,19.41,-23.93
1135,-0.41,6.32,-8.08,-0.00,0.00,-0.01,-16.21,18.14,-24.28
1146,-0.41,6.32,-8.08,-0.00,0.00,-0.01,-16.21,18.14,-24.28
1157,-0.41,6.32,-8.04,-0.00,0.00,-0.01,-16.21,18.14,-24.28
1168,-0.44,6.34,-8.07,0.00,0.00,-0.01,-16.21,18.14,-24.28
1179,-0.44,6.34,-8.07,0.00,0.00,-0.01,-16.21,18.14,-24.28
1190,-0.43,6.33,-8.04,0.00,0.00,-0.01,-16.21,18.14,-24.28
1201,-0.43,6.33,-8.04,0.00,0.00,-0.01,-16.21,18.14,-24.28
1212,-0.41,6.32,-8.05,0.00,0.00,-0.01,-16.21,18.14,-24.28
1223,-0.41,6.32,-8.05,0.00,0.00,-0.01,-16.21,18.14,-24.28
1234,-0.41,6.32,-8.08,0.00,0.00,-0.01,-16.21,18.14,-24.28
1245,-0.41,6.32,-8.08,0.00,0.00,-0.01,-16.21,18.14,-24.28
1256,-0.41,6.32,-8.05,0.00,0.00,-0.01,-18.21,17.83,-24.62
1267,-0.41,6.32,-8.05,0.00,0.00,-0.01,-18.21,17.83,-24.62
1366,-0.44,6.33,-8.06,-0.00,0.00,-0.01,-18.21,17.83,-24.62
1376,-0.43,6.33,-8.06,-0.00,0.00,-0.01,-17.21,19.26,-24.10
1387,-0.43,6.33,-8.06,-0.00,0.00,-0.01,-17.21,19.26,-24.10
1398,-0.42,6.34,-8.06,-0.00,0.00,-0.01,-17.21,19.26,-24.10
1409,-0.40,6.33,-8.04,-0.00,0.00,-0.01,-17.21,19.26,-24.10
1420,-0.40,6.33,-8.04,-0.00,0.00,-0.01,-17.21,19.26,-24.10
1431,-0.42,6.32,-8.05,0.00,0.00,-0.01,-17.21,19.26,-24.10
1442,-0.42,6.32,-8.05,0.00,0.00,-0.01,-17.21,19.26,-24.10
1453,-0.44,6.29,-8.05,-0.00,0.00,-0.01,-17.21,19.26,-24.10
1464,-0.44,6.29,-8.05,-0.00,0.00,-0.01,-17.21,19.26,-24.10
1475,-0.43,6.33,-8.04,-0.00,0.00,-0.01,-17.21,19.26,-24.10
1486,-0.43,6.33,-8.04,-0.00,0.00,-0.01,-17.21,19.26,-24.10
1497,-0.41,6.33,-8.03,0.00,0.00,-0.01,-17.21,19.26,-24.10
1596,-0.40,6.33,-8.05,-0.00,0.00,-0.01,-16.01,18.94,-23.76
1606,-0.40,6.33,-8.05,-0.00,0.00,-0.01,-16.01,18.94,-23.76
1617,-0.41,6.34,-8.05,-0.00,0.00,-0.01,-16.01,18.94,-23.76
1628,-0.41,6.34,-8.08,-0.00,0.00,-0.01,-17.61,18.62,-23.76
1639,-0.41,6.34,-8.08,-0.00,0.00,-0.01,-17.61,18.62,-23.76
1650,-0.42,6.33,-8.07,-0.00,0.00,-0.01,-17.61,18.62,-23.76
1661,-0.42,6.33,-8.07,-0.00,0.00,-0.01,-17.61,18.62,-23.76
1672,-0.44,6.34,-8.07,-0.00,0.00,-0.01,-17.61,18.62,-23.76
1683,-0.44,6.34,-8.07,-0.00,0.00,-0.01,-17.61,18.62,-23.76
1694,-0.45,6.33,-8.01,-0.00,0.00,-0.01,-17.61,18.62,-23.76
1705,-0.45,6.33,-8.01,-0.00,0.00,-0.01,-17.61,18.62,-23.76
1716,-0.40,6.34,-8.05,0.00,0.02,0.01,-17.61,18.62,-23.76
1727,-0.40,6.34,-8.05,0.00,0.02,0.01,-17.61,18.62,-23.76
1738,-0.42,6.31,-8.05,-0.00,0.01,-0.00,-17.61,18.62,-23.76
1749,-0.45,6.30,-8.08,-0.01,0.01,-0.00,-16.01,17.67,-24.79
1760,-0.45,6.30,-8.08,-0.01,0.01,-0.00,-16.01,17.67,-24.79
1771,-0.36,6.33,-8.07,-0.02,-0.00,-0.01,-16.01,17.67,-24.79
1872,-0.43,6.33,-8.06,0.00,-0.00,-0.01,-16.01,17.67,-24.79
1882,-0.43,6.33,-8.06,0.00,-0.00,-0.01,-16.01,17.67,-24.79
1893,-0.44,6.33,-8.05,0.00,-0.00,-0.01,-17.01,18.46,-25.31
1904,-0.44,6.33,-8.05,0.00,-0.00,-0.01,-17.01,18.46,-25.31
1915,-0.43,6.34,-8.05,-0.00,-0.00,-0.01,-17.01,18.46,-25.31
1926,-0.43,6.34,-8.05,-0.00,-0.00,-0.01,-17.01,18.46,-25.31
1937,-0.43,6.33,-8.04,0.00,0.00,-0.01,-17.01,18.46,-25.31
1948,-0.43,6.33,-8.04,0.00,0.00,-0.01,-17.01,18.46,-25.31
1959,-0.45,6.32,-8.05,-0.00,-0.00,-0.01,-17.01,18.46,-25.31
1970,-0.44,6.34,-8.07,-0.00,-0.00,-0.01,-17.01,18.46,-25.31
1981,-0.44,6.34,-8.07,-0.00,-0.00,-0.01,-17.01,18.46,-25.31
1992,-0.44,6.34,-8.05,-0.01,-0.00,-0.01,-17.01,18.46,-25.31
2003,-0.44,6.34,-8.05,-0.01,-0.00,-0.01,-17.01,18.46,-25.31
2106,-0.22,9.55,-11.93,2.96,0.14,0.24,-16.41,18.62,-23.42
2116,-1.71,6.43,-9.18,7.74,0.12,0.08,-16.41,18.62,-23.42
2127,-1.71,6.43,-9.18,7.74,0.12,0.08,-16.41,18.62,-23.42
2138,-0.37,2.59,-6.84,9.58,0.34,0.08,-15.00,6.71,-33.91
2149,0.35,0.63,-9.33,7.82,0.89,-0.14,-15.00,6.71,-33.91
2160,0.35,0.63,-9.33,7.82,0.89,-0.14,-15.00,6.71,-33.91
2171,1.39,-4.59,-8.04,6.98,1.42,-0.31,-15.00,6.71,-33.91
2182,1.39,-4.59,-8.04,6.98,1.42,-0.31,-15.00,6.71,-33.91
2193,1.22,-7.99,-10.82,4.07,2.28,-0.02,-15.00,6.71,-33.91
2204,1.22,-7.99,-10.82,4.07,2.28,-0.02,-15.00,6.71,-33.91
2215,2.99,-3.74,-17.22,1.64,2.18,0.81,-15.00,6.71,-33.91
2226,2.99,-3.74,-17.22,1.64,2.18,0.81,-15.00,6.71,-33.91
2237,1.38,2.08,-19.54,1.31,0.35,0.70,-15.00,6.71,-33.91
2248,1.38,2.08,-19.54,1.31,0.35,0.70,-15.00,6.71,-33.91
2259,0.04,1.74,-15.40,2.61,-1.55,-0.39,-15.00,6.71,-33.91
2270,1.47,-1.47,-11.74,3.63,-2.61,-1.27,-8.39,-12.83,-36.49
2281,1.47,-1.47,-11.74,3.63,-2.61,-1.27,-8.39,-12.83,-36.49
2292,2.05,-3.79,-10.54,4.30,-3.36,-1.33,-8.39,-12.83,-36.49
2434,-0.06,-6.64,-3.68,3.17,-6.70,1.53,-26.83,-31.90,-12.75
2444,-0.06,-6.64,-3.68,3.17,-6.70,1.53,-26.83,-31.90,-12.75
2455,-0.10,-6.06,-1.21,1.34,-7.13,1.87,-26.83,-31.90,-12.75
2466,-0.10,-6.06,-1.21,1.34,-7.13,1.87,-26.83,-31.90,-12.75
2477,-1.40,-3.78,-2.13,-2.27,-7.97,1.60,-26.83,-31.90,-12.75
2488,-1.40,-3.78,-2.13,-2.27,-7.97,1.60,-26.83,-31.90,-12.75
2499,1.04,-4.99,1.08,-1.27,-8.77,1.46,-26.83,-31.90,-12.75
2510,-1.47,-7.67,10.79,1.79,-8.23,2.18,-31.24,-29.67,25.09
2521,-1.47,-7.67,10.79,1.79,-8.23,2.18,-31.24,-29.67,25.09
2532,-3.41,-3.02,10.60,-0.87,-6.66,3.04,-31.24,-29.67,25.09
2543,-3.41,-3.02,10.60,-0.87,-6.66,3.04,-31.24,-29.67,25.09
2554,-7.05,1.15,9.37,-3.28,-5.01,2.21,-31.24,-29.67,25.09
2655,-4.80,-4.48,1.79,4.37,-4.02,1.74,-21.62,-21.73,38.51
2666,-4.80,-4.48,1.79,4.37,-4.02,1.74,-21.62,-21.73,38.51
2677,-4.41,-1.50,4.75,6.74,-4.62,3.13,-21.62,-21.73,38.51
2688,-4.41,-1.50,4.75,6.74,-4.62,3.13,-21.62,-21.73,38.51
2699,-6.16,4.18,12.67,5.95,-3.52,3.14,-21.62,-21.73,38.51
2710,-9.40,0.74,9.75,5.45,-1.19,1.26,-21.62,-21.73,38.51
2721,-9.40,0.74,9.75,5.45,-1.19,1.26,-21.62,-21.73,38.51
2732,-8.20,-1.51,5.30,7.16,0.17,0.48,-21.62,-21.73,38.51
2743,-8.20,-1.51,5.30,7.16,0.17,0.48,-21.62,-21.73,38.51
2754,-9.22,3.58,0.42,9.31,0.26,0.58,-21.62,-21.73,38.51
2765,-9.22,3.58,0.42,9.31,0.26,0.58,-21.62,-21.73,38.51
2776,-6.86,6.29,14.81,15.62,-0.15,0.43,-13.00,13.38,40.06
2787,-6.86,6.29,14.81,15.62,-0.15,0.43,-13.00,13.38,40.06
2886,-8.75,2.01,4.83,-0.88,1.02,-0.89,-13.00,13.38,40.06
2896,-8.16,2.95,6.66,0.47,1.04,-0.88,-21.02,19.10,30.77
2907,-8.16,2.95,6.66,0.47,1.04,-0.88,-21.02,19.10,30.77
2918,-7.39,3.02,5.87,1.00,1.02,-1.05,-21.02,19.10,30.77
2929,-6.53,0.06,7.17,-0.05,0.69,-1.18,-21.02,19.10,30.77
2940,-6.53,0.06,7.17,-0.05,0.69,-1.18,-21.02,19.10,30.77
2951,-6.93,0.58,5.46,-1.81,0.65,-0.93,-21.02,19.10,30.77
2962,-6.93,0.58,5.46,-1.81,0.65,-0.93,-21.02,19.10,30.77
2973,-6.60,-1.45,3.23,-2.77,0.56,-0.55,-21.02,19.10,30.77
2984,-6.60,-1.45,3.23,-2.77,0.56,-0.55,-21.02,19.10,30.77
2995,-7.20,0.85,3.97,-2.83,0.22,0.34,-21.02,19.10,30.77
3006,-7.20,0.85,3.97,-2.83,0.22,0.34,-21.02,19.10,30.77
3017,-7.46,5.04,6.23,-2.96,-0.11,0.43,-23.83,13.70,34.55
3028,-7.46,5.04,6.23,-2.96,-0.11,0.43,-23.83,13.70,34.55
3039,-8.31,2.25,6.52,-2.60,0.03,-0.08,-23.83,13.70,34.55
3050,-9.68,0.83,6.94,-1.65,0.03,0.17,-23.83,13.70,34.55
3061,-9.68,0.83,6.94,-1.65,0.03,0.17,-23.83,13.70,34.55
3072,-8.37,1.61,6.55,-1.45,-0.15,0.36,-23.83,13.70,34.55
3173,-8.06,2.05,5.44,-0.33,-0.08,0.37,-22.02,10.36,36.79
3183,-8.06,2.05,5.44,-0.33,-0.08,0.37,-22.02,10.36,36.79
3194,-8.31,1.82,6.81,-0.57,0.02,-0.03,-22.02,10.36,36.79
3205,-8.31,1.82,6.81,-0.57,0.02,-0.03,-22.02,10.36,36.79
3221,-8.24,0.28,5.66,-0.86,0.22,-0.26,-22.02,10.36,36.79
3227,-8.24,0.28,5.66,-0.86,0.22,-0.26,-22.02,10.36,36.79
3238,-7.62,0.75,4.51,-0.82,0.15,-0.02,-22.02,10.36,36.79
3249,-7.62,0.75,4.51,-0.82,0.15,-0.02,-22.02,10.36,36.79
3260,-8.58,0.47,6.17,-0.10,0.00,0.17,-22.02,10.36,36.79
3271,-8.52,0.08,6.44,-0.24,-0.05,0.03,-25.03,9.88,38.34
3282,-8.52,0.08,6.44,-0.24,-0.05,0.03,-25.03,9.88,38.34
3293,-8.16,0.22,4.75,-0.46,0.03,-0.04,-25.03,9.88,38.34
3304,-8.16,0.22,4.75,-0.46,0.03,-0.04,-25.03,9.88,38.34
3407,-7.12,-0.05,4.97,-0.18,0.61,0.10,-23.83,6.71,40.06
3417,-6.72,1.30,5.11,-0.13,0.31,0.42,-23.83,6.71,40.06
3428,-6.72,1.30,5.11,-0.13,0.31,0.42,-23.83,6.71,40.06
3439,-7.40,0.72,4.94,-0.25,-0.06,0.30,-23.83,6.71,40.06
3450,-8.06,-0.10,6.09,-0.24,-0.31,0.08,-23.83,6.71,40.06
3461,-8.06,-0.10,6.09,-0.24,-0.31,0.08,-23.83,6.71,40.06
3472,-8.84,-1.69,5.31,-0.33,-0.32,-0.10,-23.83,6.71,40.06
3483,-8.84,-1.69,5.31,-0.33,-0.32,-0.10,-23.83,6.71,40.06
3494,-9.05,-1.77,5.20,-0.36,-0.25,-0.10,-23.83,6.71,40.06
3505,-9.05,-1.77,5.20,-0.36,-0.25,-0.10,-23.83,6.71,40.06
3516,-9.07,-0.08,6.35,-0.09,-0.07,-0.08,-23.83,6.71,40.06
3527,-9.07,-0.08,6.35,-0.09,-0.07,-0.08,-23.83,6.71,40.06
3538,-9.11,0.54,6.21,0.07,0.28,-0.10,-22.62,5.44,39.37
3549,-9.11,0.54,6.21,0.07,0.28,-0.10,-22.62,5.44,39.37
3560,-9.02,0.48,6.85,0.24,0.55,-0.26,-22.62,5.44,39.37
3571,-8.41,0.06,5.62,0.31,0.87,-0.49,-22.62,5.44,39.37
3582,-8.41,0.06,5.62,0.31,0.87,-0.49,-22.62,5.44,39.37
3593,-8.20,0.18,4.70,0.40,0.96,-0.58,-22.62,5.44,39.37
3696,-8.35,-1.13,5.23,-0.69,-0.38,-0.17,-29.04,6.39,36.27
3706,-8.35,-1.13,5.23,-0.69,-0.38,-0.17,-29.04,6.39,36.27
3717,-8.99,-0.62,5.07,-0.61,-0.34,0.13,-29.04,6.39,36.27
3728,-8.99,-0.62,5.07,-0.61,-0.34,0.13,-29.04,6.39,36.27
3739,-8.99,0.47,5.51,-0.27,-0.19,0.26,-29.04,6.39,36.27
3750,-8.82,-1.01,4.05,0.03,-0.02,0.25,-29.04,6.39,36.27
3761,-8.82,-1.01,4.05,0.03,-0.02,0.25,-29.04,6.39,36.27
3772,-9.22,0.79,5.82,0.50,0.07,0.45,-27.03,6.07,37.99
3783,-9.22,0.79,5.82,0.50,0.07,0.45,-27.03,6.07,37.99
3794,-8.50,-0.50,5.14,0.40,0.30,0.21,-27.03,6.07,37.99
3805,-8.50,-0.50,5.14,0.40,0.30,0.21,-27.03,6.07,37.99
3816,-7.96,0.09,4.58,0.30,0.33,0.13,-27.03,6.07,37.99
3827,-7.96,0.09,4.58,0.30,0.33,0.13,-27.03,6.07,37.99
3838,-8.14,0.26,5.68,0.17,0.17,0.16,-27.03,6.07,37.99
3939,-6.98,-1.83,5.87,-0.32,0.14,0.00,-25.43,5.12,37.99
3950,-11.44,-2.38,3.67,-0.06,0.26,0.21,-25.43,5.12,37.99
3961,-11.44,-2.38,3.67,-0.06,0.26,0.21,-25.43,5.12,37.99
3972,-8.98,0.13,4.70,-0.17,-0.21,0.55,-25.43,5.12,37.99
3983,-8.98,0.13,4.70,-0.17,-0.21,0.55,-25.43,5.12,37.99
3994,-9.07,1.80,5.13,-0.07,-0.33,0.53,-25.43,5.12,37.99
4005,-9.07,1.80,5.13,-0.07,-0.33,0.53,-25.43,5.12,37.99
4016,-8.86,0.99,5.69,-0.06,-0.24,0.19,-25.43,5.12,37.99
4027,-8.86,0.99,5.69,-0.06,-0.24,0.19,-25.43,5.12,37.99
4038,-9.00,0.35,4.50,-0.17,-0.11,-0.00,-24.43,5.28,38.16
4049,-9.00,0.35,4.50,-0.17,-0.11,-0.00,-24.43,5.28,38.16
4060,-9.56,-1.07,5.80,0.00,-0.06,-0.04,-24.43,5.28,38.16
4071,-11.04,1.41,3.73,-0.27,-0.04,0.04,-24.43,5.28,38.16
4082,-11.04,1.41,3.73,-0.27,-0.04,0.04,-24.43,5.28,38.16
4093,-6.47,0.44,6.06,-0.66,-0.37,-0.25,-24.43,5.28,38.16
4104,-6.47,0.44,6.06,-0.66,-0.37,-0.25,-24.43,5.28,38.16
4115,-6.77,-0.54,5.14,-0.64,0.07,-0.34,-24.43,5.28,38.16
4126,-6.77,-0.54,5.14,-0.64,0.07,-0.34,-24.43,5.28,38.16
4228,-8.94,1.17,5.47,0.35,0.08,0.20,-25.63,4.32,39.54
4239,-8.90,0.27,5.53,0.31,0.05,0.09,-25.63,4.32,39.54
4250,-8.90,0.27,5.53,0.31,0.05,0.09,-25.63,4.32,39.54
4261,-8.20,-0.17,4.80,0.23,0.15,0.18,-25.63,4.32,39.54
4272,-8.04,0.63,4.99,0.22,0.04,0.35,-28.24,4.80,38.34
4283,-8.04,0.63,4.99,0.22,0.04,0.35,-28.24,4.80,38.34
4294,-8.11,-0.04,4.86,-0.13,-0.11,0.20,-28.24,4.80,38.34
4305,-8.11,-0.04,4.86,-0.13,-0.11,0.20,-28.24,4.80,38.34
4316,-8.53,-0.02,5.41,-0.23,-0.25,0.02,-28.24,4.80,38.34
4327,-8.53,-0.02,5.41,-0.23,-0.25,0.02,-28.24,4.80,38.34
4338,-8.39,-0.90,4.93,-0.22,-0.27,-0.19,-28.24,4.80,38.34
4349,-8.39,-0.90,4.93,-0.22,-0.27,-0.19,-28.24,4.80,38.34
4360,-9.19,-1.19,5.54,-0.46,-0.28,-0.25,-28.24,4.80,38.34
4502,-9.14,1.03,5.47,0.06,-0.20,0.52,-26.03,4.32,38.51
4512,-8.19,-0.17,5.60,-0.27,-0.25,0.15,-26.03,4.32,38.51
4523,-8.19,-0.17,5.60,-0.27,-0.25,0.15,-26.03,4.32,38.51
4534,-7.56,-0.72,5.49,-0.35,-0.11,-0.09,-26.43,4.64,37.48
4545,-7.56,-0.72,5.49,-0.35,-0.11,-0.09,-26.43,4.64,37.48
4556,-8.90,-1.55,4.69,-0.26,0.06,-0.25,-26.43,4.64,37.48
4567,-8.90,-1.55,4.69,-0.26,0.06,-0.25,-26.43,4.64,37.48
4578,-8.84,0.24,3.51,-0.07,0.03,-0.05,-26.43,4.64,37.48
4589,-8.84,0.24,3.51,-0.07,0.03,-0.05,-26.43,4.64,37.48
4600,-8.85,0.70,5.26,0.28,0.02,0.08,-26.43,4.64,37.48
4611,-8.69,0.33,4.93,0.44,0.14,0.07,-26.43,4.64,37.48
4622,-8.69,0.33,4.93,0.44,0.14,0.07,-26.43,4.64,37.48
4633,-8.01,-0.28,4.75,0.46,0.18,0.14,-26.43,4.64,37.48
4644,-8.01,-0.28,4.75,0.46,0.18,0.14,-26.43,4.64,37.48
4745,-9.02,-1.09,5.18,-0.26,-0.34,-0.07,-25.83,6.71,37.99
4755,-8.80,-0.20,5.14,-0.27,-0.28,-0.13,-25.83,6.71,37.99
4766,-8.80,-0.20,5.14,-0.27,-0.28,-0.13,-25.83,6.71,37.99
4777,-8.81,-0.65,5.32,-0.35,-0.16,-0.24,-25.83,6.71,37.99
4788,-8.81,-0.65,5.32,-0.35,-0.16,-0.24,-25.83,6.71,37.99
4799,-9.24,0.19,6.36,-0.37,0.01,-0.22,-25.83,3.21,37.99
4810,-9.24,0.19,6.36,-0.37,0.01,-0.22,-25.83,3.21,37.99
4821,-8.76,-0.28,4.67,-0.27,0.25,-0.24,-25.83,3.21,37.99
4832,-8.26,0.25,6.07,0.09,0.38,-0.16,-25.83,3.21,37.99
4843,-8.26,0.25,6.07,0.09,0.38,-0.16,-25.83,3.21,37.99
4854,-8.08,-0.45,4.25,0.36,0.46,-0.08,-25.83,3.21,37.99
4865,-8.08,-0.45,4.25,0.36,0.46,-0.08,-25.83,3.21,37.99
4876,-7.95,-0.72,4.69,0.40,0.28,0.11,-25.83,3.21,37.99
4887,-7.95,-0.72,4.69,0.40,0.28,0.11,-25.83,3.21,37.99
4898,-7.76,-0.42,4.55,0.22,0.11,0.22,-25.83,3.21,37.99
4909,-7.76,-0.42,4.55,0.22,0.11,0.22,-25.83,3.21,37.99
4920,-8.21,0.56,3.94,0.11,-0.16,0.36,-26.03,5.28,37.48
5033,-8.64,0.08,5.34,0.08,-0.33,0.25,-26.03,5.28,37.48
5035,-9.03,0.24,5.41,-0.03,0.11,-0.11,-26.03,5.59,37.13
5045,-9.03,0.24,5.41,-0.03,0.11,-0.11,-26.03,5.59,37.13
5056,-8.67,0.34,4.79,0.08,0.25,-0.15,-26.03,5.59,37.13
5067,-8.67,0.34,4.79,0.08,0.25,-0.15,-26.03,5.59,37.13
5078,-8.24,0.07,5.10,0.31,0.33,-0.13,-26.03,5.59,37.13
5089,-8.24,0.07,5.10,0.31,0.33,-0.13,-26.03,5.59,37.13
5100,-8.16,-0.73,5.08,0.43,0.29,0.01,-26.03,5.59,37.13
5111,-8.16,-0.73,5.08,0.43,0.29,0.01,-26.03,5.59,37.13
5122,-7.89,-0.20,3.90,0.67,0.17,0.26,-26.03,5.59,37.13
5133,-8.36,1.10,5.79,0.61,-0.08,0.41,-26.03,5.59,37.13
5144,-8.36,1.10,5.79,0.61,-0.08,0.41,-26.03,5.59,37.13
5155,-8.44,0.80,4.65,0.02,-0.18,0.29,-26.03,5.59,37.13
5166,-8.44,0.80,4.65,0.02,-0.18,0.29,-26.03,5.59,37.13
5275,-8.52,-0.15,4.50,-0.03,0.27,-0.19,-26.43,6.86,37.48
5286,-8.52,-0.15,4.50,-0.03,0.27,-0.19,-26.43,6.86,37.48
5297,-8.83,0.79,5.46,0.22,0.27,-0.12,-26.03,6.86,37.13
5308,-8.83,0.79,5.46,0.22,0.27,-0.12,-26.03,6.86,37.13
5319,-8.33,0.47,5.18,0.28,0.35,-0.19,-26.03,6.86,37.13
5330,-8.33,0.47,5.18,0.28,0.35,-0.19,-26.03,6.86,37.13
5341,-8.28,-0.15,5.03,0.28,0.31,-0.12,-26.03,6.86,37.13
5352,-7.85,-0.85,3.87,0.36,0.21,0.10,-26.03,6.86,37.13
5363,-7.85,-0.85,3.87,0.36,0.21,0.10,-26.03,6.86,37.13
5374,-8.28,0.79,4.72,0.32,-0.03,0.35,-26.03,6.86,37.13
5385,-8.28,0.79,4.72,0.32,-0.03,0.35,-26.03,6.86,37.13
5396,-8.09,0.76,4.36,0.11,-0.18,0.37,-26.03,6.86,37.13
5407,-8.09,0.76,4.36,0.11,-0.18,0.37,-26.03,6.86,37.13
5418,-8.69,0.76,5.15,-0.02,-0.29,0.29,-25.23,8.14,35.76
5429,-8.69,0.76,5.15,-0.02,-0.29,0.29,-25.23,8.14,35.76
5440,-8.91,0.35,4.99,-0.09,-0.27,0.19,-25.23,8.14,35.76
5451,-8.91,0.35,4.99,-0.09,-0.27,0.19,-25.23,8.14,35.76
5462,-8.96,0.05,4.53,-0.10,-0.19,0.04,-25.23,8.14,35.76
5615,-6.15,1.42,6.01,-1.35,-0.84,-0.20,-25.03,6.71,35.58
5625,-6.15,1.42,6.01,-1.35,-0.84,-0.20,-25.03,6.71,35.58
5636,-8.65,0.88,5.16,-2.12,-0.45,-0.31,-25.03,6.71,35.58
5647,-8.65,0.88,5.16,-2.12,-0.45,-0.31,-25.03,6.71,35.58
5658,-6.17,-2.21,4.46,-1.90,-0.34,-0.35,-25.03,6.71,35.58
5669,-6.17,-2.21,4.46,-1.90,-0.34,-0.35,-25.03,6.71,35.58
5680,-7.26,-0.73,5.13,-0.85,-0.09,0.08,-25.03,4.16,39.37
5691,-7.26,-0.73,5.13,-0.85,-0.09,0.08,-25.03,4.16,39.37
5702,-8.49,-1.37,6.57,-0.21,0.15,-0.03,-25.03,4.16,39.37
5713,-8.24,-1.53,5.41,0.08,0.35,-0.05,-25.03,4.16,39.37
5724,-8.24,-1.53,5.41,0.08,0.35,-0.05,-25.03,4.16,39.37
5735,-8.43,-0.36,5.78,0.16,0.40,0.09,-25.03,4.16,39.37
5746,-8.43,-0.36,5.78,0.16,0.40,0.09,-25.03,4.16,39.37
5757,-8.07,-0.29,5.08,0.22,0.60,0.11,-25.03,4.16,39.37
5880,-8.93,-0.30,5.55,-0.08,-0.28,0.27,-25.03,3.85,37.65
5890,-8.93,-0.30,5.55,-0.08,-0.28,0.27,-25.03,3.85,37.65
5901,-8.91,-0.35,5.09,-0.11,-0.12,0.20,-25.03,3.85,37.65
5912,-8.83,-0.11,4.75,-0.13,-0.03,0.08,-25.03,3.85,37.65
5923,-8.83,-0.11,4.75,-0.13,-0.03,0.08,-25.23,3.69,39.20
5934,-9.44,-0.40,5.49,-0.03,0.03,0.01,-25.23,3.69,39.20
5945,-9.44,-0.40,5.49,-0.03,0.03,0.01,-25.23,3.69,39.20
5956,-9.03,-0.07,4.24,-0.03,0.28,-0.08,-25.23,3.69,39.20
5972,-9.03,-0.07,4.24,-0.03,0.28,-0.08,-25.23,3.69,39.20
5978,-9.01,0.20,4.35,0.28,0.44,-0.13,-25.23,3.69,39.20
5989,-9.01,0.20,4.35,0.28,0.44,-0.13,-25.23,3.69,39.20
6000,-8.55,0.30,5.33,0.58,0.52,-0.09,-25.23,3.69,39.20
6011,-8.55,0.30,5.33,0.58,0.52,-0.09,-25.23,3.69,39.20
6022,-7.95,0.06,3.81,0.70,0.50,0.03,-25.23,3.69,39.20
6033,-7.54,-0.57,5.03,0.84,0.20,0.24,-25.23,3.69,39.20
6044,-7.54,-0.57,5.03,0.84,0.20,0.24,-25.23,3.69,39.20
6055,-7.97,0.33,5.47,0.30,-0.07,0.34,-27.03,4.80,36.96
6066,-7.97,0.33,5.47,0.30,-0.07,0.34,-27.03,4.80,36.96
6168,-8.93,0.40,4.97,-0.27,-0.15,-0.12,-27.03,4.80,36.96
6178,-8.84,0.53,5.51,-0.10,-0.01,-0.13,-25.63,4.32,39.20
6189,-8.84,0.53,5.51,-0.10,-0.01,-0.13,-25.63,4.32,39.20
6200,-8.41,-0.46,5.57,0.15,0.17,-0.08,-25.63,4.32,39.20
6211,-8.41,-0.46,5.57,0.15,0.17,-0.08,-25.63,4.32,39.20
6222,-8.45,-0.51,4.85,0.36,0.21,0.12,-25.63,4.32,39.20
6233,-8.55,0.13,4.48,0.40,0.16,0.20,-25.63,4.32,39.20
6244,-8.55,0.13,4.48,0.40,0.16,0.20,-25.63,4.32,39.20
6255,-8.56,0.20,4.97,0.39,0.10,0.19,-25.63,4.32,39.20
6266,-8.56,0.20,4.97,0.39,0.10,0.19,-25.63,4.32,39.20
6277,-8.41,0.53,4.87,0.32,0.10,0.20,-25.63,4.32,39.20
6288,-8.41,0.53,4.87,0.32,0.10,0.20,-25.63,4.32,39.20
6299,-8.28,0.10,5.55,0.26,0.05,0.22,-25.63,5.28,37.82
6401,-8.90,0.06,4.71,-0.26,0.03,-0.23,-25.63,5.28,37.82
6411,-8.90,0.06,4.71,-0.26,0.03,-0.23,-25.63,5.28,37.82
6422,-8.89,0.82,4.83,-0.11,0.14,-0.17,-25.63,5.28,37.82
6433,-8.79,0.43,5.44,0.16,0.30,-0.19,-24.43,5.28,37.82
6444,-8.79,0.43,5.44,0.16,0.30,-0.19,-24.43,5.28,37.82
6455,-8.21,-0.21,4.45,0.28,0.42,-0.17,-24.43,5.28,37.82
6466,-8.21,-0.21,4.45,0.28,0.42,-0.17,-24.43,5.28,37.82
6477,-8.53,-0.51,4.63,0.25,0.34,-0.07,-24.43,5.28,37.82
6488,-8.53,-0.51,4.63,0.25,0.34,-0.07,-24.43,5.28,37.82
6499,-8.19,-0.37,3.64,0.17,0.22,0.10,-24.43,5.28,37.82
6510,-8.19,-0.37,3.64,0.17,0.22,0.10,-24.43,5.28,37.82
6521,-8.42,0.34,4.70,0.02,-0.02,0.31,-24.43,5.28,37.82
6532,-8.42,0.34,4.70,0.02,-0.02,0.31,-24.43,5.28,37.82
6543,-8.37,0.58,5.04,-0.01,-0.15,0.35,-24.43,5.28,37.82
6554,-8.59,0.63,5.03,-0.05,-0.23,0.25,-26.63,4.48,37.30
6565,-8.59,0.63,5.03,-0.05,-0.23,0.25,-26.63,4.48,37.30
6576,-8.70,-0.23,4.63,-0.10,-0.25,0.12,-26.63,4.48,37.30
6587,-8.70,-0.23,4.63,-0.10,-0.25,0.12,-26.63,4.48,37.30
6689,-9.15,0.47,5.49,0.31,0.13,0.09,-24.03,5.59,38.16
6699,-8.68,0.42,5.02,0.28,0.29,-0.03,-24.03,5.59,38.16
6710,-8.68,0.42,5.02,0.28,0.29,-0.03,-24.03,5.59,38.16
6721,-8.23,0.06,4.38,0.18,0.31,-0.19,-24.03,5.59,38.16
6732,-8.23,0.06,4.38,0.18,0.31,-0.19,-24.03,5.59,38.16
6743,-8.44,1.00,5.02,0.07,0.18,-0.16,-24.03,5.59,38.16
6754,-8.23,0.26,4.93,-0.09,0.08,-0.14,-24.03,5.59,38.16
6765,-8.23,0.26,4.93,-0.09,0.08,-0.14,-24.03,5.59,38.16
6776,-8.39,0.41,5.08,-0.20,0.03,-0.07,-24.03,5.59,38.16
6787,-8.39,0.41,5.08,-0.20,0.03,-0.07,-24.03,5.59,38.16
6798,-7.92,-0.34,3.40,-0.20,-0.05,0.02,-26.83,6.55,36.44
6809,-7.92,-0.34,3.40,-0.20,-0.05,0.02,-26.83,6.55,36.44
6820,-8.52,0.60,4.95,0.04,-0.34,0.26,-26.83,6.55,36.44
6831,-8.52,0.60,4.95,0.04,-0.34,0.26,-26.83,6.55,36.44
6935,-8.40,1.11,4.38,0.20,0.37,-0.34,-24.43,7.82,36.10
6945,-8.40,1.11,4.38,0.20,0.37,-0.34,-24.43,7.82,36.10
6956,-8.34,0.70,3.72,0.01,0.24,-0.08,-24.43,7.82,36.10
6967,-8.34,0.70,3.72,0.01,0.24,-0.08,-24.43,7.82,36.10
6978,-10.71,2.27,3.15,-0.51,-0.10,0.12,-24.43,7.82,36.10
6989,-10.71,2.27,3.15,-0.51,-0.10,0.12,-24.43,7.82,36.10
7000,-7.22,0.45,7.08,-1.13,-0.54,-0.19,-24.43,7.82,36.10
7011,-7.22,0.45,7.08,-1.13,-0.54,-0.19,-24.43,7.82,36.10
7022,-7.25,0.48,4.68,-1.64,-0.18,-0.18,-24.43,7.82,36.10
7033,-7.25,0.48,4.68,-1.64,-0.18,-0.18,-24.43,7.82,36.10
7044,-7.96,-0.62,4.30,-1.70,-0.14,-0.25,-24.43,7.82,36.10
7055,-7.94,-1.27,5.28,-0.76,0.01,-0.18,-26.63,3.85,40.40
7066,-7.94,-1.27,5.28,-0.76,0.01,-0.18,-26.63,3.85,40.40
7077,-8.94,-1.28,6.06,-0.23,0.19,-0.29,-26.63,3.85,40.40
7088,-8.94,-1.28,6.06,-0.23,0.19,-0.29,-26.63,3.85,40.40
7099,-9.06,-1.23,3.56,-0.23,0.23,-0.36,-26.63,3.85,40.40
7110,-9.06,-1.23,3.56,-0.23,0.23,-0.36,-26.63,3.85,40.40
7121,-9.03,1.41,4.69,-0.21,-0.03,-0.17,-26.63,3.85,40.40
7224,-8.38,-0.31,4.18,0.02,-0.19,0.22,-27.43,2.89,38.68
7234,-8.66,0.08,5.36,-0.00,-0.32,0.04,-27.43,2.89,38.68
7245,-8.66,0.08,5.36,-0.00,-0.32,0.04,-27.43,2.89,38.68
7256,-8.96,-0.62,4.84,-0.07,-0.28,-0.19,-27.43,2.89,38.68
7267,-8.96,-0.62,4.84,-0.07,-0.28,-0.19,-27.43,2.89,38.68
7278,-9.42,-0.83,5.25,-0.45,-0.27,-0.37,-27.43,2.89,38.68
7289,-9.42,-0.83,5.25,-0.45,-0.27,-0.37,-27.43,2.89,38.68
7300,-9.60,0.22,6.16,-0.55,-0.06,-0.37,-27.43,2.89,38.68
7311,-9.60,0.22,6.16,-0.55,-0.06,-0.37,-27.43,2.89,38.68
7322,-9.49,0.25,5.83,-0.72,0.32,-0.50,-25.23,1.46,39.88
7333,-9.49,0.25,5.83,-0.72,0.32,-0.50,-25.23,1.46,39.88
7344,-8.43,-1.11,4.00,-0.36,0.62,-0.43,-25.23,1.46,39.88
7355,-8.15,-0.99,4.89,0.37,0.53,-0.00,-25.23,1.46,39.88
7499,-8.60,-0.78,4.43,-0.25,-0.04,-0.06,-25.23,4.01,38.16
7509,-8.60,-0.78,4.43,-0.25,-0.04,-0.06,-25.23,4.01,38.16
7520,-8.87,-0.46,4.93,-0.12,-0.07,0.04,-25.23,4.01,38.16
7531,-8.87,-0.46,4.93,-0.12,-0.07,0.04,-25.23,4.01,38.16
7542,-9.31,0.37,5.42,-0.01,0.03,0.05,-25.23,4.01,38.16
7553,-9.31,0.37,5.42,-0.01,0.03,0.05,-25.23,4.01,38.16
7564,-8.64,0.03,5.31,0.08,0.28,-0.11,-27.03,2.89,38.68
7575,-8.26,0.10,5.33,0.26,0.35,-0.09,-27.03,2.89,38.68
7586,-8.26,0.10,5.33,0.26,0.35,-0.09,-27.03,2.89,38.68
7597,-8.15,-0.21,4.70,0.27,0.30,-0.01,-27.03,2.89,38.68
7608,-8.15,-0.21,4.70,0.27,0.30,-0.01,-27.03,2.89,38.68
7619,-8.23,-0.79,4.14,0.27,0.15,0.12,-27.03,2.89,38.68
7630,-8.23,-0.79,4.14,0.27,0.15,0.12,-27.03,2.89,38.68
7741,-8.19,-0.04,3.87,0.23,-0.09,0.31,-27.03,2.89,38.68
7743,-8.82,0.13,5.00,-0.06,-0.11,-0.01,-25.43,4.16,38.68
7753,-8.82,0.13,5.00,-0.06,-0.11,-0.01,-25.43,4.16,38.68
7764,-9.01,0.43,5.44,-0.05,-0.04,-0.06,-25.43,4.16,38.68
7775,-9.06,0.72,6.00,0.08,0.15,-0.15,-25.43,4.16,38.68
7786,-9.06,0.72,6.00,0.08,0.15,-0.15,-25.43,4.16,38.68
7797,-8.65,-0.39,4.85,0.26,0.42,-0.29,-25.43,4.16,38.68
7808,-8.65,-0.39,4.85,0.26,0.42,-0.29,-25.43,4.16,38.68
7819,-8.22,-0.11,4.70,0.41,0.46,-0.20,-25.23,4.01,38.51
7830,-8.22,-0.11,4.70,0.41,0.46,-0.20,-25.23,4.01,38.51
7841,-7.45,-1.57,2.65,0.56,0.32,0.13,-25.23,4.01,38.51
7852,-7.45,-1.57,2.65,0.56,0.32,0.13,-25.23,4.01,38.51
7863,-10.55,1.58,3.13,0.35,-0.29,0.66,-25.23,4.01,38.51
7874,-6.07,1.70,6.74,-0.17,-0.82,0.55,-25.23,4.01,38.51
7885,-6.07,1.70,6.74,-0.17,-0.82,0.55,-25.23,4.01,38.51
7896,-7.23,-0.03,6.18,-0.59,-0.53,0.25,-25.23,4.01,38.51
7907,-7.23,-0.03,6.18,-0.59,-0.53,0.25,-25.23,4.01,38.51
7918,-7.52,-0.81,4.64,-0.96,-0.47,-0.00,-25.23,4.01,38.51
8019,-8.72,-0.98,2.40,-0.29,0.22,-0.07,-24.43,3.37,39.88
8029,-8.72,-0.98,2.40,-0.29,0.22,-0.07,-24.43,3.37,39.88
8040,-7.28,0.31,4.97,-0.12,-0.36,0.32,-24.43,3.37,39.88
8051,-7.28,0.31,4.97,-0.12,-0.36,0.32,-24.43,3.37,39.88
8062,-7.46,1.27,6.23,0.04,-0.25,0.36,-24.23,2.58,40.06
8073,-7.46,1.27,6.23,0.04,-0.25,0.36,-24.23,2.58,40.06
8084,-8.42,-0.80,5.38,0.11,0.14,0.02,-24.23,2.58,40.06
8095,-8.93,-1.48,5.25,-0.05,0.00,-0.10,-24.23,2.58,40.06
8106,-8.93,-1.48,5.25,-0.05,0.00,-0.10,-24.23,2.58,40.06
8117,-9.05,-0.70,4.65,-0.01,-0.01,0.06,-24.23,2.58,40.06
8128,-9.05,-0.70,4.65,-0.01,-0.01,0.06,-24.23,2.58,40.06
8139,-9.44,-0.42,6.08,-0.08,0.06,0.06,-24.23,2.58,40.06
8150,-9.44,-0.42,6.08,-0.08,0.06,0.06,-24.23,2.58,40.06
8161,-8.91,0.31,5.71,-0.13,0.38,0.03,-24.23,2.58,40.06
8266,-7.92,-1.09,4.09,0.45,0.15,0.15,-26.43,3.05,39.20
8277,-8.38,2.06,4.45,0.59,-0.14,0.60,-26.43,3.05,39.20
8288,-8.38,2.06,4.45,0.59,-0.14,0.60,-26.43,3.05,39.20
8299,-10.78,2.42,4.36,0.18,-0.34,0.28,-26.43,3.05,39.20
8310,-10.78,2.42,4.36,0.18,-0.34,0.28,-26.43,3.05,39.20
8321,-7.56,-0.04,5.44,-0.41,-0.59,-0.37,-25.43,4.48,39.37
8332,-7.56,-0.04,5.44,-0.41,-0.59,-0.37,-25.43,4.48,39.37
8343,-7.54,-1.59,5.69,-0.88,-0.46,-0.62,-25.43,4.48,39.37
8354,-7.54,-1.59,5.69,-0.88,-0.46,-0.62,-25.43,4.48,39.37
8456,-9.59,2.90,2.27,0.80,0.12,0.50,-26.83,4.32,38.16
8466,-9.59,2.90,2.27,0.80,0.12,0.50,-26.83,4.32,38.16
8477,-10.57,1.29,5.01,-0.04,-0.58,-0.13,-26.83,4.32,38.16
8488,-10.57,1.29,5.01,-0.04,-0.58,-0.13,-26.83,4.32,38.16
8499,-6.41,-0.65,5.64,-0.51,-0.62,-0.42,-26.83,4.32,38.16
8510,-6.41,-0.65,5.64,-0.51,-0.62,-0.42,-26.83,4.32,38.16
8521,-8.43,0.72,5.21,-0.56,-0.26,-0.37,-26.83,4.32,38.16
8532,-8.43,0.72,5.21,-0.56,-0.26,-0.37,-26.83,4.32,38.16
8543,-7.64,-2.93,5.73,-0.70,-0.19,-0.82,-26.83,4.32,38.16
8554,-7.64,-2.93,5.73,-0.70,-0.19,-0.82,-26.83,4.32,38.16
8565,-8.03,-2.47,4.42,-0.43,-0.01,-0.51,-26.83,4.32,38.16
8576,-7.92,-2.12,6.69,-0.18,-0.02,-0.16,-25.43,2.58,40.74
8587,-7.92,-2.12,6.69,-0.18,-0.02,-0.16,-25.43,2.58,40.74
8598,-7.49,-1.33,5.25,0.12,0.31,0.11,-25.43,2.58,40.74
8609,-7.49,-1.33,5.25,0.12,0.31,0.11,-25.43,2.58,40.74
8620,-7.94,-1.53,6.83,0.23,0.40,0.05,-25.43,2.58,40.74
8631,-7.94,-1.53,6.83,0.23,0.40,0.05,-25.43,2.58,40.74
8743,-8.89,-1.31,4.16,0.23,0.59,0.11,-25.43,2.58,40.74
8744,-8.62,-0.70,5.30,0.13,-0.42,0.25,-27.03,2.58,37.65
8755,-9.25,-0.67,5.38,0.11,-0.31,0.17,-27.03,2.58,37.65
8766,-9.25,-0.67,5.38,0.11,-0.31,0.17,-27.03,2.58,37.65
8777,-8.91,-0.50,4.26,0.05,-0.13,0.10,-27.03,2.58,37.65
8788,-8.91,-0.50,4.26,0.05,-0.13,0.10,-27.03,2.58,37.65
8799,-9.50,-0.46,4.81,0.31,-0.08,0.14,-27.03,2.58,37.65
8810,-9.50,-0.46,4.81,0.31,-0.08,0.14,-27.03,2.58,37.65
8821,-9.03,0.42,6.17,0.62,0.20,0.22,-24.23,2.89,40.06
8832,-9.03,0.42,6.17,0.62,0.20,0.22,-24.23,2.89,40.06
8843,-8.11,0.64,4.50,0.74,0.51,0.12,-24.23,2.89,40.06
8854,-8.11,0.64,4.50,0.74,0.51,0.12,-24.23,2.89,40.06
8865,-7.87,0.18,5.72,0.48,0.41,-0.14,-24.23,2.89,40.06
8876,-7.81,-0.35,5.20,-0.09,0.28,-0.35,-24.23,2.89,40.06
8978,-8.21,0.48,5.00,0.37,-0.09,0.52,-22.82,2.42,38.85
8988,-8.21,0.48,5.00,0.37,-0.09,0.52,-22.82,2.42,38.85
8999,-8.26,0.49,4.92,0.15,-0.17,0.49,-22.82,2.42,38.85
9010,-8.26,0.49,4.92,0.15,-0.17,0.49,-22.82,2.42,38.85
9021,-8.74,-0.65,4.85,0.02,-0.17,0.21,-22.82,2.42,38.85
9032,-8.74,-0.65,4.85,0.02,-0.17,0.21,-22.82,2.42,38.85
9043,-8.84,-0.19,4.27,-0.05,-0.17,0.06,-22.82,2.42,38.85
9054,-8.84,-0.19,4.27,-0.05,-0.17,0.06,-22.82,2.42,38.85
9065,-8.96,-0.03,5.18,-0.11,-0.20,-0.02,-22.82,2.42,38.85
9076,-8.98,0.36,5.72,-0.16,-0.06,-0.07,-24.23,3.85,39.71
9087,-8.98,0.36,5.72,-0.16,-0.06,-0.07,-24.23,3.85,39.71
9098,-8.98,-0.21,5.40,-0.14,0.11,-0.08,-24.23,3.85,39.71
9109,-8.98,-0.21,5.40,-0.14,0.11,-0.08,-24.23,3.85,39.71
9120,-8.61,0.23,4.06,0.02,0.31,-0.01,-24.23,3.85,39.71
9131,-8.61,0.23,4.06,0.02,0.31,-0.01,-24.23,3.85,39.71
9142,-8.42,0.36,4.64,0.28,0.32,0.04,-24.23,3.85,39.71
9153,-8.42,0.36,4.64,0.28,0.32,0.04,-24.23,3.85,39.71
9164,-8.10,0.37,4.37,0.31,0.28,0.09,-24.23,3.85,39.71
9267,-8.97,-0.49,4.51,-0.16,-0.19,-0.05,-25.83,4.48,39.02
9277,-8.80,-0.21,4.59,-0.05,-0.12,-0.01,-25.83,4.48,39.02
9288,-8.80,-0.21,4.59,-0.05,-0.12,-0.01,-25.83,4.48,39.02
9299,-9.34,0.38,5.33,0.02,-0.10,0.03,-25.83,4.48,39.02
9310,-9.34,0.38,5.33,0.02,-0.10,0.03,-25.83,4.48,39.02
9321,-9.02,0.55,5.69,0.01,0.12,-0.06,-25.83,4.48,39.02
9332,-9.02,0.55,5.69,0.01,0.12,-0.06,-25.83,4.48,39.02
9343,-8.54,0.31,5.54,0.13,0.37,-0.17,-25.83,3.21,39.02
9354,-8.54,0.31,5.54,0.13,0.37,-0.17,-25.83,3.21,39.02
9365,-8.40,-0.03,4.43,0.25,0.41,-0.14,-25.83,3.21,39.02
9376,-8.14,-0.14,4.55,0.22,0.32,-0.01,-25.83,3.21,39.02
9387,-8.14,-0.14,4.55,0.22,0.32,-0.01,-25.83,3.21,39.02
9398,-7.77,-0.50,3.77,0.10,0.18,0.18,-25.83,3.21,39.02
9409,-7.77,-0.50,3.77,0.10,0.18,0.18,-25.83,3.21,39.02
9551,-8.72,0.24,5.82,0.09,0.05,-0.12,-24.03,5.91,37.13
9562,-8.28,-0.45,4.17,0.16,0.18,0.03,-24.03,5.91,37.13
9573,-8.28,-0.45,4.17,0.16,0.18,0.03,-24.03,5.91,37.13
9584,-8.46,0.41,4.79,0.29,0.07,0.26,-24.63,5.12,39.02
9595,-8.46,0.41,4.79,0.29,0.07,0.26,-24.63,5.12,39.02
9606,-8.66,0.74,4.70,0.20,0.01,0.24,-24.63,5.12,39.02
9617,-8.70,0.07,4.68,0.12,-0.01,0.07,-24.63,5.12,39.02
9628,-8.70,0.07,4.68,0.12,-0.01,0.07,-24.63,5.12,39.02
9639,-9.16,0.23,4.82,0.22,-0.00,-0.03,-24.63,5.12,39.02
9650,-9.16,0.23,4.82,0.22,-0.00,-0.03,-24.63,5.12,39.02
9661,-9.09,0.96,5.89,0.30,0.15,-0.20,-24.63,5.12,39.02
9672,-9.09,0.96,5.89,0.30,0.15,-0.20,-24.63,5.12,39.02
9683,-8.25,0.84,4.13,0.38,0.32,-0.30,-24.63,5.12,39.02
9785,-8.06,-0.16,5.70,-1.61,-0.30,-0.32,-24.43,4.96,38.16
9796,-7.25,-2.65,4.60,-1.65,-0.25,-0.44,-24.43,4.96,38.16
9807,-7.25,-2.65,4.60,-1.65,-0.25,-0.44,-24.43,4.96,38.16
9818,-7.07,-2.68,5.99,-0.77,0.10,-0.28,-24.43,4.96,38.16
9829,-7.07,-2.68,5.99,-0.77,0.10,-0.28,-24.43,4.96,38.16
9840,-8.25,-2.62,6.02,-0.22,0.58,-0.26,-25.03,1.62,40.06
9851,-8.25,-2.62,6.02,-0.22,0.58,-0.26,-25.03,1.62,40.06
9862,-8.82,-2.79,3.09,0.21,0.53,-0.14,-25.03,1.62,40.06
9873,-8.82,-2.79,3.09,0.21,0.53,-0.14,-25.03,1.62,40.06
9884,-8.96,2.79,4.23,0.60,0.11,0.42,-25.03,1.62,40.06
9895,-8.96,2.79,4.23,0.60,0.11,0.42,-25.03,1.62,40.06
9906,-8.13,0.61,4.35,0.42,0.04,0.28,-25.03,1.62,40.06
9917,-7.57,0.92,4.39,0.16,-0.15,0.41,-25.03,1.62,40.06
9928,-7.57,0.92,4.39,0.16,-0.15,0.41,-25.03,1.62,40.06
9939,-8.16,-0.19,4.60,-0.01,-0.40,0.37,-25.03,1.62,40.06
9950,-8.16,-0.19,4.60,-0.01,-0.40,0.37,-25.03,1.62,40.06
9961,-8.18,-0.28,5.31,0.28,-0.54,0.31,-25.03,1.94,39.37
9972,-8.18,-0.28,5.31,0.28,-0.54,0.31,-25.03,1.94,39.37
10077,-8.78,-1.39,5.37,-0.30,0.82,-0.29,-22.62,1.62,40.40
10087,-8.78,-1.39,5.37,-0.30,0.82,-0.29,-22.62,1.62,40.40
10098,-7.95,-0.06,5.30,0.08,0.97,-0.17,-22.62,1.62,40.40
10109,-7.95,-0.06,5.30,0.08,0.97,-0.17,-22.62,1.62,40.40
10120,-7.74,0.18,4.34,0.47,0.89,-0.08,-22.62,1.62,40.40
10131,-7.74,0.18,4.34,0.47,0.89,-0.08,-22.62,1.62,40.40
10142,-7.76,0.41,3.66,0.48,0.59,0.06,-22.62,1.62,40.40
10153,-7.76,0.41,3.66,0.48,0.59,0.06,-22.62,1.62,40.40
10164,-8.06,0.39,4.96,0.41,0.25,0.12,-22.62,1.62,40.40
10175,-8.06,0.39,4.96,0.41,0.25,0.12,-22.62,1.62,40.40
10186,-7.87,-0.18,3.73,0.24,0.03,0.22,-22.62,1.62,40.40
10197,-9.00,0.42,4.85,0.03,-0.25,0.32,-22.62,1.62,40.40
10208,-9.00,0.42,4.85,0.03,-0.25,0.32,-22.62,1.62,40.40
10219,-8.54,-0.65,4.47,0.04,-0.32,0.20,-24.03,2.10,38.16
10321,-8.71,0.03,4.80,0.10,0.34,-0.14,-24.03,2.10,38.16
10331,-8.71,0.03,4.80,0.10,0.34,-0.14,-24.03,2.10,38.16
10342,-8.33,0.11,4.14,0.25,0.34,-0.05,-25.83,0.99,39.71
10353,-8.33,0.11,4.14,0.25,0.34,-0.05,-25.83,0.99,39.71
10364,-8.16,-0.28,4.20,0.31,0.18,0.04,-25.83,0.99,39.71
10375,-8.16,-0.28,4.20,0.31,0.18,0.04,-25.83,0.99,39.71
10386,-8.31,-0.21,4.04,0.37,-0.04,0.22,-25.83,0.99,39.71
10397,-8.37,0.26,4.97,0.51,-0.24,0.33,-25.83,0.99,39.71
10408,-8.37,0.26,4.97,0.51,-0.24,0.33,-25.83,0.99,39.71
10419,-8.90,0.15,4.73,0.60,-0.24,0.28,-25.83,0.99,39.71
10430,-8.90,0.15,4.73,0.60,-0.24,0.28,-25.83,0.99,39.71
10441,-9.02,-0.08,5.05,0.68,-0.18,0.22,-25.83,0.99,39.71
10452,-9.02,-0.08,5.05,0.68,-0.18,0.22,-25.83,0.99,39.71
10463,-8.80,-0.11,4.69,0.62,-0.09,0.17,-23.22,4.96,37.82
10474,-8.80,-0.11,4.69,0.62,-0.09,0.17,-23.22,4.96,37.82
10485,-8.89,0.95,5.41,0.69,-0.01,0.20,-23.22,4.96,37.82
10496,-8.89,0.95,5.41,0.69,-0.01,0.20,-23.22,4.96,37.82
10507,-8.84,1.30,4.80,0.69,0.11,0.16,-23.22,4.96,37.82
10607,-8.52,0.74,4.46,-1.37,-0.00,-0.51,-26.03,4.96,38.16
10617,-9.32,1.99,4.20,-1.08,-0.07,-0.57,-26.03,4.96,38.16
10628,-9.32,1.99,4.20,-1.08,-0.07,-0.57,-26.03,4.96,38.16
10639,-11.96,1.21,2.32,-0.61,-0.23,-0.91,-26.03,4.96,38.16
10650,-11.96,1.21,2.32,-0.61,-0.23,-0.91,-26.03,4.96,38.16
10661,-7.47,-1.43,5.21,-0.48,-0.73,-0.85,-26.03,4.96,38.16
10672,-7.47,-1.43,5.21,-0.48,-0.73,-0.85,-26.03,4.96,38.16
10683,-7.96,1.67,3.72,-0.32,-0.41,0.03,-26.03,4.96,38.16
10694,-7.96,1.67,3.72,-0.32,-0.41,0.03,-26.03,4.96,38.16
10705,-8.32,0.38,6.28,-0.36,-0.32,0.05,-26.03,4.96,38.16
10716,-8.32,0.38,6.28,-0.36,-0.32,0.05,-26.03,4.96,38.16
10727,-6.51,-2.10,4.98,-0.48,-0.05,-0.06,-23.22,0.83,40.23
10738,-7.76,-1.82,5.16,-0.51,0.05,0.14,-23.22,0.83,40.23
10840,-8.44,0.52,4.82,0.06,0.01,0.23,-23.42,1.30,41.09
10850,-8.44,0.52,4.82,0.06,0.01,0.23,-23.42,1.30,41.09
10861,-10.21,0.27,4.86,0.16,0.03,0.12,-23.42,1.30,41.09
10872,-10.21,0.27,4.86,0.16,0.03,0.12,-23.42,1.30,41.09
10883,-9.04,-0.53,5.25,0.02,-0.04,-0.09,-23.42,1.30,41.09
10894,-9.04,-0.53,5.25,0.02,-0.04,-0.09,-23.42,1.30,41.09
10905,-9.18,-0.94,4.68,-0.26,0.01,-0.23,-23.42,1.30,41.09
10916,-9.18,-0.94,4.68,-0.26,0.01,-0.23,-23.42,1.30,41.09
10932,-9.29,-0.47,5.16,-0.43,0.13,-0.27,-23.42,1.30,41.09
10938,-8.79,0.61,4.42,-0.23,0.34,-0.14,-23.42,1.30,41.09
10949,-8.79,0.61,4.42,-0.23,0.34,-0.14,-23.42,1.30,41.09
10960,-8.12,0.21,5.62,0.21,0.44,-0.02,-23.42,1.30,41.09
10971,-8.12,0.21,5.62,0.21,0.44,-0.02,-23.42,1.30,41.09
10982,-7.98,-0.55,4.55,0.41,0.42,0.17,-25.03,0.35,40.40
10993,-7.98,-0.55,4.55,0.41,0.42,0.17,-25.03,0.35,40.40
11004,-7.93,-0.45,4.26,0.59,0.19,0.39,-25.03,0.35,40.40
11015,-7.93,-0.45,4.26,0.59,0.19,0.39,-25.03,0.35,40.40
11117,-8.82,-0.15,5.04,-0.21,-0.08,-0.07,-22.82,1.78,39.54
11127,-8.70,0.19,5.00,-0.15,0.04,-0.07,-22.82,1.78,39.54
11138,-9.03,0.30,5.44,0.03,0.14,-0.08,-22.82,1.78,39.54
11149,-9.03,0.30,5.44,0.03,0.14,-0.08,-22.82,1.78,39.54
11160,-8.59,0.21,4.56,0.30,0.28,-0.04,-22.82,1.78,39.54
11171,-8.59,0.21,4.56,0.30,0.28,-0.04,-22.82,1.78,39.54
11182,-8.17,0.11,4.33,0.47,0.31,0.07,-22.82,1.78,39.54
11193,-8.17,0.11,4.33,0.47,0.31,0.07,-22.82,1.78,39.54
11204,-8.02,-0.45,4.50,0.39,0.15,0.22,-22.82,1.78,39.54
11215,-8.02,-0.45,4.50,0.39,0.15,0.22,-22.82,1.78,39.54
11226,-8.10,-0.15,4.54,0.06,-0.09,0.31,-25.63,1.78,40.23
11237,-8.10,-0.15,4.54,0.06,-0.09,0.31,-25.63,1.78,40.23
11248,-8.77,-0.33,4.92,-0.03,-0.27,0.22,-25.63,1.78,40.23
11259,-8.39,-0.33,4.94,-0.04,-0.35,0.03,-25.63,1.78,40.23
11362,-6.99,-1.49,3.71,-0.32,-0.28,-0.01,-24.23,0.67,41.43
11373,-6.99,-1.49,3.71,-0.32,-0.28,-0.01,-24.23,0.67,41.43
11384,-6.74,-0.23,6.94,0.00,-0.52,0.28,-24.23,0.67,41.43
11395,-6.74,-0.23,6.94,0.00,-0.52,0.28,-24.23,0.67,41.43
11406,-7.35,-0.55,5.40,-0.01,-0.14,0.10,-24.23,0.67,41.43
11417,-7.35,-0.55,5.40,-0.01,-0.14,0.10,-24.23,0.67,41.43
11428,-7.68,-0.59,5.19,-0.00,0.02,-0.01,-24.23,0.67,41.43
11439,-9.28,-0.40,4.57,0.07,0.06,0.05,-24.23,0.67,41.43
11455,-9.28,-0.40,4.57,0.07,0.06,0.05,-24.23,0.67,41.43
11461,-8.45,0.26,5.14,-0.06,-0.26,0.12,-24.23,0.67,41.43
11472,-8.45,0.26,5.14,-0.06,-0.26,0.12,-24.23,0.67,41.43
11483,-9.22,0.34,5.09,-0.15,-0.36,0.11,-23.22,0.51,40.57
11494,-9.22,0.34,5.09,-0.15,-0.36,0.11,-23.22,0.51,40.57
11505,-8.93,-0.52,4.82,0.08,-0.18,0.13,-23.22,0.51,40.57
11516,-8.93,-0.52,4.82,0.08,-0.18,0.13,-23.22,0.51,40.57
11527,-8.70,-0.63,4.91,0.13,-0.07,0.20,-23.22,0.51,40.57
11538,-9.12,-0.75,4.65,0.32,0.01,0.25,-23.22,0.51,40.57
11678,-6.64,-1.67,5.23,-0.74,-0.07,-0.20,-24.83,1.15,38.51
11688,-7.05,-1.59,5.02,-0.45,-0.11,0.11,-24.83,1.15,38.51
11699,-7.41,-1.10,5.92,-0.20,-0.25,0.32,-24.83,1.15,38.51
11710,-7.41,-1.10,5.92,-0.20,-0.25,0.32,-24.83,1.15,38.51
11721,-8.02,-0.30,5.59,-0.01,0.05,0.42,-21.22,-0.76,41.60
11732,-8.02,-0.30,5.59,-0.01,0.05,0.42,-21.22,-0.76,41.60
11743,-9.98,-0.68,4.52,-0.20,-0.01,0.25,-21.22,-0.76,41.60
11754,-9.98,-0.68,4.52,-0.20,-0.01,0.25,-21.22,-0.76,41.60
11765,-9.12,0.29,3.55,-0.12,-0.13,0.17,-21.22,-0.76,41.60
11776,-9.12,0.29,3.55,-0.12,-0.13,0.17,-21.22,-0.76,41.60
11787,-9.39,-0.54,5.98,-0.02,-0.14,0.05,-21.22,-0.76,41.60
11798,-9.31,-0.71,6.91,-0.16,0.19,0.01,-21.22,-0.76,41.60
11809,-9.31,-0.71,6.91,-0.16,0.19,0.01,-21.22,-0.76,41.60
11912,-8.10,-0.50,4.35,0.49,0.22,0.11,-23.62,0.19,39.88
11922,-8.24,0.16,4.76,0.45,0.05,0.23,-23.62,0.19,39.88
11933,-8.24,0.16,4.76,0.45,0.05,0.23,-23.62,0.19,39.88
11944,-8.15,0.33,4.38,0.12,-0.10,0.25,-23.62,0.19,39.88
11955,-8.15,0.33,4.38,0.12,-0.10,0.25,-23.62,0.19,39.88
11966,-8.88,-0.06,5.60,-0.09,-0.24,0.13,-23.62,0.19,39.88
11977,-8.88,-0.06,5.60,-0.09,-0.24,0.13,-23.62,0.19,39.88
11988,-8.94,-1.21,4.19,-0.15,-0.22,0.02,-24.83,1.46,38.85
11999,-8.92,-0.55,4.57,-0.06,-0.18,0.05,-24.83,1.46,38.85
12010,-8.92,-0.55,4.57,-0.06,-0.18,0.05,-24.83,1.46,38.85
12021,-9.02,0.54,5.27,0.02,-0.12,0.05,-24.83,1.46,38.85
12032,-9.02,0.54,5.27,0.02,-0.12,0.05,-24.83,1.46,38.85
12043,-8.76,0.97,5.04,0.07,-0.02,-0.04,-24.83,1.46,38.85
12054,-8.76,0.97,5.04,0.07,-0.02,-0.04,-24.83,1.46,38.85
12065,-8.80,0.19,5.69,0.14,0.09,-0.12,-24.83,1.46,38.85
12076,-8.80,0.19,5.69,0.14,0.09,-0.12,-24.83,1.46,38.85
12087,-8.18,-1.08,4.71,0.19,0.18,-0.05,-24.83,1.46,38.85
12098,-8.18,-1.08,4.71,0.19,0.18,-0.05,-24.83,1.46,38.85
12202,-8.92,-0.03,5.21,-0.33,-0.07,-0.21,-24.03,2.10,40.92
12212,-8.92,-0.03,5.21,-0.33,-0.07,-0.21,-24.03,2.10,40.92
12223,-8.97,0.45,6.14,-0.27,0.10,-0.23,-24.03,2.10,40.92
12234,-8.97,0.45,6.14,-0.27,0.10,-0.23,-24.03,2.10,40.92
12245,-8.21,-0.27,4.63,-0.24,0.34,-0.29,-25.03,0.99,40.74
12256,-8.21,-0.27,4.63,-0.24,0.34,-0.29,-25.03,0.99,40.74
12267,-8.73,0.29,5.78,0.12,0.29,-0.17,-25.03,0.99,40.74
12278,-8.73,0.29,5.78,0.12,0.29,-0.17,-25.03,0.99,40.74
12289,-8.20,-0.41,4.41,0.25,0.37,-0.05,-25.03,0.99,40.74
12300,-7.90,-0.74,3.69,0.40,0.28,0.22,-25.03,0.99,40.74
12311,-7.90,-0.74,3.69,0.40,0.28,0.22,-25.03,0.99,40.74
12322,-8.13,0.16,4.21,0.60,-0.03,0.59,-25.03,0.99,40.74
12333,-8.13,0.16,4.21,0.60,-0.03,0.59,-25.03,0.99,40.74
12435,-9.41,-0.22,5.34,0.31,-0.09,0.10,-25.03,3.21,38.68
12446,-9.29,0.90,5.32,0.23,0.15,0.11,-25.03,3.21,38.68
12457,-9.29,0.90,5.32,0.23,0.15,0.11,-25.03,3.21,38.68
12468,-8.27,1.33,5.02,0.22,0.35,-0.08,-25.03,3.21,38.68
12479,-8.02,0.23,3.75,0.28,0.28,-0.17,-23.22,3.69,37.13
12490,-8.02,0.23,3.75,0.28,0.28,-0.17,-23.22,3.69,37.13
12501,-8.73,0.77,5.73,0.07,0.03,-0.31,-23.22,3.69,37.13
12512,-8.73,0.77,5.73,0.07,0.03,-0.31,-23.22,3.69,37.13
12523,-9.14,-0.18,4.02,-0.55,-0.03,-0.61,-23.22,3.69,37.13
12534,-9.14,-0.18,4.02,-0.55,-0.03,-0.61,-23.22,3.69,37.13
12545,-7.78,-0.04,3.98,-0.62,-0.50,-0.60,-23.22,3.69,37.13
12556,-7.78,-0.04,3.98,-0.62,-0.50,-0.60,-23.22,3.69,37.13
12567,-6.79,0.95,5.98,-0.71,-0.93,-0.59,-23.22,3.69,37.13
12578,-6.79,0.95,5.98,-0.71,-0.93,-0.59,-23.22,3.69,37.13
12680,-7.80,1.34,4.56,-0.17,0.29,0.91,-21.22,-0.44,41.60
12691,-7.80,1.34,4.56,-0.17,0.29,0.91,-21.22,-0.44,41.60
12702,-9.12,0.15,3.43,-0.35,0.04,0.63,-21.22,-0.44,41.60
12713,-9.12,0.15,3.43,-0.35,0.04,0.63,-21.22,-0.44,41.60
12724,-7.71,0.95,5.06,-0.41,-0.46,0.39,-21.22,-0.44,41.60
12735,-7.71,0.95,5.06,-0.41,-0.46,0.39,-21.22,-0.44,41.60
12746,-7.41,0.54,5.10,-0.22,-0.53,0.13,-23.42,0.67,39.71
12757,-7.41,0.54,5.10,-0.22,-0.53,0.13,-23.42,0.67,39.71
12768,-7.43,-1.09,5.79,-0.08,-0.42,-0.01,-23.42,0.67,39.71
12779,-8.16,-1.01,5.86,-0.10,-0.16,0.15,-23.42,0.67,39.71
12790,-8.16,-1.01,5.86,-0.10,-0.16,0.15,-23.42,0.67,39.71
12801,-9.26,-1.48,4.74,-0.05,0.05,0.12,-23.42,0.67,39.71
12812,-9.26,-1.48,4.74,-0.05,0.05,0.12,-23.42,0.67,39.71
12823,-9.73,1.04,5.17,-0.01,-0.04,0.09,-23.42,0.67,39.71
12834,-9.73,1.04,5.17,-0.01,-0.04,0.09,-23.42,0.67,39.71
12845,-9.58,3.68,7.14,-0.33,0.18,-0.35,-23.42,0.67,39.71
12856,-9.58,3.68,7.14,-0.33,0.18,-0.35,-23.42,0.67,39.71
12959,-7.24,-0.59,5.65,0.41,0.04,-0.02,-24.03,1.15,42.98
12969,-8.56,-0.08,5.15,0.41,0.23,0.11,-24.03,1.15,42.98
12980,-8.34,-0.14,5.17,0.30,0.26,-0.01,-22.62,-0.92,40.40
12991,-8.34,-0.14,5.17,0.30,0.26,-0.01,-22.62,-0.92,40.40
13002,-8.50,-1.44,4.75,0.37,0.28,-0.15,-22.62,-0.92,40.40
13013,-8.50,-1.44,4.75,0.37,0.28,-0.15,-22.62,-0.92,40.40
13024,-8.41,-0.43,4.80,0.50,0.15,0.08,-22.62,-0.92,40.40
13035,-8.41,-0.43,4.80,0.50,0.15,0.08,-22.62,-0.92,40.40
13046,-8.87,0.41,5.58,0.43,-0.03,-0.00,-22.62,-0.92,40.40
13057,-8.87,0.41,5.58,0.43,-0.03,-0.00,-22.62,-0.92,40.40
13068,-7.59,-2.02,5.82,0.13,-0.18,-0.41,-22.62,-0.92,40.40
13079,-7.59,-2.02,5.82,0.13,-0.18,-0.41,-22.62,-0.92,40.40
13090,-6.95,-3.22,6.18,0.12,-0.22,-0.47,-22.62,-0.92,40.40
13227,-7.97,-0.68,5.16,-0.28,-0.05,-0.12,-22.22,-0.92,39.37
13237,-7.97,-0.68,5.16,-0.28,-0.05,-0.12,-22.22,-0.92,39.37
13248,-8.06,-1.26,5.24,-0.18,-0.02,-0.03,-23.62,-0.44,42.29
13259,-8.06,-1.26,5.24,-0.18,-0.02,-0.03,-23.62,-0.44,42.29
13270,-8.27,-0.90,5.24,-0.07,-0.01,0.07,-23.62,-0.44,42.29
13281,-8.47,-0.57,5.30,-0.03,-0.00,0.05,-23.62,-0.44,42.29
13292,-8.47,-0.57,5.30,-0.03,-0.00,0.05,-23.62,-0.44,42.29
13303,-8.23,-0.39,5.08,-0.00,0.00,0.01,-23.62,-0.44,42.29
13314,-8.23,-0.39,5.08,-0.00,0.00,0.01,-23.62,-0.44,42.29
13325,-8.42,-0.37,5.29,-0.02,-0.04,-0.01,-23.62,-0.44,42.29
13336,-8.42,-0.37,5.29,-0.02,-0.04,-0.01,-23.62,-0.44,42.29
13347,-8.24,-0.63,5.28,-0.04,-0.05,-0.04,-23.62,-0.44,42.29
13358,-8.24,-0.63,5.28,-0.04,-0.05,-0.04,-23.62,-0.44,42.29
13467,-8.34,-1.88,4.98,0.44,0.50,0.53,-23.02,1.30,41.09
13477,-8.34,-1.88,4.98,0.44,0.50,0.53,-23.02,1.30,41.09
13488,-9.63,-1.31,5.69,0.87,0.37,0.73,-23.02,1.30,41.09
13499,-9.63,-1.31,5.69,0.87,0.37,0.73,-23.02,1.30,41.09
13510,-9.14,2.94,6.76,1.06,0.21,0.61,-23.22,1.46,40.92
13521,-9.08,3.87,6.19,0.53,0.40,-0.28,-23.22,1.46,40.92
13532,-9.08,3.87,6.19,0.53,0.40,-0.28,-23.22,1.46,40.92
13543,-8.34,0.87,5.07,-0.19,0.57,-1.25,-23.22,1.46,40.92
13554,-8.34,0.87,5.07,-0.19,0.57,-1.25,-23.22,1.46,40.92
13565,-9.57,-2.12,2.75,-0.34,0.45,-1.22,-23.22,1.46,40.92
13576,-9.57,-2.12,2.75,-0.34,0.45,-1.22,-23.22,1.46,40.92
13587,-8.30,-1.25,3.72,-0.32,-0.51,-0.59,-23.22,1.46,40.92
13598,-8.30,-1.25,3.72,-0.32,-0.51,-0.59,-23.22,1.46,40.92
13609,-5.72,-0.71,7.10,-0.39,-0.81,-0.07,-23.22,1.46,40.92
13620,-7.86,0.09,4.56,-0.55,-0.41,0.37,-24.83,-0.12,40.92
13631,-7.86,0.09,4.56,-0.55,-0.41,0.37,-24.83,-0.12,40.92
13642,-7.64,-0.76,6.41,-0.75,-0.57,0.63,-24.83,-0.12,40.92
13777,-8.99,4.19,7.02,0.91,-0.01,0.41,-24.43,-0.12,40.57
13788,-7.88,1.29,4.48,0.19,0.27,0.06,-24.43,-0.12,40.57
13799,-7.88,1.29,4.48,0.19,0.27,0.06,-24.43,-0.12,40.57
13810,-7.85,-0.80,4.43,-0.10,0.09,0.12,-24.43,-0.12,40.57
13821,-8.20,-0.43,4.59,-0.30,-0.12,0.20,-24.43,-0.12,40.57
13832,-8.20,-0.43,4.59,-0.30,-0.12,0.20,-24.43,-0.12,40.57
13843,-8.25,-1.25,4.30,-0.14,-0.24,-0.00,-24.43,-0.12,40.57
13854,-8.25,-1.25,4.30,-0.14,-0.24,-0.00,-24.43,-0.12,40.57
13865,-8.75,-0.66,5.69,-0.12,-0.41,-0.09,-21.62,-0.12,39.54
13876,-8.75,-0.66,5.69,-0.12,-0.41,-0.09,-21.62,-0.12,39.54
13887,-9.31,-0.31,5.47,-0.68,-0.33,-0.23,-21.62,-0.12,39.54
13898,-9.31,-0.31,5.47,-0.68,-0.33,-0.23,-21.62,-0.12,39.54
13909,-9.01,0.12,5.71,-0.73,-0.06,-0.29,-21.62,-0.12,39.54
14019,-7.63,-0.54,4.68,0.30,0.01,0.35,-23.83,0.35,40.06
14029,-8.38,0.18,5.12,0.07,-0.24,0.31,-23.83,0.35,40.06
14040,-8.38,0.18,5.12,0.07,-0.24,0.31,-23.83,0.35,40.06
14051,-8.36,-0.38,5.04,0.02,-0.35,0.12,-23.83,0.35,40.06
14062,-9.13,-0.82,5.29,-0.18,-0.41,-0.00,-23.83,0.35,40.06
14073,-9.13,-0.82,5.29,-0.18,-0.41,-0.00,-23.83,0.35,40.06
14084,-9.11,-0.64,4.55,-0.21,-0.30,-0.03,-23.83,0.35,40.06
14095,-9.11,-0.64,4.55,-0.21,-0.30,-0.03,-23.83,0.35,40.06
14106,-8.91,0.17,5.74,-0.17,-0.20,0.02,-23.83,0.35,40.06
14117,-8.91,0.17,5.74,-0.17,-0.20,0.02,-23.83,0.35,40.06
14128,-8.99,0.23,5.44,-0.21,-0.03,-0.05,-22.62,1.30,42.46
14139,-8.99,0.23,5.44,-0.21,-0.03,-0.05,-22.62,1.30,42.46
14150,-9.10,-0.30,5.96,-0.07,0.24,-0.11,-22.62,1.30,42.46
14161,-8.58,-0.07,5.45,0.25,0.52,-0.06,-22.62,1.30,42.46
14172,-8.58,-0.07,5.45,0.25,0.52,-0.06,-22.62,1.30,42.46
14183,-7.73,-0.26,5.62,0.42,0.56,0.01,-22.62,1.30,42.46
14194,-7.73,-0.26,5.62,0.42,0.56,0.01,-22.62,1.30,42.46
14205,-7.32,-0.68,3.78,0.29,0.43,0.15,-22.62,1.30,42.46
14308,-8.95,-0.35,5.20,-0.18,-0.27,0.01,-24.63,0.67,39.37
14318,-8.95,-0.35,5.20,-0.18,-0.27,0.01,-24.63,0.67,39.37
14329,-8.57,-0.46,4.89,-0.09,-0.15,0.04,-24.63,0.67,39.37
14340,-8.57,-0.46,4.89,-0.09,-0.15,0.04,-24.63,0.67,39.37
14351,-8.61,0.52,5.32,-0.02,-0.12,0.10,-24.63,0.67,39.37
14362,-9.08,0.44,6.00,0.05,-0.03,0.02,-24.63,0.67,39.37
14373,-9.08,0.44,6.00,0.05,-0.03,0.02,-24.63,0.67,39.37
14384,-8.57,0.26,5.79,0.13,0.23,-0.07,-22.22,1.30,40.40
14395,-8.57,0.26,5.79,0.13,0.23,-0.07,-22.22,1.30,40.40
14406,-8.54,-0.37,4.88,0.35,0.37,-0.12,-22.22,1.30,40.40
14417,-8.54,-0.37,4.88,0.35,0.37,-0.12,-22.22,1.30,40.40
14428,-8.32,0.04,4.97,0.33,0.36,-0.00,-22.22,1.30,40.40
14439,-8.32,0.04,4.97,0.33,0.36,-0.00,-22.22,1.30,40.40
14542,-8.89,0.13,4.51,-0.44,-0.33,-0.11,-23.22,3.37,40.23
14552,-8.89,0.13,4.51,-0.44,-0.33,-0.11,-23.22,3.37,40.23
14563,-9.10,0.54,5.70,-0.54,-0.27,-0.19,-23.22,3.37,40.23
14574,-9.10,0.54,5.70,-0.54,-0.27,-0.19,-23.22,3.37,40.23
14585,-8.58,-0.03,4.74,-0.48,-0.05,-0.20,-23.22,3.37,40.23
14596,-8.58,-0.03,4.74,-0.48,-0.05,-0.20,-23.22,3.37,40.23
14607,-8.50,0.60,5.26,-0.30,0.00,-0.10,-23.22,3.37,40.23
14618,-8.50,0.60,5.26,-0.30,0.00,-0.10,-23.22,3.37,40.23
14629,-8.76,-0.11,5.27,-0.05,0.07,-0.09,-22.82,-0.44,41.95
14640,-8.76,-0.11,5.27,-0.05,0.07,-0.09,-22.82,-0.44,41.95
14651,-8.22,-0.23,5.13,0.15,0.19,0.02,-22.82,-0.44,41.95
14662,-8.20,0.13,5.21,0.35,0.19,0.18,-22.82,-0.44,41.95
14673,-8.20,0.13,5.21,0.35,0.19,0.18,-22.82,-0.44,41.95
14684,-7.89,-0.40,5.10,0.34,0.14,0.34,-22.82,-0.44,41.95
14695,-7.89,-0.40,5.10,0.34,0.14,0.34,-22.82,-0.44,41.95
14706,-8.66,0.35,5.52,0.17,-0.01,0.41,-22.82,-0.44,41.95
14717,-8.66,0.35,5.52,0.17,-0.01,0.41,-22.82,-0.44,41.95
14728,-8.67,0.25,5.16,0.02,-0.03,0.21,-22.82,-0.44,41.95
14831,-9.05,0.39,5.11,-0.25,-0.15,-0.10,-24.63,0.67,40.40
14841,-9.08,0.35,5.39,-0.36,-0.03,-0.24,-24.63,0.67,40.40
14852,-9.08,0.35,5.39,-0.36,-0.03,-0.24,-24.63,0.67,40.40
14863,-8.46,0.50,5.41,-0.30,0.18,-0.25,-24.63,0.67,40.40
14874,-8.46,0.50,5.41,-0.30,0.18,-0.25,-24.63,0.67,40.40
14885,-8.63,0.80,5.66,-0.00,0.30,-0.17,-22.42,1.15,40.57
14896,-8.63,0.80,5.66,-0.00,0.30,-0.17,-22.42,1.15,40.57
14907,-8.43,-0.10,5.57,0.22,0.41,-0.12,-22.42,1.15,40.57
14918,-8.43,-0.10,5.57,0.22,0.41,-0.12,-22.42,1.15,40.57
14929,-8.37,-0.41,4.44,0.16,0.45,-0.01,-22.42,1.15,40.57
14940,-8.37,-0.41,4.44,0.16,0.45,-0.01,-22.42,1.15,40.57
14951,-8.76,-0.35,2.72,-0.02,0.26,0.28,-22.42,1.15,40.57
14962,-8.78,0.98,5.81,-0.22,-0.29,0.47,-22.42,1.15,40.57
15068,-9.10,1.21,4.42,0.13,-0.28,0.15,-21.82,0.99,40.74
15078,-9.10,1.21,4.42,0.13,-0.28,0.15,-21.82,0.99,40.74
15089,-9.23,1.66,5.37,-0.07,-0.28,-0.05,-21.82,0.99,40.74
15100,-9.23,1.66,5.37,-0.07,-0.28,-0.05,-21.82,0.99,40.74
15111,-8.87,-0.16,4.65,-0.28,-0.10,-0.28,-21.82,0.99,40.74
15122,-8.65,-0.30,5.74,-0.45,-0.03,-0.31,-24.03,0.51,39.54
15133,-8.65,-0.30,5.74,-0.45,-0.03,-0.31,-24.03,0.51,39.54
15144,-8.74,0.31,4.82,-0.46,0.13,-0.26,-24.03,0.51,39.54
15160,-8.74,0.31,4.82,-0.46,0.13,-0.26,-24.03,0.51,39.54
15166,-8.77,0.67,5.78,-0.31,0.25,-0.21,-24.03,0.51,39.54
15177,-8.77,0.67,5.78,-0.31,0.25,-0.21,-24.03,0.51,39.54
15188,-7.96,0.61,5.13,0.10,0.44,-0.14,-24.03,0.51,39.54
15199,-7.96,0.61,5.13,0.10,0.44,-0.14,-24.03,0.51,39.54
15210,-8.40,-0.04,4.83,0.34,0.38,0.02,-24.03,0.51,39.54
15221,-8.40,-0.04,4.83,0.34,0.38,0.02,-24.03,0.51,39.54
15232,-7.62,-0.17,2.28,0.57,0.29,0.38,-24.03,0.51,39.54
15243,-8.78,2.08,4.97,0.68,-0.13,0.74,-24.03,0.51,39.54
15388,-8.41,-1.55,4.20,0.02,0.59,-0.21,-22.22,-2.19,40.06
15399,-8.41,-1.55,4.20,0.02,0.59,-0.21,-22.22,-2.19,40.06
15410,-8.54,-0.04,5.10,0.55,0.24,0.16,-22.22,-2.19,40.06
15421,-8.54,-0.04,5.10,0.55,0.24,0.16,-22.22,-2.19,40.06
15432,-8.38,1.34,5.36,0.59,0.04,0.35,-22.22,-2.19,40.06
15443,-7.88,0.15,4.56,0.25,-0.07,0.28,-22.22,-2.19,40.06
15454,-7.88,0.15,4.56,0.25,-0.07,0.28,-22.22,-2.19,40.06
15465,-8.28,-0.28,5.08,-0.03,-0.22,0.24,-22.22,-2.19,40.06
15476,-8.28,-0.28,5.08,-0.03,-0.22,0.24,-22.22,-2.19,40.06
15487,-8.33,-0.37,4.69,0.04,-0.31,0.12,-22.22,-2.19,40.06
15498,-8.33,-0.37,4.69,0.04,-0.31,0.12,-22.22,-2.19,40.06
15509,-8.87,-0.46,5.30,-0.01,-0.42,0.03,-24.83,-0.44,40.57
15520,-8.87,-0.46,5.30,-0.01,-0.42,0.03,-24.83,-0.44,40.57
15622,-7.93,0.36,4.38,0.45,0.56,0.05,-24.83,-0.44,40.57
15633,-7.93,0.36,4.38,0.45,0.56,0.05,-24.83,-0.44,40.57
15644,-7.74,0.09,4.57,0.46,0.38,0.09,-23.83,0.35,41.09
15655,-7.74,0.09,4.57,0.46,0.38,0.09,-23.83,0.35,41.09
15666,-7.72,-0.03,3.54,0.37,0.13,0.24,-23.83,0.35,41.09
15677,-7.72,-0.03,3.54,0.37,0.13,0.24,-23.83,0.35,41.09
15688,-8.21,0.86,4.82,0.18,-0.19,0.34,-23.83,0.35,41.09
15699,-8.21,0.86,4.82,0.18,-0.19,0.34,-23.83,0.35,41.09
15710,-8.58,0.78,4.92,0.11,-0.30,0.17,-23.83,0.35,41.09
15727,-8.58,0.78,4.92,0.11,-0.30,0.17,-23.83,0.35,41.09
15732,-8.05,-0.13,4.56,-0.14,-0.36,-0.00,-23.83,0.35,41.09
15743,-9.11,0.06,5.26,-0.29,-0.40,-0.04,-23.83,0.35,41.09
15754,-9.11,0.06,5.26,-0.29,-0.40,-0.04,-23.83,0.35,41.09
15765,-8.81,-0.30,4.65,-0.12,-0.21,-0.05,-22.82,0.19,40.92
15869,-8.08,-0.21,4.65,0.33,0.35,-0.01,-22.82,0.19,40.92
15880,-8.08,-0.21,4.65,0.33,0.35,-0.01,-22.82,0.19,40.92
15891,-7.93,-0.27,4.21,0.33,0.20,0.12,-23.02,1.94,39.71
15902,-8.04,0.61,5.04,0.35,-0.01,0.26,-23.02,1.94,39.71
15913,-8.04,0.61,5.04,0.35,-0.01,0.26,-23.02,1.94,39.71
15924,-8.32,1.25,4.90,0.05,-0.14,0.21,-23.02,1.94,39.71
15935,-8.32,1.25,4.90,0.05,-0.14,0.21,-23.02,1.94,39.71
15946,-8.30,0.34,5.32,-0.08,-0.22,0.07,-23.02,1.94,39.71
15957,-8.30,0.34,5.32,-0.08,-0.22,0.07,-23.02,1.94,39.71
15968,-8.54,0.10,4.78,-0.19,-0.27,0.07,-23.02,1.94,39.71
15979,-8.54,0.10,4.78,-0.19,-0.27,0.07,-23.02,1.94,39.71
15990,-9.05,0.58,5.22,-0.16,-0.30,0.12,-23.02,1.94,39.71
16001,-9.05,0.58,5.22,-0.16,-0.30,0.12,-23.02,1.94,39.71
16104,-7.86,0.65,5.14,-0.11,0.36,-0.16,-22.42,2.10,40.23
16114,-7.86,0.65,5.14,-0.11,0.36,-0.16,-22.42,2.10,40.23
16125,-8.18,0.28,4.76,-0.22,0.17,-0.18,-22.42,2.10,40.23
16136,-8.18,0.28,4.76,-0.22,0.17,-0.18,-22.42,2.10,40.23
16147,-7.81,-0.01,4.21,-0.33,0.06,-0.12,-22.42,1.78,40.23
16158,-7.81,-0.01,4.21,-0.33,0.06,-0.12,-22.42,1.78,40.23
16169,-8.28,0.31,4.81,-0.17,-0.17,0.05,-22.42,1.78,40.23
16180,-8.28,0.31,4.81,-0.17,-0.17,0.05,-22.42,1.78,40.23
16191,-8.22,0.33,4.94,-0.09,-0.33,0.14,-22.42,1.78,40.23
16202,-8.22,0.33,4.94,-0.09,-0.33,0.14,-22.42,1.78,40.23
16213,-8.95,0.26,5.07,-0.07,-0.34,0.18,-22.42,1.78,40.23
16224,-8.95,0.18,5.01,0.13,-0.21,0.19,-22.42,1.78,40.23
16235,-8.95,0.18,5.01,0.13,-0.21,0.19,-22.42,1.78,40.23
16246,-8.88,1.06,5.25,0.08,-0.09,0.17,-22.42,1.78,40.23
16257,-8.88,1.06,5.25,0.08,-0.09,0.17,-22.42,1.78,40.23
16268,-8.72,0.03,4.63,0.02,-0.01,0.01,-22.82,0.51,41.26
16279,-8.72,0.03,4.63,0.02,-0.01,0.01,-22.82,0.51,41.26
16290,-9.27,0.59,5.76,0.04,0.06,-0.02,-22.82,0.51,41.26
16393,-8.09,0.66,4.21,0.16,-0.05,0.35,-22.82,0.51,41.26
16403,-8.41,1.39,5.43,0.10,-0.21,0.41,-22.62,2.89,40.06
16414,-8.41,1.39,5.43,0.10,-0.21,0.41,-22.62,2.89,40.06
16425,-8.12,0.20,5.17,-0.11,-0.22,0.19,-22.62,2.89,40.06
16436,-8.12,0.20,5.17,-0.11,-0.22,0.19,-22.62,2.89,40.06
16447,-9.05,0.81,4.58,-0.46,-0.34,0.06,-22.62,2.89,40.06
16458,-9.05,0.81,4.58,-0.46,-0.34,0.06,-22.62,2.89,40.06
16469,-9.32,0.58,5.10,-0.38,-0.27,-0.16,-22.62,2.89,40.06
16480,-9.32,0.58,5.10,-0.38,-0.27,-0.16,-22.62,2.89,40.06
16491,-9.66,0.78,6.19,-0.29,-0.04,-0.32,-22.62,2.89,40.06
16502,-9.66,0.78,6.19,-0.29,-0.04,-0.32,-22.62,2.89,40.06
16513,-8.63,1.42,5.08,-0.27,0.35,-0.48,-22.62,2.89,40.06
16524,-7.95,0.70,4.30,0.11,0.53,-0.30,-21.42,-0.28,40.40
16627,-8.25,-1.18,5.62,-0.68,-0.26,-0.35,-21.42,-0.28,40.40
16637,-8.25,-1.18,5.62,-0.68,-0.26,-0.35,-21.42,-0.28,40.40
16648,-7.92,-1.29,5.14,-1.02,-0.23,-0.46,-21.22,-0.12,39.54
16659,-7.92,-1.29,5.14,-1.02,-0.23,-0.46,-21.22,-0.12,39.54
16670,-8.46,-1.49,6.18,-0.87,-0.05,-0.60,-21.22,-0.12,39.54
16681,-8.46,-1.49,6.18,-0.87,-0.05,-0.60,-21.22,-0.12,39.54
16692,-7.83,-3.37,5.72,-0.60,0.24,-0.79,-21.22,-0.12,39.54
16703,-7.24,-2.99,3.97,-0.09,0.43,-0.44,-21.22,-0.12,39.54
16714,-7.24,-2.99,3.97,-0.09,0.43,-0.44,-21.22,-0.12,39.54
16725,-9.85,0.49,4.88,0.53,0.39,0.22,-21.22,-0.12,39.54
16736,-9.85,0.49,4.88,0.53,0.39,0.22,-21.22,-0.12,39.54
16747,-9.07,2.15,6.23,0.46,0.05,0.27,-21.22,-0.12,39.54
16758,-9.07,2.15,6.23,0.46,0.05,0.27,-21.22,-0.12,39.54
16769,-8.53,1.03,5.72,0.06,0.02,-0.02,-23.02,-1.87,41.43
16780,-8.53,1.03,5.72,0.06,0.02,-0.02,-23.02,-1.87,41.43
16791,-7.73,-0.97,4.42,-0.14,0.02,-0.06,-23.02,-1.87,41.43
16802,-7.73,-0.97,4.42,-0.14,0.02,-0.06,-23.02,-1.87,41.43
16905,-9.08,-0.40,5.71,-0.35,0.22,-0.40,-20.42,-2.03,40.23
16915,-9.08,-0.40,5.71,-0.35,0.22,-0.40,-20.42,-2.03,40.23
16926,-8.21,0.37,5.39,-0.14,0.54,-0.26,-20.42,-2.03,40.23
16937,-8.21,0.37,5.39,-0.14,0.54,-0.26,-20.42,-2.03,40.23
16948,-7.56,-0.78,4.17,0.05,0.60,-0.06,-20.42,-2.03,40.23
16959,-7.56,-0.78,4.17,0.05,0.60,-0.06,-20.42,-2.03,40.23
16970,-7.59,-0.75,4.10,0.18,0.30,0.23,-20.42,-2.03,40.23
16981,-7.59,-0.75,4.10,0.18,0.30,0.23,-20.42,-2.03,40.23
16992,-7.81,-0.38,4.01,0.19,-0.08,0.38,-20.42,-2.03,40.23
17003,-7.81,-0.38,4.01,0.19,-0.08,0.38,-20.42,-2.03,40.23
17014,-9.11,0.02,5.25,0.23,-0.31,0.27,-20.42,-2.03,40.23
17025,-8.94,-0.48,4.42,0.18,-0.29,0.11,-22.82,-2.98,40.92
17036,-8.94,-0.48,4.42,0.18,-0.29,0.11,-22.82,-2.98,40.92
17139,-8.10,0.25,4.40,1.53,1.10,-0.14,-22.82,-2.98,40.92
17149,-7.29,-0.83,4.83,1.68,0.97,-0.25,-25.43,0.35,40.06
17160,-7.29,-0.83,4.83,1.68,0.97,-0.25,-25.43,0.35,40.06
17171,-7.81,0.03,4.31,0.95,0.61,-0.19,-25.43,0.35,40.06
17182,-7.81,0.03,4.31,0.95,0.61,-0.19,-25.43,0.35,40.06
17193,-8.37,1.37,5.12,-0.03,0.28,-0.24,-25.43,0.35,40.06
17204,-8.31,-0.45,4.35,-0.85,0.12,-0.46,-25.43,0.35,40.06
17215,-8.31,-0.45,4.35,-0.85,0.12,-0.46,-25.43,0.35,40.06
17226,-7.87,0.16,4.12,-1.03,-0.06,-0.34,-25.43,0.35,40.06
17237,-7.87,0.16,4.12,-1.03,-0.06,-0.34,-25.43,0.35,40.06
17248,-8.55,-0.50,3.68,-1.02,-0.29,-0.15,-25.43,0.35,40.06
17259,-8.55,-0.50,3.68,-1.02,-0.29,-0.15,-25.43,0.35,40.06
17270,-8.93,-0.23,4.60,-0.55,-0.40,0.12,-25.43,0.35,40.06
17286,-8.93,-0.23,4.60,-0.55,-0.40,0.12,-25.43,0.35,40.06
17292,-8.53,0.04,4.70,-0.31,-0.33,0.26,-25.43,-1.24,40.40
17303,-8.53,0.04,4.70,-0.31,-0.33,0.26,-25.43,-1.24,40.40
17314,-8.31,0.08,4.60,-0.30,-0.35,0.40,-25.43,-1.24,40.40
17325,-8.32,0.09,5.09,-0.38,-0.44,0.46,-25.43,-1.24,40.40
17429,-8.84,-0.01,4.30,-0.10,-0.20,-0.03,-22.02,-1.71,41.60
17439,-8.84,-0.01,4.30,-0.10,-0.20,-0.03,-22.02,-1.71,41.60
17450,-8.71,0.10,4.88,0.02,-0.18,-0.01,-22.02,-1.71,41.60
17461,-8.71,0.10,4.88,0.02,-0.18,-0.01,-22.02,-1.71,41.60
17472,-8.72,0.80,7.56,0.13,-0.07,0.03,-22.02,-1.71,41.60
17483,-8.72,0.80,7.56,0.13,-0.07,0.03,-22.02,-1.71,41.60
17494,-8.29,-0.84,4.73,0.14,0.25,0.00,-22.02,-1.71,41.60
17505,-8.14,0.49,4.69,0.27,0.19,0.18,-22.02,-1.71,41.60
17516,-8.14,0.49,4.69,0.27,0.19,0.18,-22.02,-1.71,41.60
17527,-8.50,-0.02,5.05,0.35,0.04,0.18,-20.22,-0.28,39.71
17538,-8.50,-0.02,5.05,0.35,0.04,0.18,-20.22,-0.28,39.71
17549,-8.65,-0.11,5.16,0.16,-0.02,0.14,-20.22,-0.28,39.71
17560,-8.65,-0.11,5.16,0.16,-0.02,0.14,-20.22,-0.28,39.71
17706,-9.37,1.77,5.02,0.19,-0.17,0.59,-22.22,0.35,41.43
17716,-9.37,1.77,5.02,0.19,-0.17,0.59,-22.22,0.35,41.43
17727,-7.05,0.71,5.80,-0.17,-0.26,0.27,-22.22,0.35,41.43
17738,-7.05,0.71,5.80,-0.17,-0.26,0.27,-22.22,0.35,41.43
17749,-8.38,-0.24,5.28,-0.30,0.02,0.03,-22.22,0.35,41.43
17760,-8.38,-0.24,5.28,-0.30,0.02,0.03,-22.22,0.35,41.43
17771,-9.39,-0.79,3.47,-0.32,0.09,-0.10,-22.22,0.35,41.43
17782,-9.39,-0.79,3.47,-0.32,0.09,-0.10,-22.22,0.35,41.43
17793,-8.76,0.70,4.39,-0.08,-0.03,0.00,-21.82,-1.24,40.40
17804,-8.71,1.36,5.30,0.16,-0.04,0.06,-21.82,-1.24,40.40
17815,-8.71,1.36,5.30,0.16,-0.04,0.06,-21.82,-1.24,40.40
17826,-8.55,0.33,5.42,0.18,0.06,0.02,-21.82,-1.24,40.40
17837,-8.55,0.33,5.42,0.18,0.06,0.02,-21.82,-1.24,40.40
17940,-9.01,0.41,5.44,-0.26,-0.27,-0.11,-22.62,0.35,42.12
17950,-9.08,-0.50,4.97,-0.71,-0.21,-0.30,-22.62,0.35,42.12
17961,-9.08,-0.50,4.97,-0.71,-0.21,-0.30,-22.62,0.35,42.12
17972,-8.94,0.69,5.83,-0.70,-0.07,-0.24,-22.62,0.35,42.12
17988,-8.94,0.69,5.83,-0.70,-0.07,-0.24,-22.62,0.35,42.12
17994,-8.65,0.53,5.15,-0.63,0.12,-0.30,-22.62,0.35,42.12
18005,-8.42,0.68,5.24,-0.33,0.33,-0.31,-22.62,0.35,42.12
18016,-8.42,0.68,5.24,-0.33,0.33,-0.31,-22.62,0.35,42.12
18027,-8.11,-0.06,4.65,0.15,0.47,-0.13,-21.22,-1.40,40.57
18038,-8.11,-0.06,4.65,0.15,0.47,-0.13,-21.22,-1.40,40.57
18049,-7.89,-0.29,4.63,0.31,0.38,0.13,-21.22,-1.40,40.57
18060,-7.89,-0.29,4.63,0.31,0.38,0.13,-21.22,-1.40,40.57
18071,-7.68,-0.34,3.74,0.43,0.17,0.35,-21.22,-1.40,40.57
18176,-8.65,0.38,4.55,-0.09,-0.14,-0.03,-22.22,-0.28,42.12
18186,-8.85,0.32,5.11,0.02,-0.12,-0.01,-22.22,-0.28,42.12
18197,-8.85,0.32,5.11,0.02,-0.12,-0.01,-22.22,-0.28,42.12
18208,-9.21,0.66,5.54,0.17,0.02,-0.03,-22.22,-0.28,42.12
18219,-9.21,0.66,5.54,0.17,0.02,-0.03,-22.22,-0.28,42.12
18230,-8.46,0.15,4.97,0.29,0.27,-0.08,-22.22,-0.28,42.12
18241,-8.46,0.15,4.97,0.29,0.27,-0.08,-22.22,-0.28,42.12
18252,-8.14,0.41,5.68,0.36,0.28,-0.03,-22.22,-0.28,42.12
18263,-8.14,0.41,5.68,0.36,0.28,-0.03,-22.22,-0.28,42.12
18274,-7.91,0.15,4.69,0.30,0.22,0.05,-22.22,-0.28,42.12
18285,-7.97,0.39,4.77,0.13,0.06,0.17,-21.62,1.46,39.88
18296,-7.97,0.39,4.77,0.13,0.06,0.17,-21.62,1.46,39.88
18307,-8.49,0.96,4.43,0.03,-0.11,0.21,-21.62,1.46,39.88
18318,-8.49,0.96,4.43,0.03,-0.11,0.21,-21.62,1.46,39.88
18329,-8.37,1.01,5.37,0.01,-0.20,0.12,-21.62,1.46,39.88
18340,-8.37,1.01,5.37,0.01,-0.20,0.12,-21.62,1.46,39.88
18351,-8.21,0.19,4.84,-0.17,-0.25,0.04,-21.62,1.46,39.88
18362,-8.21,0.19,4.84,-0.17,-0.25,0.04,-21.62,1.46,39.88
18462,-9.13,1.05,5.15,0.10,0.18,0.10,-23.62,1.15,40.57
18472,-8.46,1.90,6.39,-0.09,0.36,-0.11,-23.62,1.15,40.57
18483,-8.46,1.90,6.39,-0.09,0.36,-0.11,-23.62,1.15,40.57
18494,-7.35,0.39,3.79,-0.28,0.47,-0.35,-23.62,1.15,40.57
18505,-8.21,0.25,5.52,-0.18,0.15,-0.21,-23.62,1.15,40.57
18516,-8.21,0.25,5.52,-0.18,0.15,-0.21,-23.62,1.15,40.57
18527,-7.87,-0.02,3.92,-0.21,0.06,-0.07,-23.62,1.15,40.57
18538,-7.87,-0.02,3.92,-0.21,0.06,-0.07,-23.62,1.15,40.57
18549,-8.16,0.76,4.51,0.02,-0.19,0.13,-23.22,0.83,41.60
18560,-8.16,0.76,4.51,0.02,-0.19,0.13,-23.22,0.83,41.60
18571,-8.32,1.17,5.67,0.12,-0.32,0.22,-23.22,0.83,41.60
18582,-8.32,1.17,5.67,0.12,-0.32,0.22,-23.22,0.83,41.60
18593,-9.41,-0.22,4.72,0.02,-0.32,0.18,-23.22,0.83,41.60
18695,-7.87,0.12,4.68,0.07,0.40,0.11,-22.42,1.46,40.57
18706,-8.39,1.59,3.88,-0.11,0.20,0.36,-22.42,1.46,40.57
18717,-8.39,1.59,3.88,-0.11,0.20,0.36,-22.42,1.46,40.57
18728,-9.09,1.33,5.07,-0.33,-0.08,0.27,-22.42,1.46,40.57
18739,-9.09,1.33,5.07,-0.33,-0.08,0.27,-22.42,1.46,40.57
18750,-6.73,0.77,5.51,-0.46,-0.10,0.10,-22.42,1.46,40.57
18761,-6.73,0.77,5.51,-0.46,-0.10,0.10,-22.42,1.46,40.57
18772,-8.31,0.16,5.84,-0.53,0.08,-0.09,-22.42,1.46,40.57
18783,-8.31,0.16,5.84,-0.53,0.08,-0.09,-22.42,1.46,40.57
18794,-8.66,-1.03,4.06,-0.44,-0.00,-0.10,-21.62,1.15,40.57
18805,-8.78,1.55,5.22,0.06,-0.13,0.19,-21.62,1.15,40.57
18816,-8.78,1.55,5.22,0.06,-0.13,0.19,-21.62,1.15,40.57
18827,-8.36,0.70,4.86,0.26,-0.07,0.14,-21.62,1.15,40.57
18838,-8.36,0.70,4.86,0.26,-0.07,0.14,-21.62,1.15,40.57
18849,-8.47,0.67,5.24,0.31,-0.13,0.20,-21.62,1.15,40.57
18860,-8.47,0.67,5.24,0.31,-0.13,0.20,-21.62,1.15,40.57
18871,-8.56,0.73,4.80,0.16,-0.15,0.12,-21.62,1.15,40.57
18882,-8.56,0.73,4.80,0.16,-0.15,0.12,-21.62,1.15,40.57
18984,-8.93,1.12,5.60,-0.89,0.28,-0.38,-19.62,1.78,40.92
18995,-7.69,0.39,3.90,-0.42,0.53,-0.31,-19.62,1.78,40.92
19006,-7.85,0.38,6.31,0.13,0.40,-0.01,-19.62,1.78,40.92
19017,-7.85,0.38,6.31,0.13,0.40,-0.01,-19.62,1.78,40.92
19028,-7.25,-0.55,2.54,0.35,0.32,0.26,-19.62,1.78,40.92
19039,-7.25,-0.55,2.54,0.35,0.32,0.26,-19.62,1.78,40.92
19050,-8.02,1.29,4.61,0.68,-0.21,0.71,-21.62,-1.08,39.20
19061,-8.02,1.29,4.61,0.68,-0.21,0.71,-21.62,-1.08,39.20
19072,-8.36,1.41,5.40,0.69,-0.40,0.62,-21.62,-1.08,39.20
19083,-8.36,1.41,5.40,0.69,-0.40,0.62,-21.62,-1.08,39.20
19094,-8.31,0.91,4.89,0.48,-0.42,0.34,-21.62,-1.08,39.20
19105,-8.31,0.91,4.89,0.48,-0.42,0.34,-21.62,-1.08,39.20
19116,-7.96,1.33,5.21,-0.16,-0.62,0.13,-21.62,-1.08,39.20
19224,-8.80,1.13,5.65,0.09,0.46,-0.03,-19.82,-0.92,40.74
19234,-8.33,1.27,6.13,0.40,0.66,-0.03,-19.82,-0.92,40.74
19245,-8.33,1.27,6.13,0.40,0.66,-0.03,-19.82,-0.92,40.74
19256,-7.82,1.19,4.51,0.27,0.69,-0.16,-19.82,-0.92,40.74
19267,-7.71,-0.24,4.68,0.25,0.47,-0.13,-19.82,-0.92,40.74
19278,-7.71,-0.24,4.68,0.25,0.47,-0.13,-19.82,-0.92,40.74
19289,-7.77,-0.38,4.93,0.26,0.23,0.10,-22.82,1.46,39.54
19300,-7.77,-0.38,4.93,0.26,0.23,0.10,-22.82,1.46,39.54
19311,-8.05,1.07,4.75,0.19,0.00,0.37,-22.82,1.46,39.54
19322,-8.05,1.07,4.75,0.19,0.00,0.37,-22.82,1.46,39.54
19333,-8.44,1.77,5.58,0.05,-0.14,0.31,-22.82,1.46,39.54
19344,-8.44,1.77,5.58,0.05,-0.14,0.31,-22.82,1.46,39.54
19355,-8.41,1.25,4.64,-0.06,-0.19,0.04,-22.82,1.46,39.54
19366,-9.25,0.09,5.00,-0.35,-0.31,-0.14,-22.82,1.46,39.54
19377,-9.25,0.09,5.00,-0.35,-0.31,-0.14,-22.82,1.46,39.54
19388,-8.91,0.68,4.63,-0.38,-0.20,-0.15,-22.82,1.46,39.54
19399,-8.91,0.68,4.63,-0.38,-0.20,-0.15,-22.82,1.46,39.54
19410,-9.27,1.16,5.85,-0.32,-0.08,-0.24,-22.82,1.46,39.54
19552,-9.87,-3.38,8.40,-0.33,-1.80,0.49,-19.62,2.42,42.29
19562,-9.87,-3.38,8.40,-0.33,-1.80,0.49,-19.62,2.42,42.29
19573,-7.88,-4.27,6.83,0.28,-1.38,-0.42,-19.62,2.42,42.29
19584,-7.88,-4.27,6.83,0.28,-1.38,-0.42,-19.62,2.42,42.29
19595,-6.57,-5.76,6.74,0.61,-1.18,-1.68,-19.62,2.42,42.29
19606,-5.72,-5.64,8.23,0.86,-0.79,-2.72,-19.62,2.42,42.29
19617,-5.72,-5.64,8.23,0.86,-0.79,-2.72,-19.62,2.42,42.29
19628,-6.25,-6.54,5.15,1.22,-0.12,-3.13,-19.62,2.42,42.29
19639,-6.25,-6.54,5.15,1.22,-0.12,-3.13,-19.62,2.42,42.29
19650,-5.51,-3.78,6.52,1.61,-0.00,-2.95,-19.62,2.42,42.29
19661,-5.51,-3.78,6.52,1.61,-0.00,-2.95,-19.62,2.42,42.29
19672,-6.12,-1.69,6.11,2.05,0.36,-3.13,-18.81,1.15,44.36
19683,-6.12,-1.69,6.11,2.05,0.36,-3.13,-18.81,1.15,44.36
19786,-8.92,4.00,4.34,0.96,0.47,-1.62,-18.81,1.15,44.36
19796,-7.90,0.66,3.01,0.81,0.56,-1.56,-18.81,1.15,44.36
19807,-8.49,1.64,2.76,0.89,0.53,-0.68,-24.43,3.37,38.85
19818,-8.49,1.64,2.76,0.89,0.53,-0.68,-24.43,3.37,38.85
19829,-9.30,4.41,3.06,0.77,0.50,0.22,-24.43,3.37,38.85
19840,-9.30,4.41,3.06,0.77,0.50,0.22,-24.43,3.37,38.85
19851,-9.10,4.35,3.84,0.41,0.56,0.37,-24.43,3.37,38.85
19862,-9.10,4.35,3.84,0.41,0.56,0.37,-24.43,3.37,38.85
19873,-15.01,1.36,5.44,0.11,0.57,0.06,-24.43,3.37,38.85
19884,-15.01,1.36,5.44,0.11,0.57,0.06,-24.43,3.37,38.85
19895,-10.72,-2.04,5.80,-0.31,0.02,-0.19,-24.43,3.37,38.85
19906,-4.59,-1.54,3.97,-0.43,-0.10,0.27,-24.43,3.37,38.85
19917,-4.59,-1.54,3.97,-0.43,-0.10,0.27,-24.43,3.37,38.85
19928,-9.38,0.42,6.37,-0.16,0.20,0.65,-25.03,4.48,38.68
20031,-8.28,1.75,6.24,0.36,0.11,0.28,-25.03,4.48,38.68
20041,-8.28,1.75,6.24,0.36,0.11,0.28,-25.03,4.48,38.68
20052,-7.63,0.57,4.23,0.05,0.07,0.22,-25.43,5.44,37.99
20063,-7.63,0.57,4.23,0.05,0.07,0.22,-25.43,5.44,37.99
20074,-7.61,-0.18,4.26,-0.18,-0.19,0.40,-25.43,5.44,37.99
20085,-7.61,-0.18,4.26,-0.18,-0.19,0.40,-25.43,5.44,37.99
20096,-8.27,0.34,4.96,-0.10,-0.42,0.51,-25.43,5.44,37.99
20107,-8.16,-0.52,5.74,0.13,-0.50,0.29,-25.43,5.44,37.99
20118,-8.16,-0.52,5.74,0.13,-0.50,0.29,-25.43,5.44,37.99
20129,-9.01,-0.40,4.70,-0.18,-0.50,0.12,-25.43,5.44,37.99
20140,-9.01,-0.40,4.70,-0.18,-0.50,0.12,-25.43,5.44,37.99
20151,-9.74,-0.53,5.13,-0.53,-0.43,0.02,-25.43,5.44,37.99
20162,-9.74,-0.53,5.13,-0.53,-0.43,0.02,-25.43,5.44,37.99
20173,-9.27,0.24,4.64,-0.37,-0.20,0.07,-25.43,5.44,37.99
20184,-9.27,0.24,4.64,-0.37,-0.20,0.07,-25.43,5.44,37.99
20195,-9.96,0.81,8.28,-0.32,0.00,-0.10,-24.63,6.71,39.02
20206,-9.96,0.81,8.28,-0.32,0.00,-0.10,-24.63,6.71,39.02
20309,-7.78,0.12,4.98,0.11,0.16,0.06,-28.04,5.59,36.44
20319,-7.78,0.12,4.98,0.11,0.16,0.06,-28.04,5.59,36.44
20330,-8.02,0.01,3.57,-0.34,-0.08,0.30,-28.04,5.59,36.44
20341,-8.02,0.01,3.57,-0.34,-0.08,0.30,-28.04,5.59,36.44
20352,-9.09,0.08,5.48,-0.34,-0.39,0.35,-28.04,5.59,36.44
20363,-9.09,0.08,5.48,-0.34,-0.39,0.35,-28.04,5.59,36.44
20374,-8.57,-0.94,3.75,-0.30,-0.38,0.17,-28.04,5.59,36.44
20385,-8.57,-0.94,3.75,-0.30,-0.38,0.17,-28.04,5.59,36.44
20396,-9.39,-0.10,4.62,-0.28,-0.43,0.03,-28.04,5.59,36.44
20407,-9.44,1.67,5.59,-0.19,-0.27,-0.14,-28.04,5.59,36.44
20418,-9.44,1.67,5.59,-0.19,-0.27,-0.14,-28.04,5.59,36.44
20429,-8.99,1.78,5.96,-0.36,0.05,-0.38,-27.43,4.48,36.62
20440,-8.99,1.78,5.96,-0.36,0.05,-0.38,-27.43,4.48,36.62
20451,-8.21,-1.19,4.55,-0.44,0.29,-0.33,-27.43,4.48,36.62
20554,-8.82,-1.11,5.29,0.02,-0.21,0.12,-25.43,5.75,37.99
20564,-8.82,-1.11,5.29,0.02,-0.21,0.12,-25.43,5.75,37.99
20575,-8.98,-0.44,4.46,0.05,-0.18,0.02,-25.43,5.75,37.99
20586,-8.98,-0.44,4.46,0.05,-0.18,0.02,-25.43,5.75,37.99
20597,-9.28,0.82,5.65,-0.04,-0.15,-0.05,-25.43,5.75,37.99
20608,-8.93,0.43,5.48,-0.27,0.05,-0.24,-25.43,5.75,37.99
20619,-8.93,0.43,5.48,-0.27,0.05,-0.24,-25.43,5.75,37.99
20630,-8.64,0.20,5.43,-0.17,0.18,-0.26,-25.43,5.75,37.99
20641,-8.64,0.20,5.43,-0.17,0.18,-0.26,-25.43,5.75,37.99
20652,-8.65,-0.03,4.71,0.05,0.28,-0.19,-25.43,5.75,37.99
20663,-8.65,-0.03,4.71,0.05,0.28,-0.19,-25.43,5.75,37.99
20674,-8.50,-0.69,4.21,0.36,0.31,-0.07,-25.43,5.75,37.99
20685,-8.50,-0.69,4.21,0.36,0.31,-0.07,-25.43,5.75,37.99
20696,-8.36,0.28,4.84,0.55,0.26,0.19,-27.23,4.96,38.51
20707,-7.94,-0.50,4.07,0.43,0.14,0.32,-27.23,4.96,38.51
20718,-7.94,-0.50,4.07,0.43,0.14,0.32,-27.23,4.96,38.51
20729,-8.11,0.80,5.38,0.19,-0.14,0.48,-27.23,4.96,38.51
20832,-8.66,0.75,5.59,-0.29,-0.10,-0.14,-26.23,5.12,37.99
20842,-8.66,0.75,5.59,-0.29,-0.10,-0.14,-26.23,5.12,37.99
20853,-8.77,0.25,4.77,-0.03,0.02,-0.13,-26.23,5.12,37.99
20864,-8.77,0.25,4.77,-0.03,0.02,-0.13,-26.23,5.12,37.99
20875,-8.78,0.54,5.71,0.27,0.12,-0.06,-26.23,5.12,37.99
20886,-8.78,0.54,5.71,0.27,0.12,-0.06,-26.23,5.12,37.99
20897,-8.55,-0.26,5.21,0.27,0.23,-0.05,-26.23,5.12,37.99
20908,-7.99,-0.33,4.42,0.22,0.20,0.10,-26.23,5.12,37.99
20919,-7.99,-0.33,4.42,0.22,0.20,0.10,-26.23,5.12,37.99
20930,-8.32,0.16,5.10,0.18,0.04,0.26,-24.83,6.23,39.20
20941,-8.32,0.16,5.10,0.18,0.04,0.26,-24.83,6.23,39.20
20952,-8.29,0.35,4.58,0.15,-0.03,0.27,-24.83,6.23,39.20
20963,-8.29,0.35,4.58,0.15,-0.03,0.27,-24.83,6.23,39.20
20974,-8.76,0.54,5.42,0.08,-0.11,0.15,-24.83,6.23,39.20
21076,-8.57,0.44,5.61,0.06,0.08,-0.09,-25.23,5.59,36.44
21086,-8.57,0.44,5.61,0.06,0.08,-0.09,-25.23,5.59,36.44
21097,-8.27,0.23,4.72,0.17,0.20,0.04,-25.23,5.59,36.44
21108,-8.47,0.30,4.13,0.16,0.12,0.17,-25.23,5.59,36.44
21119,-8.47,0.30,4.13,0.16,0.12,0.17,-25.23,5.59,36.44
21130,-8.58,0.15,4.51,0.17,0.01,0.12,-25.23,5.59,36.44
21141,-8.58,0.15,4.51,0.17,0.01,0.12,-25.23,5.59,36.44
21152,-9.05,0.76,5.11,0.14,-0.04,0.02,-25.23,5.59,36.44
21163,-9.05,0.76,5.11,0.14,-0.04,0.02,-25.23,5.59,36.44
21174,-8.92,0.37,5.01,0.12,0.05,-0.17,-25.23,5.59,36.44
21185,-8.92,0.37,5.01,0.12,0.05,-0.17,-25.23,5.59,36.44
21196,-8.93,0.87,5.28,0.12,0.14,-0.22,-26.23,6.07,37.30
21207,-8.93,0.87,5.28,0.12,0.14,-0.22,-26.23,6.07,37.30
21218,-8.68,0.75,4.85,0.13,0.25,-0.28,-26.23,6.07,37.30
21229,-8.17,-0.12,4.53,0.21,0.30,-0.17,-26.23,6.07,37.30
21240,-8.17,-0.12,4.53,0.21,0.30,-0.17,-26.23,6.07,37.30
21251,-8.08,-0.36,4.27,0.18,0.18,0.16,-26.23,6.07,37.30
21262,-8.08,-0.36,4.27,0.18,0.18,0.16,-26.23,6.07,37.30
21366,-10.61,-0.47,4.80,-0.24,-0.03,0.19,-26.23,7.34,36.62
21376,-8.88,-0.63,5.36,-0.15,-0.17,0.06,-26.23,7.34,36.62
21387,-8.88,-0.63,5.36,-0.15,-0.17,0.06,-26.23,7.34,36.62
21398,-9.00,0.61,4.52,-0.05,-0.15,0.03,-26.23,7.34,36.62
21409,-9.18,1.38,5.17,-0.15,-0.14,-0.08,-26.23,7.34,36.62
21420,-9.18,1.38,5.17,-0.15,-0.14,-0.08,-26.23,7.34,36.62
21431,-8.76,0.72,5.59,-0.40,-0.00,-0.28,-26.23,7.34,36.62
21442,-8.76,0.72,5.59,-0.40,-0.00,-0.28,-26.23,7.34,36.62
21453,-8.92,0.44,5.92,-0.52,0.10,-0.37,-25.83,6.07,39.02
21464,-8.92,0.44,5.92,-0.52,0.10,-0.37,-25.83,6.07,39.02
21475,-8.57,-0.23,4.86,-0.43,0.31,-0.46,-25.83,6.07,39.02
21486,-8.57,-0.23,4.86,-0.43,0.31,-0.46,-25.83,6.07,39.02
21497,-8.05,-0.37,4.71,0.33,0.36,-0.24,-25.83,6.07,39.02
21638,-8.87,1.20,5.16,-0.06,-0.09,-0.01,-26.23,7.98,36.27
21648,-8.86,1.50,4.75,0.00,-0.02,-0.07,-26.23,7.98,36.27
21659,-8.86,1.50,4.75,0.00,-0.02,-0.07,-26.23,7.98,36.27
21670,-8.63,0.57,5.26,0.19,0.06,-0.15,-26.23,7.98,36.27
21681,-8.63,0.57,5.26,0.19,0.06,-0.15,-26.23,7.98,36.27
21692,-8.35,0.48,5.07,0.25,0.16,-0.06,-24.63,7.98,38.68
21703,-8.35,0.48,5.07,0.25,0.16,-0.06,-24.63,7.98,38.68
21714,-8.17,-0.12,4.41,0.25,0.16,0.10,-24.63,7.98,38.68
21725,-8.17,-0.12,4.41,0.25,0.16,0.10,-24.63,7.98,38.68
21736,-8.03,-0.20,4.15,0.24,-0.02,0.36,-24.63,7.98,38.68
21747,-8.03,-0.20,4.15,0.24,-0.02,0.36,-24.63,7.98,38.68
21758,-8.92,1.50,5.88,0.15,-0.16,0.39,-24.63,7.98,38.68
21769,-8.56,0.39,4.45,-0.13,-0.07,0.06,-24.63,7.98,38.68
21780,-8.56,0.39,4.45,-0.13,-0.07,0.06,-24.63,7.98,38.68
21791,-8.72,0.70,4.52,-0.17,-0.13,-0.03,-24.63,7.98,38.68
21802,-8.72,0.70,4.52,-0.17,-0.13,-0.03,-24.63,7.98,38.68
21813,-8.96,0.37,5.46,-0.17,-0.18,-0.18,-25.43,7.02,37.65
21915,-8.02,-0.91,3.95,0.15,0.35,-0.19,-25.43,7.02,37.65
21926,-8.02,-0.91,3.95,0.15,0.35,-0.19,-25.43,7.02,37.65
21937,-8.69,0.52,5.07,0.28,0.22,0.12,-25.43,7.02,37.65
21948,-8.43,0.44,3.84,0.31,0.29,0.26,-25.43,7.02,37.65
21959,-8.43,0.44,3.84,0.31,0.29,0.26,-27.23,7.18,37.82
21970,-8.78,0.69,3.16,0.32,0.15,0.56,-27.23,7.18,37.82
21981,-8.78,0.69,3.16,0.32,0.15,0.56,-27.23,7.18,37.82
21992,-10.84,2.56,3.39,0.34,-0.00,0.96,-27.23,7.18,37.82
22003,-10.84,2.56,3.39,0.34,-0.00,0.96,-27.23,7.18,37.82
22014,-7.82,2.95,6.57,-0.10,-0.35,0.75,-27.23,7.18,37.82
22025,-7.82,2.95,6.57,-0.10,-0.35,0.75,-27.23,7.18,37.82
22036,-6.56,0.82,5.49,-0.28,0.08,0.39,-27.23,7.18,37.82
22047,-6.56,0.82,5.49,-0.28,0.08,0.39,-27.23,7.18,37.82
22058,-11.86,0.39,4.51,-0.29,0.66,0.32,-27.23,7.18,37.82
22161,-9.18,3.57,3.31,-0.62,-1.17,0.53,-25.23,10.04,36.44
22171,-9.98,4.32,6.13,-1.12,-1.39,0.95,-25.23,10.04,36.44
22182,-9.98,4.32,6.13,-1.12,-1.39,0.95,-25.23,10.04,36.44
22193,-10.31,3.27,5.87,-1.66,-1.32,0.98,-21.22,7.82,39.20
22204,-10.31,3.27,5.87,-1.66,-1.32,0.98,-21.22,7.82,39.20
22215,-8.22,0.83,6.20,-1.41,-0.98,0.87,-21.22,7.82,39.20
22226,-8.22,0.83,6.20,-1.41,-0.98,0.87,-21.22,7.82,39.20
22237,-6.94,-0.26,5.75,-1.01,-0.57,0.81,-21.22,7.82,39.20
22248,-6.94,-0.26,5.75,-1.01,-0.57,0.81,-21.22,7.82,39.20
22259,-5.91,-1.80,4.60,-0.47,-0.22,0.87,-21.22,7.82,39.20
22270,-5.84,-0.44,5.31,0.40,0.05,1.34,-21.22,7.82,39.20
22281,-5.84,-0.44,5.31,0.40,0.05,1.34,-21.22,7.82,39.20
22292,-6.57,-0.03,4.86,1.22,0.40,1.75,-21.22,7.82,39.20
22303,-6.57,-0.03,4.86,1.22,0.40,1.75,-21.22,7.82,39.20
22314,-7.08,0.51,4.14,1.78,0.50,2.20,-21.22,7.82,39.20
22325,-7.08,0.51,4.14,1.78,0.50,2.20,-21.22,7.82,39.20
22336,-6.81,1.27,4.88,2.40,0.44,2.70,-18.81,12.58,39.54
22347,-6.81,1.27,4.88,2.40,0.44,2.70,-18.81,12.58,39.54
22450,-9.23,9.32,1.71,16.94,4.24,3.33,-2.17,34.03,-9.48
22460,-9.23,9.32,1.71,16.94,4.24,3.33,-2.17,34.03,-9.48
22471,-6.44,10.57,-5.72,11.47,4.91,1.96,-2.17,34.03,-9.48
22482,-6.44,10.57,-5.72,11.47,4.91,1.96,-2.17,34.03,-9.48
22493,-3.35,12.15,-17.07,7.42,4.09,0.06,-2.17,34.03,-9.48
22504,-3.35,12.15,-17.07,7.42,4.09,0.06,-2.17,34.03,-9.48
22515,-2.37,8.02,-14.79,6.86,1.42,-1.70,-2.17,34.03,-9.48
22526,-2.37,8.02,-14.79,6.86,1.42,-1.70,-2.17,34.03,-9.48
22537,-2.06,5.51,-10.29,6.17,-0.80,-2.69,-2.17,34.03,-9.48
22548,-2.06,5.51,-10.29,6.17,-0.80,-2.69,-2.17,34.03,-9.48
22559,-3.45,3.55,-6.63,5.70,-1.75,-3.26,-2.17,34.03,-9.48
22570,-4.96,1.53,-4.30,4.36,-1.62,-3.55,-1.57,5.28,-39.24
22581,-4.96,1.53,-4.30,4.36,-1.62,-3.55,-1.57,5.28,-39.24
22684,-2.79,-3.47,-6.37,3.46,-0.73,-4.46,-1.57,5.28,-39.24
22694,-1.18,-5.33,-6.10,2.29,-0.80,-4.49,-1.57,5.28,-39.24
22705,-1.18,-5.33,-6.10,2.29,-0.80,-4.49,-1.57,5.28,-39.24
22716,-1.68,-6.79,-8.19,1.05,-0.73,-4.29,-4.78,-14.42,-38.90
22727,-1.68,-6.79,-8.19,1.05,-0.73,-4.29,-4.78,-14.42,-38.90
22738,0.07,-9.33,-7.01,1.32,-0.51,-3.62,-4.78,-14.42,-38.90
22749,-1.33,-10.21,-6.42,1.15,-0.27,-2.60,-4.78,-14.42,-38.90
22760,-1.33,-10.21,-6.42,1.15,-0.27,-2.60,-4.78,-14.42,-38.90
22771,-3.12,-10.12,-5.72,1.16,0.06,-1.42,-4.78,-14.42,-38.90
22782,-3.12,-10.12,-5.72,1.16,0.06,-1.42,-4.78,-14.42,-38.90
22793,-2.01,-9.20,-6.26,0.85,0.33,-0.35,-4.78,-14.42,-38.90
22804,-2.01,-9.20,-6.26,0.85,0.33,-0.35,-4.78,-14.42,-38.90
22815,-1.98,-7.09,-7.91,0.93,0.55,0.51,-4.78,-14.42,-38.90
22826,-1.98,-7.09,-7.91,0.93,0.55,0.51,-4.78,-14.42,-38.90
22837,-2.50,-6.74,-4.66,2.53,0.93,0.94,-2.77,-20.46,-36.49
22848,-2.50,-6.74,-4.66,2.53,0.93,0.94,-2.77,-20.46,-36.49
22951,-1.62,-7.56,-6.36,2.34,0.10,-1.40,4.24,-29.51,-32.53
22961,-1.62,-7.56,-6.36,2.34,0.10,-1.40,4.24,-29.51,-32.53
22972,-1.21,-7.09,-5.43,1.88,-0.27,-1.52,4.24,-29.51,-32.53
22983,-1.21,-7.09,-5.43,1.88,-0.27,-1.52,4.24,-29.51,-32.53
22994,-1.23,-7.43,-4.15,1.83,-0.25,-1.74,4.24,-29.51,-32.53
23005,-1.23,-7.43,-4.15,1.83,-0.25,-1.74,4.24,-29.51,-32.53
23016,0.66,-8.30,-4.25,1.37,-0.15,-1.88,4.24,-29.51,-32.53
23027,0.66,-8.30,-4.25,1.37,-0.15,-1.88,4.24,-29.51,-32.53
23038,0.80,-8.18,-3.53,0.59,-0.18,-1.87,4.24,-29.51,-32.53
23049,0.80,-8.18,-3.53,0.59,-0.18,-1.87,4.24,-29.51,-32.53
23060,-1.44,-22.59,-5.24,-0.12,-0.19,-1.40,4.24,-29.51,-32.53
23071,-0.71,-10.59,-3.97,0.83,-0.28,0.36,9.25,-32.53,-28.23
23082,-0.71,-10.59,-3.97,0.83,-0.28,0.36,9.25,-32.53,-28.23
23189,-2.22,-8.63,-3.72,2.32,-0.92,0.11,9.25,-32.53,-28.23
23199,-0.96,-9.15,-3.45,2.19,-1.42,-0.43,9.25,-32.53,-28.23
23210,0.77,-9.52,-3.77,1.50,-2.14,-1.18,5.45,-36.50,-21.87
23221,0.77,-9.52,-3.77,1.50,-2.14,-1.18,5.45,-36.50,-21.87
23232,2.32,-12.22,-4.22,0.48,-2.89,-1.73,5.45,-36.50,-21.87
23243,2.32,-12.22,-4.22,0.48,-2.89,-1.73,5.45,-36.50,-21.87
23254,1.73,-15.90,-3.41,0.96,-3.89,-1.17,5.45,-36.50,-21.87
23265,1.73,-15.90,-3.41,0.96,-3.89,-1.17,5.45,-36.50,-21.87
23276,0.56,-16.48,-2.99,2.68,-4.71,0.56,5.45,-36.50,-21.87
23287,0.56,-16.48,-2.99,2.68,-4.71,0.56,5.45,-36.50,-21.87
23298,2.25,-12.69,-1.47,4.50,-5.15,2.53,5.45,-36.50,-21.87
23309,2.25,-12.69,-1.47,4.50,-5.15,2.53,5.45,-36.50,-21.87
23320,2.75,-6.86,-1.40,4.97,-5.22,3.80,5.45,-36.50,-21.87
23331,1.71,-2.34,-1.25,4.24,-5.07,3.70,-14.80,-42.06,-5.53
23342,1.71,-2.34,-1.25,4.24,-5.07,3.70,-14.80,-42.06,-5.53
23353,-1.50,0.63,0.09,2.97,-5.32,2.59,-14.80,-42.06,-5.53
23364,-1.50,0.63,0.09,2.97,-5.32,2.59,-14.80,-42.06,-5.53
23505,-2.54,-8.53,7.50,-0.75,-0.78,-0.22,-13.80,-41.90,16.32
23515,-0.85,-10.55,3.91,-2.22,-0.11,-0.51,-13.80,-41.90,16.32
23526,-0.85,-10.55,3.91,-2.22,-0.11,-0.51,-13.80,-41.90,16.32
23537,-0.97,-11.09,2.30,-2.12,0.01,-0.29,-13.80,-41.90,16.32
23548,-0.97,-11.09,2.30,-2.12,0.01,-0.29,-13.80,-41.90,16.32
23559,-0.95,-13.65,3.21,-2.23,-0.18,-0.06,-13.80,-41.90,16.32
23570,-1.16,-8.53,2.63,-2.95,0.08,0.39,-13.80,-41.90,16.32
23581,-1.16,-8.53,2.63,-2.95,0.08,0.39,-13.80,-41.90,16.32
23592,-1.18,-8.46,3.77,-4.00,0.27,0.16,-14.20,-40.95,7.37
23603,-1.18,-8.46,3.77,-4.00,0.27,0.16,-14.20,-40.95,7.37
23614,-0.13,-8.68,5.09,-5.83,0.52,-0.22,-14.20,-40.95,7.37
23625,-0.13,-8.68,5.09,-5.83,0.52,-0.22,-14.20,-40.95,7.37
23636,-0.17,-12.61,3.26,-8.28,1.28,-0.39,-14.20,-40.95,7.37
23739,0.81,-6.56,-8.96,-5.03,0.04,0.04,-9.59,-23.64,-32.02
23749,0.81,-6.56,-8.96,-5.03,0.04,0.04,-9.59,-23.64,-32.02
23760,-0.88,-2.42,-10.15,-4.17,-0.57,0.17,-9.59,-23.64,-32.02
23771,-1.24,-3.81,-9.58,-0.97,-0.20,-0.02,-9.59,-23.64,-32.02
23782,-1.24,-3.81,-9.58,-0.97,-0.20,-0.02,-9.59,-23.64,-32.02
23793,0.96,-5.45,-8.47,-0.31,-0.20,-0.42,-9.59,-23.64,-32.02
23804,0.96,-5.45,-8.47,-0.31,-0.20,-0.42,-9.59,-23.64,-32.02
23815,-0.11,-4.63,-9.01,-1.29,-0.30,-0.51,-9.59,-23.64,-32.02
23826,-0.11,-4.63,-9.01,-1.29,-0.30,-0.51,-9.59,-23.64,-32.02
23837,0.44,-3.63,-9.54,-1.49,-0.25,-0.41,-11.19,-13.79,-35.46
23848,0.44,-3.63,-9.54,-1.49,-0.25,-0.41,-11.19,-13.79,-35.46
23859,0.24,-2.60,-10.09,-0.76,-0.22,-0.40,-11.19,-13.79,-35.46
23962,-2.39,-7.25,-2.00,1.99,-1.39,0.65,-11.19,-13.79,-35.46
23972,-0.62,-6.89,-9.07,-0.58,-0.12,-0.39,-17.41,-23.16,-28.75
23983,-0.62,-6.89,-9.07,-0.58,-0.12,-0.39,-17.41,-23.16,-28.75
23994,-0.36,-6.23,-8.22,-0.49,0.18,-0.41,-17.41,-23.16,-28.75
24005,-0.36,-6.23,-8.22,-0.49,0.18,-0.41,-17.41,-23.16,-28.75
24016,-0.33,-6.05,-8.36,-0.17,0.11,-0.12,-17.41,-23.16,-28.75
24027,-0.33,-6.05,-8.36,-0.17,0.11,-0.12,-17.41,-23.16,-28.75
24038,-0.36,-6.10,-8.26,0.12,-0.09,0.06,-17.41,-23.16,-28.75
24049,-0.36,-6.10,-8.26,0.12,-0.09,0.06,-17.41,-23.16,-28.75
24060,-1.02,-6.26,-7.52,0.39,-0.27,0.20,-17.41,-23.16,-28.75
24071,-1.05,-6.28,-7.61,0.13,-0.10,0.07,-17.41,-23.16,-28.75
24082,-1.05,-6.28,-7.61,0.13,-0.10,0.07,-17.41,-23.16,-28.75
24093,-0.57,-6.17,-8.20,-0.10,0.07,-0.05,-15.61,-23.95,-28.58
24104,-0.57,-6.17,-8.20,-0.10,0.07,-0.05,-15.61,-23.95,-28.58
24115,-0.76,-6.23,-7.96,0.04,-0.02,0.01,-15.61,-23.95,-28.58
24126,-0.76,-6.23,-7.96,0.04,-0.02,0.01,-15.61,-23.95,-28.58
24230,-1.21,-6.37,-7.92,-0.14,0.02,-0.06,-16.61,-22.52,-29.78
24240,-1.12,-6.75,-7.96,-0.05,-0.17,-0.21,-16.61,-22.52,-29.78
24251,-0.88,-6.60,-6.85,0.21,-0.54,-0.29,-16.61,-22.52,-29.78
24262,-0.88,-6.60,-6.85,0.21,-0.54,-0.29,-16.61,-22.52,-29.78
24273,-0.19,-9.65,-4.61,-0.00,-0.58,-0.64,-16.61,-22.52,-29.78
24284,-0.19,-9.65,-4.61,-0.00,-0.58,-0.64,-16.61,-22.52,-29.78
24295,2.09,-3.75,-7.91,-0.05,-0.98,-1.15,-16.61,-22.52,-29.78
24306,2.09,-3.75,-7.91,-0.05,-0.98,-1.15,-16.61,-22.52,-29.78
24317,-1.86,-4.76,-7.82,-0.57,-0.36,-0.80,-16.61,-22.52,-29.78
24328,-1.86,-4.76,-7.82,-0.57,-0.36,-0.80,-16.61,-22.52,-29.78
24339,-0.92,-7.96,-7.17,-0.55,-0.02,0.13,-16.61,-22.52,-29.78
24350,-0.92,-7.96,-7.17,-0.55,-0.02,0.13,-16.61,-22.52,-29.78
24453,-2.08,-3.46,-0.14,-12.75,-0.36,-1.44,-16.61,-22.52,-29.78
24463,-2.08,-3.46,-0.14,-12.75,-0.36,-1.44,-16.61,-22.52,-29.78
24474,-0.19,7.02,-12.43,-17.47,0.31,-1.47,-18.21,1.62,-34.94
24485,-0.19,7.02,-12.43,-17.47,0.31,-1.47,-18.21,1.62,-34.94
24501,0.73,11.72,-15.87,-7.91,0.85,0.19,-18.21,1.62,-34.94
24507,0.73,11.72,-15.87,-7.91,0.85,0.19,-18.21,1.62,-34.94
24518,0.57,6.34,-13.26,2.73,-0.55,1.21,-18.21,1.62,-34.94
24529,0.57,6.34,-13.26,2.73,-0.55,1.21,-18.21,1.62,-34.94
24540,-2.54,-0.35,-7.65,5.82,-0.38,1.56,-18.21,1.62,-34.94
24551,-0.85,0.40,-7.20,1.14,0.15,0.68,-18.21,1.62,-34.94
24562,-0.85,0.40,-7.20,1.14,0.15,0.68,-18.21,1.62,-34.94
24573,-2.00,2.34,-8.87,-1.66,-0.02,-0.17,-18.21,1.62,-34.94
24584,-2.00,2.34,-8.87,-1.66,-0.02,-0.17,-18.21,1.62,-34.94
24595,-1.60,1.62,-5.48,-3.99,0.21,-1.11,-16.41,8.45,-33.39
24606,-1.60,1.62,-5.48,-3.99,0.21,-1.11,-16.41,8.45,-33.39
24617,-0.28,7.64,-12.38,-7.96,1.16,-1.64,-16.41,8.45,-33.39
24628,-0.28,7.64,-12.38,-7.96,1.16,-1.64,-16.41,8.45,-33.39
24731,-0.45,5.15,-8.33,-2.80,0.12,-0.08,-13.60,19.26,-29.61
24741,-0.07,7.63,-13.94,-3.19,0.26,-0.44,-13.60,19.26,-29.61
24752,-0.85,7.57,-9.29,-1.29,-0.04,-0.43,-13.60,19.26,-29.61
24763,-0.85,7.57,-9.29,-1.29,-0.04,-0.43,-13.60,19.26,-29.61
24779,0.43,7.51,-7.79,0.72,0.02,-0.74,-13.60,19.26,-29.61
24785,0.43,7.51,-7.79,0.72,0.02,-0.74,-13.60,19.26,-29.61
24796,0.70,4.05,-6.00,1.87,0.30,-1.27,-13.60,19.26,-29.61
24807,0.70,4.05,-6.00,1.87,0.30,-1.27,-13.60,19.26,-29.61
24818,0.34,4.58,-9.18,0.20,0.54,-1.51,-13.60,19.26,-29.61
24829,0.34,4.58,-9.18,0.20,0.54,-1.51,-13.60,19.26,-29.61
24840,0.69,3.46,-8.38,-0.77,-0.09,-1.65,-13.60,19.26,-29.61
24851,-1.27,5.10,-8.80,-2.42,-0.64,-1.48,-16.61,19.26,-29.61
24862,-1.27,5.10,-8.80,-2.42,-0.64,-1.48,-16.61,17.19,-25.65
24965,-0.41,6.01,-8.26,0.07,0.04,-0.08,-16.61,17.19,-25.65
24975,-0.74,6.87,-7.90,0.01,0.10,-0.20,-18.61,18.78,-24.28
24986,-0.74,6.87,-7.90,0.01,0.10,-0.20,-18.61,18.78,-24.28
24997,-0.72,7.20,-7.43,-0.22,0.13,-0.31,-18.61,18.78,-24.28
25008,-0.72,7.20,-7.43,-0.22,0.13,-0.31,-18.61,18.78,-24.28
25019,-0.67,6.62,-7.75,-0.06,0.18,-0.32,-18.61,18.78,-24.28
25030,-0.67,6.62,-7.75,-0.06,0.18,-0.32,-18.61,18.78,-24.28
25041,-0.46,6.47,-7.92,0.06,0.33,-0.30,-18.61,18.78,-24.28
25057,0.40,6.39,-8.03,-0.01,0.37,-0.41,-18.61,18.78,-24.28
25063,0.40,6.39,-8.03,-0.01,0.37,-0.41,-18.61,18.78,-24.28
25074,-1.39,6.34,-8.00,-0.09,0.41,-0.56,-18.61,18.78,-24.28
25085,-1.39,6.34,-8.00,-0.09,0.41,-0.56,-18.61,18.78,-24.28
25096,-0.96,6.24,-8.07,-0.11,0.33,-0.49,-18.41,17.98,-24.10
25107,-0.96,6.24,-8.07,-0.11,0.33,-0.49,-18.41,17.98,-24.10
25118,-0.23,6.25,-8.16,0.16,0.39,-0.30,-18.41,17.98,-24.10
25129,-0.23,6.25,-8.16,0.16,0.39,-0.30,-18.41,17.98,-24.10
25140,-0.16,6.43,-8.01,0.00,0.27,-0.32,-18.41,17.98,-24.10
25244,-0.62,6.52,-7.88,-0.03,-0.02,-0.02,-18.01,17.35,-24.79
25254,-0.49,6.42,-7.99,0.07,0.04,0.02,-18.01,17.35,-24.79
25265,-0.49,6.42,-7.99,0.07,0.04,0.02,-18.01,17.35,-24.79
25276,-0.62,6.49,-7.88,-0.05,-0.02,-0.03,-18.01,17.35,-24.79
25287,-0.62,6.49,-7.88,-0.05,-0.02,-0.03,-18.01,17.35,-24.79
25298,-0.57,6.47,-7.94,0.02,0.01,-0.00,-18.01,17.35,-24.79
25309,-0.57,6.47,-7.94,0.02,0.01,-0.00,-18.01,17.35,-24.79
25320,-0.54,6.45,-7.97,0.01,0.01,-0.00,-18.01,17.35,-24.79
25331,-0.54,6.45,-7.97,0.01,0.01,-0.00,-18.01,17.35,-24.79
25342,-0.56,6.49,-7.89,-0.02,-0.01,-0.01,-18.01,17.35,-24.79
25353,-0.55,6.45,-7.96,0.02,0.01,0.00,-17.81,17.83,-25.31
25364,-0.55,6.45,-7.96,0.02,0.01,0.00,-17.81,17.83,-25.31
25375,-0.57,6.48,-7.90,-0.01,-0.00,-0.01,-17.81,17.83,-25.31
25516,-0.54,6.47,-7.92,0.00,0.00,-0.01,-18.01,17.67,-25.48
25526,-0.54,6.47,-7.92,0.00,0.00,-0.01,-18.01,17.67,-25.48
25537,-0.57,6.47,-7.92,-0.00,0.00,-0.01,-18.01,17.67,-25.48
25548,-0.57,6.47,-7.92,-0.00,0.00,-0.01,-18.01,17.67,-25.48
25559,-0.57,6.46,-7.94,0.00,0.00,-0.01,-18.01,17.67,-25.48
25570,-0.57,6.46,-7.94,0.00,0.00,-0.01,-18.01,17.67,-25.48
25581,-0.57,6.46,-7.93,0.00,0.00,-0.01,-18.01,17.67,-25.48
25592,-0.56,6.46,-7.93,0.00,0.00,-0.01,-18.01,17.67,-25.48
25603,-0.56,6.46,-7.93,0.00,0.00,-0.01,-18.01,17.67,-25.48
25614,-0.55,6.45,-7.94,0.00,0.00,-0.01,-18.01,17.67,-25.48
25625,-0.55,6.45,-7.94,0.00,0.00,-0.01,-18.01,17.67,-25.48
25636,-0.55,6.46,-7.92,-0.00,0.00,-0.01,-18.01,17.67,-25.48
25647,-0.55,6.46,-7.92,-0.00,0.00,-0.01,-18.01,17.67,-25.48
25658,-0.56,6.46,-7.93,-0.00,0.00,-0.01,-18.01,17.67,-25.48
25669,-0.56,6.46,-7.93,-0.00,0.00,-0.01,-18.01,17.67,-25.48
25680,-0.55,6.46,-7.93,0.00,0.00,-0.01,-18.01,17.67,-25.48
25691,-0.55,6.46,-7.93,0.00,0.00,-0.01,-18.01,17.67,-25.48
25793,0.52,6.43,-8.01,0.21,0.23,0.13,-16.81,17.98,-26.17
25804,0.52,6.43,-8.01,0.21,0.23,0.13,-16.81,17.98,-26.17
25815,-0.16,6.48,-7.95,0.07,0.16,-0.08,-16.81,17.98,-26.17
25826,-0.16,6.48,-7.95,0.07,0.16,-0.08,-16.81,17.98,-26.17
25837,-1.59,6.41,-7.89,0.01,0.20,-0.25,-16.81,17.98,-26.17
25848,-1.59,6.41,-7.89,0.01,0.20,-0.25,-16.81,17.98,-26.17
25859,0.38,6.04,-8.35,-0.00,0.28,-0.22,-18.41,16.71,-25.14
25870,0.38,6.04,-8.35,-0.00,0.28,-0.22,-18.41,16.71,-25.14
25881,-0.16,6.40,-7.96,0.00,0.13,0.10,-18.41,16.71,-25.14
25892,-1.36,6.60,-7.99,0.14,-0.32,0.16,-18.41,16.71,-25.14
25903,-1.36,6.60,-7.99,0.14,-0.32,0.16,-18.41,16.71,-25.14
25914,-0.39,6.36,-8.11,-0.01,-0.27,-0.08,-18.41,16.71,-25.14
26026,-0.39,6.36,-8.11,-0.01,-0.27,-0.08,-18.41,16.71,-25.14
26027,-0.56,6.30,-8.08,-0.00,-0.02,-0.01,-18.81,17.35,-25.82
26038,-0.71,6.24,-8.11,-0.04,-0.07,0.04,-18.81,17.35,-25.82
26049,-0.71,6.24,-8.11,-0.04,-0.07,0.04,-18.81,17.35,-25.82
26060,-0.09,6.28,-8.08,-0.04,-0.13,0.15,-18.81,17.35,-25.82
26071,-0.09,6.28,-8.08,-0.04,-0.13,0.15,-18.81,17.35,-25.82
26082,-0.03,6.24,-8.11,-0.05,-0.06,0.04,-18.81,17.35,-25.82
26093,0.04,6.24,-8.08,-0.01,0.06,-0.01,-18.81,17.35,-25.82
26104,0.04,6.24,-8.08,-0.01,0.06,-0.01,-18.81,17.35,-25.82
26115,-0.23,6.50,-7.98,-0.01,-0.00,0.35,-17.81,17.19,-25.65
26126,-0.23,6.50,-7.98,-0.01,-0.00,0.35,-17.81,17.19,-25.65
26137,-0.26,6.37,-8.06,0.09,-0.02,0.12,-17.81,17.19,-25.65
26148,-0.26,6.37,-8.06,0.09,-0.02,0.12,-17.81,17.19,-25.65
26159,-0.47,6.27,-8.14,0.10,-0.10,0.01,-17.81,17.19,-25.65
26170,-0.47,6.27,-8.14,0.10,-0.10,0.01,-17.81,17.19,-25.65
26181,-0.57,6.35,-8.04,0.02,-0.04,-0.13,-17.81,17.19,-25.65
26192,-0.57,6.35,-8.04,0.02,-0.04,-0.13,-17.81,17.19,-25.65
26295,-0.44,6.35,-7.99,0.01,-0.02,-0.03,-18.61,17.51,-24.96
26305,-0.44,6.35,-7.99,0.01,-0.02,-0.03,-18.61,17.51,-24.96
26316,-0.51,6.36,-7.99,0.05,0.09,-0.18,-18.61,17.51,-24.96
26327,-0.51,6.36,-7.99,0.05,0.09,-0.18,-18.61,17.51,-24.96
26338,-0.52,6.22,-8.13,0.08,0.27,-0.41,-18.61,17.51,-24.96
26349,-0.52,6.22,-8.13,0.08,0.27,-0.41,-18.61,17.51,-24.96
26360,-0.51,6.21,-8.15,0.04,0.18,-0.22,-18.61,16.87,-25.31
26371,-0.51,6.21,-8.15,0.04,0.18,-0.22,-18.61,16.87,-25.31
26382,-0.46,6.26,-8.14,0.03,0.06,0.02,-18.61,16.87,-25.31
26393,-0.50,6.25,-8.10,0.04,-0.05,0.03,-18.61,16.87,-25.31
26404,-0.50,6.25,-8.10,0.04,-0.05,0.03,-18.61,16.87,-25.31
26415,-0.50,6.22,-8.10,0.02,-0.07,-0.03,-18.61,16.87,-25.31
26426,-0.50,6.22,-8.10,0.02,-0.07,-0.03,-18.61,16.87,-25.31
