time,ax,ay,az,gx,gy,gz,mx,my,mz
401,-0.43,6.46,-7.89,-0.07,-0.04,-0.04,-29.21,14.77,-25.45
411,-0.42,6.40,-7.97,0.03,0.01,-0.00,-29.21,14.77,-25.45
422,-0.42,6.40,-7.97,0.03,0.01,-0.00,-29.21,14.77,-25.45
433,-0.41,6.38,-8.03,0.04,0.02,0.01,-29.21,14.77,-25.45
444,-0.41,6.38,-8.03,0.04,0.02,0.01,-29.21,14.77,-25.45
455,-0.42,6.40,-7.98,-0.03,-0.02,-0.02,-29.21,14.77,-25.45
467,-0.38,6.42,-8.00,0.00,-0.00,-0.01,-27.92,15.06,-25.81
477,-0.38,6.42,-8.00,0.00,-0.00,-0.01,-27.92,15.06,-25.81
488,-0.37,6.40,-8.04,0.03,0.01,0.00,-27.92,15.06,-25.81
499,-0.37,6.40,-8.04,0.03,0.01,0.00,-27.92,15.06,-25.81
510,-0.42,6.41,-7.99,-0.01,-0.01,-0.02,-27.92,15.06,-25.81
521,-0.42,6.41,-7.99,-0.01,-0.01,-0.02,-27.92,15.06,-25.81
532,-0.44,6.41,-7.95,-0.01,-0.00,-0.01,-27.92,15.06,-25.81
543,-0.44,6.41,-7.95,-0.01,-0.00,-0.01,-27.92,15.06,-25.81
554,-0.38,6.39,-8.04,0.02,0.01,0.00,-27.92,15.06,-25.81
565,-0.38,6.39,-8.04,0.02,0.01,0.00,-27.92,15.06,-25.81
576,-0.38,6.38,-8.03,0.00,-0.00,-0.01,-27.92,15.06,-25.81
587,-0.41,6.40,-7.99,-0.01,-0.00,-0.01,-28.56,13.16,-26.70
598,-0.41,6.40,-7.99,-0.01,-0.00,-0.01,-28.56,13.16,-26.70
609,-0.41,6.40,-7.98,0.01,0.00,-0.00,-28.56,13.16,-26.70
620,-0.41,6.40,-7.98,0.01,0.00,-0.00,-28.56,13.16,-26.70
631,-0.40,6.40,-7.98,-0.00,-0.00,-0.01,-28.56,13.16,-26.70
642,-0.40,6.40,-7.98,-0.00,-0.00,-0.01,-28.56,13.16,-26.70
653,-0.38,6.36,-8.00,-0.00,0.00,-0.01,-28.56,13.16,-26.70
664,-0.38,6.36,-8.00,-0.00,0.00,-0.01,-28.56,13.16,-26.70
675,-0.40,6.38,-7.99,0.00,0.00,-0.01,-28.56,13.16,-26.70
686,-0.40,6.38,-7.99,0.00,0.00,-0.01,-28.56,13.16,-26.70
697,-0.42,6.41,-8.01,-0.01,-0.00,-0.01,-28.56,13.16,-26.70
708,-0.42,6.40,-7.99,0.00,0.00,-0.01,-28.56,13.16,-26.70
719,-0.42,6.40,-7.99,0.00,0.00,-0.01,-28.56,13.16,-26.70
730,-0.42,6.40,-8.03,0.01,0.00,-0.01,-27.92,14.18,-24.03
741,-0.42,6.40,-8.03,0.01,0.00,-0.01,-27.92,14.18,-24.03
752,-0.39,6.38,-8.04,0.01,0.00,-0.00,-27.92,14.18,-24.03
763,-0.39,6.38,-8.04,0.01,0.00,-0.00,-27.92,14.18,-24.03
774,-0.40,6.40,-7.98,0.00,-0.00,-0.01,-27.92,14.18,-24.03
785,-0.40,6.40,-7.98,0.00,-0.00,-0.01,-27.92,14.18,-24.03
796,-0.40,6.38,-8.00,0.00,-0.01,-0.01,-27.92,14.18,-24.03
807,-0.41,6.39,-7.98,-0.01,-0.00,-0.01,-27.92,14.18,-24.03
818,-0.41,6.39,-7.98,-0.01,-0.00,-0.01,-27.92,14.18,-24.03
829,-0.42,6.39,-7.99,-0.00,-0.00,-0.01,-27.92,14.18,-24.03
840,-0.42,6.39,-7.99,-0.00,-0.00,-0.01,-27.92,14.18,-24.03
851,-0.41,6.38,-8.04,0.01,0.00,-0.01,-28.78,14.77,-25.81
862,-0.41,6.38,-8.04,0.01,0.00,-0.01,-28.78,14.77,-25.81
873,-0.42,6.39,-8.00,-0.00,0.00,-0.01,-28.78,14.77,-25.81
884,-0.42,6.39,-8.00,-0.00,0.00,-0.01,-28.78,14.77,-25.81
895,-0.41,6.38,-8.00,0.01,0.00,-0.00,-28.78,14.77,-25.81
906,-0.41,6.38,-8.00,0.01,0.00,-0.00,-28.78,14.77,-25.81
917,-0.41,6.40,-7.99,0.00,0.00,-0.01,-28.78,14.77,-25.81
928,-0.40,6.40,-8.02,0.00,0.00,-0.01,-28.78,14.77,-25.81
939,-0.40,6.40,-8.02,0.00,0.00,-0.01,-28.78,14.77,-25.81
950,-0.40,6.37,-8.00,0.00,0.00,-0.01,-28.78,14.77,-25.81
961,-0.40,6.37,-8.00,0.00,0.00,-0.01,-28.78,14.77,-25.81
972,-0.42,6.36,-8.00,-0.00,-0.00,-0.01,-27.71,15.21,-24.56
983,-0.42,6.36,-8.00,-0.00,-0.00,-0.01,-27.71,15.21,-24.56
994,-0.42,6.39,-8.02,0.00,0.00,-0.00,-27.71,15.21,-24.56
1005,-0.42,6.39,-8.02,0.00,0.00,-0.00,-27.71,15.21,-24.56
1016,-0.39,6.40,-8.01,0.00,0.01,0.00,-27.71,15.21,-24.56
1027,-0.39,6.39,-8.01,0.01,0.01,0.00,-27.71,15.21,-24.56
1038,-0.39,6.39,-8.01,0.01,0.01,0.00,-27.71,15.21,-24.56
1049,-0.40,6.37,-8.00,-0.00,-0.00,-0.01,-27.71,15.21,-24.56
1060,-0.40,6.37,-8.00,-0.00,-0.00,-0.01,-27.71,15.21,-24.56
1071,-0.44,6.39,-7.98,-0.01,-0.01,-0.01,-27.71,15.21,-24.56
1082,-0.44,6.39,-7.98,-0.01,-0.01,-0.01,-27.71,15.21,-24.56
1093,-0.41,6.40,-8.02,0.01,0.01,-0.00,-27.92,15.06,-26.17
1104,-0.41,6.40,-8.02,0.01,0.01,-0.00,-27.92,15.06,-26.17
1115,-0.39,6.39,-8.03,0.01,0.00,-0.00,-27.92,15.06,-26.17
1126,-0.39,6.39,-8.03,0.01,0.00,-0.00,-27.92,15.06,-26.17
1137,-0.40,6.40,-8.00,-0.01,-0.00,-0.01,-27.92,15.06,-26.17
1148,-0.42,6.39,-8.00,-0.00,0.00,-0.01,-27.92,15.06,-26.17
1159,-0.42,6.39,-8.00,-0.00,0.00,-0.01,-27.92,15.06,-26.17
1170,-0.40,6.38,-8.02,0.00,0.00,-0.01,-27.92,15.06,-26.17
1181,-0.40,6.38,-8.02,0.00,0.00,-0.01,-27.92,15.06,-26.17
1192,-0.39,6.39,-8.00,-0.00,-0.00,-0.01,-27.92,15.06,-26.17
1203,-0.39,6.39,-8.00,-0.00,-0.00,-0.01,-27.92,15.06,-26.17
1214,-0.40,6.40,-8.03,-0.00,0.00,-0.01,-27.92,15.06,-26.17
1225,-0.40,6.40,-8.03,-0.00,0.00,-0.01,-27.92,15.06,-26.17
1236,-0.41,6.40,-8.02,0.00,0.00,-0.01,-28.78,14.18,-26.88
1247,-0.41,6.38,-8.02,-0.00,0.00,-0.01,-28.78,14.18,-26.88
1258,-0.41,6.38,-8.02,-0.00,0.00,-0.01,-28.78,14.18,-26.88
1269,-0.40,6.40,-8.01,0.00,0.00,-0.01,-28.78,14.18,-26.88
1280,-0.40,6.40,-8.01,0.00,0.00,-0.01,-28.78,14.18,-26.88
1291,-0.41,6.37,-8.00,-0.00,0.00,-0.01,-28.78,14.18,-26.88
1302,-0.41,6.37,-8.00,-0.00,0.00,-0.01,-28.78,14.18,-26.88
1313,-0.41,6.40,-7.99,-0.00,0.00,-0.01,-28.78,14.18,-26.88
1328,-0.41,6.40,-7.99,-0.00,0.00,-0.01,-28.78,14.18,-26.88
1335,-0.41,6.39,-8.01,0.00,0.00,-0.01,-28.78,14.18,-26.88
1346,-0.41,6.39,-8.01,0.00,0.00,-0.01,-28.78,14.18,-26.88
1357,-0.39,6.38,-8.04,0.00,0.00,-0.01,-27.49,13.89,-24.74
1368,-0.41,6.38,-8.03,0.00,0.00,-0.01,-27.49,13.89,-24.74
1379,-0.41,6.38,-8.03,0.00,0.00,-0.01,-27.49,13.89,-24.74
1390,-0.41,6.40,-7.99,-0.00,0.00,-0.01,-27.49,13.89,-24.74
1402,-0.41,6.40,-7.99,-0.00,0.00,-0.01,-27.49,13.89,-24.74
1412,-0.42,6.40,-8.00,-0.00,0.00,-0.01,-27.49,13.89,-24.74
1423,-0.42,6.40,-8.00,-0.00,0.00,-0.01,-27.49,13.89,-24.74
1434,-0.40,6.39,-8.02,0.00,0.00,-0.01,-27.49,13.89,-24.74
1445,-0.40,6.39,-8.02,0.00,0.00,-0.01,-27.49,13.89,-24.74
1456,-0.41,6.38,-8.01,0.00,0.00,-0.01,-27.49,13.89,-24.74
1467,-0.40,6.37,-8.02,0.00,0.00,-0.01,-28.56,13.74,-25.99
1478,-0.40,6.37,-8.02,0.00,0.00,-0.01,-28.56,13.74,-25.99
1489,-0.40,6.39,-8.01,-0.00,0.00,-0.01,-28.56,13.74,-25.99
1500,-0.40,6.39,-8.01,-0.00,0.00,-0.01,-28.56,13.74,-25.99
1511,-0.42,6.40,-8.00,-0.00,0.00,-0.01,-28.56,13.74,-25.99
1522,-0.42,6.40,-8.00,-0.00,0.00,-0.01,-28.56,13.74,-25.99
1533,-0.41,6.38,-8.00,0.00,0.00,-0.01,-28.56,13.74,-25.99
1544,-0.41,6.38,-8.00,0.00,0.00,-0.01,-28.56,13.74,-25.99
1555,-0.41,6.38,-8.00,0.00,0.00,-0.01,-28.56,13.74,-25.99
1566,-0.41,6.38,-8.00,0.00,0.00,-0.01,-28.56,13.74,-25.99
1577,-0.40,6.39,-8.01,0.00,0.00,-0.01,-28.56,13.74,-25.99
1588,-0.43,6.39,-8.02,-0.00,0.00,-0.01,-28.56,13.74,-25.99
1599,-0.43,6.39,-8.02,-0.00,0.00,-0.01,-28.56,13.74,-25.99
1610,-0.41,6.40,-8.03,0.00,0.00,-0.01,-28.56,14.04,-25.63
1621,-0.41,6.40,-8.03,0.00,0.00,-0.01,-28.56,14.04,-25.63
1632,-0.41,6.38,-8.02,0.00,0.00,-0.01,-28.56,14.04,-25.63
1643,-0.41,6.38,-8.02,0.00,0.00,-0.01,-28.56,14.04,-25.63
1654,-0.41,6.38,-8.03,0.00,0.00,-0.01,-28.56,14.04,-25.63
1665,-0.41,6.38,-8.03,0.00,0.00,-0.01,-28.56,14.04,-25.63
1676,-0.42,6.38,-8.00,0.00,0.00,-0.01,-28.56,14.04,-25.63
1687,-0.42,6.38,-8.00,0.00,0.00,-0.01,-28.56,14.04,-25.63
1698,-0.40,6.39,-8.00,0.00,0.00,-0.01,-28.56,14.04,-25.63
1709,-0.41,6.41,-8.01,-0.00,0.00,-0.01,-28.56,14.04,-25.63
1720,-0.41,6.41,-8.01,-0.00,0.00,-0.01,-28.56,14.04,-25.63
1731,-0.42,6.38,-8.01,0.00,0.00,-0.01,-28.78,15.06,-25.81
1742,-0.42,6.38,-8.01,0.00,0.00,-0.01,-28.78,15.06,-25.81
1753,-0.41,6.36,-8.04,0.00,0.00,-0.01,-28.78,15.06,-25.81
1764,-0.41,6.36,-8.04,0.00,0.00,-0.01,-28.78,15.06,-25.81
1775,-0.41,6.38,-8.01,0.00,0.00,-0.01,-28.78,15.06,-25.81
1786,-0.41,6.38,-8.01,0.00,0.00,-0.01,-28.78,15.06,-25.81
1797,-0.41,6.37,-8.00,-0.00,0.00,-0.01,-28.78,15.06,-25.81
1808,-0.40,6.40,-8.03,0.00,0.00,-0.01,-28.78,15.06,-25.81
1819,-0.40,6.40,-8.03,0.00,0.00,-0.01,-28.78,15.06,-25.81
1830,-0.43,6.38,-8.01,0.00,0.00,-0.01,-28.78,15.06,-25.81
1841,-0.43,6.38,-8.01,0.00,0.00,-0.01,-28.78,15.06,-25.81
1852,-0.41,6.38,-7.99,0.00,0.00,-0.01,-27.49,15.36,-25.45
1863,-0.41,6.38,-7.99,0.00,0.00,-0.01,-27.49,15.36,-25.45
1874,-0.41,6.37,-8.01,0.00,0.00,-0.01,-27.49,15.36,-25.45
1885,-0.41,6.37,-8.01,0.00,0.00,-0.01,-27.49,15.36,-25.45
1896,-0.41,6.39,-8.04,-0.00,0.00,-0.01,-27.49,15.36,-25.45
1907,-0.41,6.39,-8.04,-0.00,0.00,-0.01,-27.49,15.36,-25.45
1918,-0.40,6.39,-7.99,0.00,0.00,-0.01,-27.49,15.36,-25.45
1929,-0.41,6.37,-8.00,0.00,0.00,-0.01,-27.49,15.36,-25.45
1940,-0.41,6.37,-8.00,0.00,0.00,-0.01,-27.49,15.36,-25.45
1951,-0.40,6.38,-8.02,0.00,0.00,-0.01,-27.49,15.36,-25.45
1962,-0.40,6.38,-8.02,0.00,0.00,-0.01,-27.49,15.36,-25.45
1973,-0.41,6.38,-8.00,0.00,0.00,-0.01,-27.49,15.36,-25.45
1984,-0.41,6.38,-8.00,0.00,0.00,-0.01,-27.49,15.36,-25.45
1995,-0.42,6.39,-8.03,0.00,0.00,-0.01,-27.06,14.77,-26.88
2006,-0.42,6.39,-8.03,0.00,0.00,-0.01,-27.06,14.77,-26.88
2017,-0.41,6.40,-8.00,0.00,0.00,-0.01,-27.06,14.77,-26.88
2028,-0.42,6.38,-8.00,0.00,0.00,-0.01,-27.06,14.77,-26.88
2039,-0.42,6.38,-8.00,0.00,0.00,-0.01,-27.06,14.77,-26.88
2050,-0.42,6.37,-8.00,0.00,0.00,-0.01,-27.06,14.77,-26.88
2061,-0.42,6.37,-8.00,0.00,0.00,-0.01,-27.06,14.77,-26.88
2072,-0.41,6.37,-8.00,0.00,0.00,-0.01,-27.06,14.77,-26.88
2083,-0.41,6.37,-8.00,0.00,0.00,-0.01,-27.06,14.77,-26.88
2094,-0.41,6.38,-7.98,0.00,0.00,-0.01,-27.06,14.77,-26.88
2105,-0.41,6.38,-7.98,0.00,0.00,-0.01,-27.06,14.77,-26.88
2116,-0.40,6.37,-8.02,0.00,0.00,-0.01,-29.42,15.21,-25.99
2127,-0.40,6.37,-8.02,0.00,0.00,-0.01,-29.42,15.21,-25.99
2139,-0.42,6.39,-8.02,0.00,0.00,-0.01,-29.42,15.21,-25.99
2149,-0.40,6.40,-8.00,0.00,0.00,-0.01,-29.42,15.21,-25.99
2160,-0.40,6.40,-8.00,0.00,0.00,-0.01,-29.42,15.21,-25.99
2171,-0.40,6.40,-8.02,0.00,0.00,-0.01,-29.42,15.21,-25.99
2182,-0.40,6.40,-8.02,0.00,0.00,-0.01,-29.42,15.21,-25.99
2193,-0.41,6.40,-8.00,-0.00,0.00,-0.01,-29.42,15.21,-25.99
2204,-0.41,6.40,-8.00,-0.00,0.00,-0.01,-29.42,15.21,-25.99
2215,-0.41,6.38,-8.02,-0.00,0.00,-0.01,-29.42,15.21,-25.99
2226,-0.41,6.38,-8.02,-0.00,0.00,-0.01,-29.42,15.21,-25.99
2237,-0.41,6.37,-8.04,0.00,0.00,-0.01,-29.63,15.65,-25.10
2248,-0.40,6.38,-8.04,0.00,0.00,-0.01,-29.63,15.65,-25.10
2259,-0.40,6.38,-8.04,0.00,0.00,-0.01,-29.63,15.65,-25.10
2270,-0.40,6.38,-8.01,-0.00,0.00,-0.01,-29.63,15.65,-25.10
2281,-0.40,6.38,-8.01,-0.00,0.00,-0.01,-29.63,15.65,-25.10
2292,-0.41,6.38,-7.98,-0.00,0.00,-0.01,-29.63,15.65,-25.10
2303,-0.41,6.38,-7.98,-0.00,0.00,-0.01,-29.63,15.65,-25.10
2314,-0.40,6.39,-8.02,0.00,0.00,-0.01,-29.63,15.65,-25.10
2325,-0.40,6.39,-8.02,0.00,0.00,-0.01,-29.63,15.65,-25.10
2336,-0.41,6.38,-8.01,0.00,0.00,-0.01,-29.63,15.65,-25.10
2347,-0.41,6.38,-8.01,0.00,0.00,-0.01,-29.63,15.65,-25.10
2358,-0.42,6.39,-8.01,0.00,0.00,-0.01,-29.63,15.65,-25.10
2369,-0.41,6.39,-8.01,-0.00,0.00,-0.01,-29.63,15.65,-25.10
2380,-0.41,6.39,-8.01,-0.00,0.00,-0.01,-29.63,15.65,-25.10
2391,-0.41,6.37,-8.00,-0.00,0.00,-0.01,-29.63,15.65,-25.10
2402,-0.41,6.37,-8.00,-0.00,0.00,-0.01,-29.63,15.65,-25.10
2413,-0.40,6.38,-8.00,0.00,0.00,-0.01,-29.63,15.65,-25.10
2424,-0.40,6.38,-8.00,0.00,0.00,-0.01,-29.63,15.65,-25.10
2435,-0.42,6.37,-8.04,0.00,0.00,-0.01,-29.63,15.65,-25.10
2446,-0.42,6.37,-8.04,0.00,0.00,-0.01,-29.63,15.65,-25.10
2457,-0.41,6.39,-8.00,0.00,0.00,-0.01,-29.63,15.65,-25.10
2468,-0.40,6.38,-7.99,0.00,0.00,-0.01,-29.63,15.65,-25.10
2479,-0.40,6.38,-7.99,0.00,0.00,-0.01,-29.63,15.65,-25.10
2490,-0.40,6.39,-8.03,0.00,0.00,-0.01,-28.99,14.04,-26.35
2501,-0.40,6.39,-8.03,0.00,0.00,-0.01,-28.99,14.04,-26.35
2517,-0.41,6.38,-8.01,0.00,0.00,-0.01,-28.99,14.04,-26.35
2523,-0.41,6.38,-8.01,0.00,0.00,-0.01,-28.99,14.04,-26.35
2534,-0.42,6.38,-8.02,-0.00,0.00,-0.01,-28.99,14.04,-26.35
2545,-0.42,6.38,-8.02,-0.00,0.00,-0.01,-28.99,14.04,-26.35
2556,-0.40,6.37,-8.02,0.00,0.00,-0.01,-28.99,14.04,-26.35
2568,-0.40,6.37,-8.02,0.00,0.00,-0.01,-28.99,14.04,-26.35
2578,-0.42,6.39,-8.01,-0.00,0.00,-0.01,-28.99,14.04,-26.35
2589,-0.41,6.38,-8.01,-0.00,0.00,-0.01,-28.99,14.04,-26.35
2600,-0.41,6.38,-8.01,-0.00,0.00,-0.01,-28.99,14.04,-26.35
2611,-0.40,6.38,-8.03,0.00,0.00,-0.01,-27.49,14.18,-25.81
2622,-0.40,6.38,-8.03,0.00,0.00,-0.01,-27.49,14.18,-25.81
2633,-0.41,6.40,-8.03,0.00,0.00,-0.01,-27.49,14.18,-25.81
2644,-0.41,6.40,-8.03,0.00,0.00,-0.01,-27.49,14.18,-25.81
2655,-0.40,6.37,-8.01,-0.00,0.00,-0.01,-27.49,14.18,-25.81
2666,-0.40,6.37,-8.01,-0.00,0.00,-0.01,-27.49,14.18,-25.81
2677,-0.41,6.38,-8.02,-0.00,-0.00,-0.01,-27.49,14.18,-25.81
2688,-0.41,6.38,-8.02,-0.00,-0.00,-0.01,-27.49,14.18,-25.81
2699,-0.41,6.39,-8.00,-0.00,0.00,-0.01,-27.49,14.18,-25.81
2710,-0.40,6.38,-8.01,0.00,0.00,-0.01,-27.49,14.18,-25.81
2721,-0.40,6.38,-8.01,0.00,0.00,-0.01,-27.49,14.18,-25.81
2732,-0.40,6.40,-8.03,0.00,0.00,-0.01,-26.85,14.04,-24.56
2743,-0.40,6.40,-8.03,0.00,0.00,-0.01,-26.85,14.04,-24.56
2754,-0.40,6.37,-8.02,-0.00,0.00,-0.01,-26.85,14.04,-24.56
2765,-0.40,6.37,-8.02,-0.00,0.00,-0.01,-26.85,14.04,-24.56
2776,-0.41,6.40,-7.99,-0.00,0.00,-0.01,-26.85,14.04,-24.56
2787,-0.41,6.40,-7.99,-0.00,0.00,-0.01,-26.85,14.04,-24.56
2798,-0.41,6.39,-7.99,-0.00,0.00,-0.01,-26.85,14.04,-24.56
2809,-0.41,6.37,-8.01,0.00,0.00,-0.01,-26.85,14.04,-24.56
2820,-0.41,6.37,-8.01,0.00,0.00,-0.01,-26.85,14.04,-24.56
2831,-0.41,6.37,-8.01,-0.00,0.00,-0.01,-26.85,14.04,-24.56
2842,-0.41,6.37,-8.01,-0.00,0.00,-0.01,-26.85,14.04,-24.56
2853,-0.41,6.37,-8.03,-0.00,0.00,-0.01,-26.85,14.04,-24.56
2864,-0.41,6.37,-8.03,-0.00,0.00,-0.01,-26.85,14.04,-24.56
2875,-0.40,6.40,-8.05,-0.00,0.00,-0.01,-26.85,14.33,-25.99
2886,-0.40,6.40,-8.05,-0.00,0.00,-0.01,-26.85,14.33,-25.99
2897,-0.41,6.38,-8.00,-0.00,0.00,-0.01,-26.85,14.33,-25.99
2908,-0.41,6.38,-8.00,-0.00,0.00,-0.01,-26.85,14.33,-25.99
2919,-0.41,6.37,-8.03,0.00,0.00,-0.01,-26.85,14.33,-25.99
2930,-0.42,6.38,-8.03,0.00,0.00,-0.01,-26.85,14.33,-25.99
2941,-0.42,6.38,-8.03,0.00,0.00,-0.01,-26.85,14.33,-25.99
2952,-0.41,6.38,-8.00,-0.00,0.00,-0.01,-26.85,14.33,-25.99
2963,-0.41,6.38,-8.00,-0.00,0.00,-0.01,-26.85,14.33,-25.99
2974,-0.41,6.40,-8.00,-0.00,0.00,-0.01,-26.85,14.33,-25.99
2985,-0.41,6.40,-8.00,-0.00,0.00,-0.01,-26.85,14.33,-25.99
2996,-0.41,6.38,-8.01,0.00,0.00,-0.01,-28.13,15.21,-24.92
3007,-0.41,6.38,-8.01,0.00,0.00,-0.01,-28.13,15.21,-24.92
3018,-0.41,6.38,-8.03,0.00,0.00,-0.01,-28.13,15.21,-24.92
3029,-0.40,6.37,-8.03,-0.00,0.00,-0.01,-28.13,15.21,-24.92
3040,-0.40,6.37,-8.03,-0.00,0.00,-0.01,-28.13,15.21,-24.92
3051,-0.42,6.37,-8.02,-0.00,0.00,-0.01,-28.13,15.21,-24.92
3062,-0.42,6.37,-8.02,-0.00,0.00,-0.01,-28.13,15.21,-24.92
3073,-0.42,6.37,-7.99,-0.00,0.00,-0.01,-28.13,15.21,-24.92
3084,-0.42,6.37,-7.99,-0.00,0.00,-0.01,-28.13,15.21,-24.92
3095,-0.41,6.38,-8.01,-0.00,0.00,-0.01,-28.13,15.21,-24.92
3107,-0.41,6.38,-8.01,-0.00,0.00,-0.01,-28.13,15.21,-24.92
3117,-0.40,6.38,-8.02,-0.00,0.00,-0.01,-28.13,14.92,-25.63
3128,-0.40,6.38,-8.02,-0.00,0.00,-0.01,-28.13,14.92,-25.63
3139,-0.40,6.37,-8.04,-0.00,-0.00,-0.01,-28.13,14.92,-25.63
3150,-0.42,6.38,-8.03,0.00,0.00,-0.01,-28.13,14.92,-25.63
3161,-0.42,6.38,-8.03,0.00,0.00,-0.01,-28.13,14.92,-25.63
3172,-0.42,6.38,-8.02,0.00,0.00,-0.01,-28.13,14.92,-25.63
3183,-0.42,6.38,-8.02,0.00,0.00,-0.01,-28.13,14.92,-25.63
3194,-0.41,6.39,-8.02,0.00,0.00,-0.01,-28.13,14.92,-25.63
3205,-0.41,6.39,-8.02,0.00,0.00,-0.01,-28.13,14.92,-25.63
3216,-0.42,6.38,-8.03,0.00,0.00,-0.01,-28.13,14.92,-25.63
3227,-0.42,6.38,-8.03,0.00,0.00,-0.01,-28.13,14.92,-25.63
3238,-0.41,6.36,-8.01,0.00,0.00,-0.01,-28.13,14.92,-25.63
3249,-0.41,6.38,-8.03,-0.00,0.00,-0.01,-27.28,14.04,-27.42
3260,-0.41,6.38,-8.03,-0.00,0.00,-0.01,-27.28,14.04,-27.42
3271,-0.42,6.38,-8.04,-0.00,0.00,-0.01,-27.28,14.04,-27.42
3282,-0.42,6.38,-8.04,-0.00,0.00,-0.01,-27.28,14.04,-27.42
3293,-0.42,6.39,-8.00,0.00,0.00,-0.01,-27.28,14.04,-27.42
3304,-0.42,6.39,-8.00,0.00,0.00,-0.01,-27.28,14.04,-27.42
3320,-0.40,6.38,-8.00,0.00,0.00,-0.01,-27.28,14.04,-27.42
3326,-0.40,6.38,-8.00,0.00,0.00,-0.01,-27.28,14.04,-27.42
3337,-0.41,6.37,-8.01,-0.00,0.00,-0.01,-27.28,14.04,-27.42
3348,-0.41,6.37,-8.01,-0.00,0.00,-0.01,-27.28,14.04,-27.42
3359,-0.42,6.37,-8.01,-0.00,0.00,-0.01,-27.28,14.04,-27.42
3370,-0.42,6.38,-8.02,-0.00,0.00,-0.01,-28.56,14.04,-24.56
3381,-0.42,6.38,-8.02,-0.00,0.00,-0.01,-28.56,14.04,-24.56
3392,-0.41,6.37,-8.02,0.00,0.00,-0.01,-28.56,14.04,-24.56
3403,-0.41,6.37,-8.02,0.00,0.00,-0.01,-28.56,14.04,-24.56
3414,-0.41,6.37,-8.03,0.00,0.00,-0.01,-28.56,14.04,-24.56
3425,-0.41,6.37,-8.03,0.00,0.00,-0.01,-28.56,14.04,-24.56
3436,-0.41,6.38,-8.02,0.00,0.00,-0.01,-28.56,14.04,-24.56
3447,-0.41,6.38,-8.02,0.00,0.00,-0.01,-28.56,14.04,-24.56
3458,-0.41,6.37,-8.00,0.00,0.00,-0.01,-28.56,14.04,-24.56
3469,-0.41,6.35,-8.00,0.00,0.00,-0.01,-28.56,14.04,-24.56
3480,-0.41,6.35,-8.00,0.00,0.00,-0.01,-28.56,14.04,-24.56
3491,-0.41,6.36,-8.01,0.00,0.00,-0.01,-28.35,15.36,-25.45
3502,-0.41,6.36,-8.01,0.00,0.00,-0.01,-28.35,15.36,-25.45
3513,-0.42,6.38,-8.04,0.00,0.00,-0.01,-28.35,15.36,-25.45
3524,-0.42,6.38,-8.04,0.00,0.00,-0.01,-28.35,15.36,-25.45
3535,-0.43,6.36,-8.02,-0.00,0.00,-0.01,-28.35,15.36,-25.45
3546,-0.43,6.36,-8.02,-0.00,0.00,-0.01,-28.35,15.36,-25.45
3557,-0.41,6.38,-8.01,-0.00,0.00,-0.01,-28.35,15.36,-25.45
3568,-0.41,6.38,-8.01,-0.00,0.00,-0.01,-28.35,15.36,-25.45
3579,-0.40,6.38,-8.01,-0.00,0.00,-0.01,-28.35,15.36,-25.45
3590,-0.42,6.37,-8.01,-0.00,0.00,-0.01,-28.35,15.36,-25.45
3601,-0.42,6.37,-8.01,-0.00,0.00,-0.01,-28.35,15.36,-25.45
3612,-0.40,6.37,-8.02,-0.00,0.00,-0.01,-27.06,14.77,-25.10
3623,-0.40,6.37,-8.02,-0.00,0.00,-0.01,-27.06,14.77,-25.10
3634,-0.40,6.36,-8.02,-0.00,0.00,-0.01,-27.06,14.77,-25.10
3645,-0.40,6.36,-8.02,-0.00,0.00,-0.01,-27.06,14.77,-25.10
3656,-0.42,6.37,-8.02,-0.00,0.00,-0.01,-27.06,14.77,-25.10
3667,-0.42,6.37,-8.02,-0.00,0.00,-0.01,-27.06,14.77,-25.10
3678,-0.41,6.37,-8.01,0.00,0.00,-0.01,-27.06,14.77,-25.10
3689,-0.41,6.37,-8.01,0.00,0.00,-0.01,-27.06,14.77,-25.10
3700,-0.40,6.37,-8.01,-0.00,0.00,-0.01,-27.06,14.77,-25.10
3711,-0.41,6.36,-7.99,0.00,0.00,-0.01,-27.06,14.77,-25.10
3722,-0.41,6.36,-7.99,0.00,0.00,-0.01,-27.06,14.77,-25.10
3733,-0.42,6.35,-8.01,-0.00,0.00,-0.01,-27.06,14.77,-25.10
3744,-0.42,6.35,-8.01,-0.00,0.00,-0.01,-27.06,14.77,-25.10
3755,-0.41,6.38,-8.02,-0.00,0.00,-0.01,-28.99,14.62,-26.70
3766,-0.41,6.38,-8.02,-0.00,0.00,-0.01,-28.99,14.62,-26.70
3777,-0.42,6.38,-8.02,0.00,0.00,-0.01,-28.99,14.62,-26.70
3792,-0.42,6.38,-8.02,0.00,0.00,-0.01,-28.99,14.62,-26.70
3799,-0.40,6.37,-7.99,-0.00,0.00,-0.01,-28.99,14.62,-26.70
3810,-0.41,6.37,-8.02,-0.00,0.00,-0.01,-28.99,14.62,-26.70
3821,-0.41,6.37,-8.02,-0.00,0.00,-0.01,-28.99,14.62,-26.70
3832,-0.41,6.38,-8.02,-0.00,0.00,-0.01,-28.99,14.62,-26.70
3843,-0.41,6.38,-8.02,-0.00,0.00,-0.01,-28.99,14.62,-26.70
3854,-0.42,6.37,-8.01,-0.00,0.00,-0.01,-28.99,14.62,-26.70
3865,-0.42,6.37,-8.01,-0.00,0.00,-0.01,-28.99,14.62,-26.70
3876,-0.42,6.37,-8.04,0.00,0.00,-0.01,-27.49,15.06,-26.17
3887,-0.42,6.37,-8.04,0.00,0.00,-0.01,-27.49,15.06,-26.17
3898,-0.41,6.36,-8.03,-0.00,0.00,-0.01,-27.49,15.06,-26.17
3909,-0.41,6.36,-8.03,-0.00,0.00,-0.01,-27.49,15.06,-26.17
3920,-0.41,6.37,-8.03,-0.00,0.00,-0.01,-27.49,15.06,-26.17
3932,-0.41,6.37,-8.01,-0.00,0.00,-0.01,-27.49,15.06,-26.17
3942,-0.41,6.37,-8.01,-0.00,0.00,-0.01,-27.49,15.06,-26.17
3953,-0.42,6.37,-8.02,0.00,0.00,-0.01,-27.49,15.06,-26.17
3964,-0.42,6.37,-8.02,0.00,0.00,-0.01,-27.49,15.06,-26.17
3975,-0.40,6.36,-8.01,0.00,0.00,-0.01,-27.49,15.06,-26.17
3986,-0.40,6.36,-8.01,0.00,0.00,-0.01,-27.49,15.06,-26.17
3997,-0.40,6.37,-8.01,-0.00,0.00,-0.01,-28.56,14.33,-26.70
4008,-0.40,6.37,-8.01,-0.00,0.00,-0.01,-28.56,14.33,-26.70
4019,-0.41,6.37,-8.02,0.00,0.00,-0.01,-28.56,14.33,-26.70
4030,-0.42,6.37,-8.00,-0.00,0.00,-0.01,-28.56,14.33,-26.70
4041,-0.42,6.37,-8.00,-0.00,0.00,-0.01,-28.56,14.33,-26.70
4052,-0.42,6.37,-8.03,-0.00,0.00,-0.01,-28.56,14.33,-26.70
4063,-0.42,6.37,-8.03,-0.00,0.00,-0.01,-28.56,14.33,-26.70
4074,-0.42,6.37,-8.03,-0.00,0.00,-0.01,-28.56,14.33,-26.70
4085,-0.42,6.37,-8.03,-0.00,0.00,-0.01,-28.56,14.33,-26.70
4096,-0.41,6.36,-8.02,-0.00,0.00,-0.01,-28.56,14.33,-26.70
4107,-0.41,6.36,-8.02,-0.00,0.00,-0.01,-28.56,14.33,-26.70
4122,-0.41,6.37,-8.00,-0.00,0.00,-0.01,-28.56,14.33,-26.70
4129,-0.41,6.37,-8.00,-0.00,0.00,-0.01,-28.56,14.33,-26.70
4140,-0.41,6.37,-8.04,0.00,0.00,-0.01,-28.99,15.21,-25.63
4151,-0.42,6.37,-8.04,-0.00,0.00,-0.01,-28.99,15.21,-25.63
4162,-0.42,6.37,-8.04,-0.00,0.00,-0.01,-28.99,15.21,-25.63
4173,-0.41,6.38,-8.01,0.00,0.00,-0.01,-28.99,15.21,-25.63
4184,-0.41,6.38,-8.01,0.00,0.00,-0.01,-28.99,15.21,-25.63
4195,-0.41,6.38,-8.01,0.00,0.00,-0.01,-28.99,15.21,-25.63
4206,-0.41,6.38,-8.01,0.00,0.00,-0.01,-28.99,15.21,-25.63
4217,-0.42,6.37,-8.03,0.00,0.00,-0.01,-28.99,15.21,-25.63
4228,-0.42,6.37,-8.03,0.00,0.00,-0.01,-28.99,15.21,-25.63
4239,-0.39,6.36,-7.98,0.00,-0.00,-0.01,-28.99,15.21,-25.63
4250,-0.42,6.37,-8.02,-0.00,0.00,-0.01,-28.56,15.80,-24.56
4261,-0.42,6.37,-8.02,-0.00,0.00,-0.01,-28.56,15.80,-24.56
4272,-0.41,6.37,-8.03,-0.00,0.00,-0.01,-28.56,15.80,-24.56
4283,-0.41,6.37,-8.03,-0.00,0.00,-0.01,-28.56,15.80,-24.56
4294,-0.42,6.38,-8.01,0.00,0.00,-0.01,-28.56,15.80,-24.56
4305,-0.42,6.38,-8.01,0.00,0.00,-0.01,-28.56,15.80,-24.56
4316,-0.41,6.37,-8.03,-0.00,0.00,-0.01,-28.56,15.80,-24.56
4327,-0.41,6.37,-8.03,-0.00,0.00,-0.01,-28.56,15.80,-24.56
4338,-0.42,6.38,-8.01,-0.00,0.00,-0.01,-28.56,15.80,-24.56
4349,-0.42,6.38,-8.01,-0.00,0.00,-0.01,-28.56,15.80,-24.56
4360,-0.41,6.37,-8.00,-0.00,0.00,-0.01,-28.56,15.80,-24.56
4371,-0.41,6.37,-8.00,-0.00,0.00,-0.01,-27.49,13.89,-25.10
4382,-0.41,6.37,-8.00,-0.00,0.00,-0.01,-27.49,13.89,-25.10
4393,-0.40,6.37,-8.03,0.00,0.00,-0.01,-27.49,13.89,-25.10
4405,-0.40,6.37,-8.03,0.00,0.00,-0.01,-27.49,13.89,-25.10
4415,-0.43,6.37,-8.02,0.00,0.00,-0.01,-27.49,13.89,-25.10
4426,-0.43,6.37,-8.02,0.00,0.00,-0.01,-27.49,13.89,-25.10
4437,-0.40,6.37,-8.01,0.00,0.00,-0.01,-27.49,13.89,-25.10
4448,-0.40,6.37,-8.01,0.00,0.00,-0.01,-27.49,13.89,-25.10
4459,-0.41,6.39,-7.99,-0.00,0.00,-0.01,-27.49,13.89,-25.10
4470,-0.40,6.37,-8.02,0.00,0.00,-0.01,-27.49,13.89,-25.10
4481,-0.40,6.37,-8.02,0.00,0.00,-0.01,-27.49,13.89,-25.10
4492,-0.40,6.37,-8.01,-0.00,0.00,-0.01,-27.49,13.89,-25.10
4503,-0.40,6.37,-8.01,-0.00,0.00,-0.01,-27.49,13.89,-25.10
4514,-0.41,6.38,-8.03,-0.00,0.00,-0.01,-27.92,14.18,-26.17
4525,-0.41,6.38,-8.03,-0.00,0.00,-0.01,-27.92,14.18,-26.17
4536,-0.40,6.37,-8.01,0.00,0.00,-0.01,-27.92,14.18,-26.17
4547,-0.40,6.37,-8.01,0.00,0.00,-0.01,-27.92,14.18,-26.17
4558,-0.42,6.38,-8.02,0.00,0.00,-0.01,-27.92,14.18,-26.17
4569,-0.42,6.38,-8.02,0.00,0.00,-0.01,-27.92,14.18,-26.17
4580,-0.41,6.37,-8.03,-0.00,0.00,-0.01,-27.92,14.18,-26.17
4591,-0.41,6.36,-8.03,-0.00,0.00,-0.01,-27.92,14.18,-26.17
4602,-0.41,6.36,-8.03,-0.00,0.00,-0.01,-27.92,14.18,-26.17
4613,-0.41,6.37,-8.02,-0.00,0.00,-0.01,-27.92,14.18,-26.17
4624,-0.41,6.37,-8.02,-0.00,0.00,-0.01,-27.92,14.18,-26.17
4635,-0.42,6.37,-8.03,-0.00,0.00,-0.01,-27.49,15.06,-24.74
4646,-0.42,6.37,-8.03,-0.00,0.00,-0.01,-27.49,15.06,-24.74
4657,-0.40,6.37,-8.02,-0.00,0.00,-0.01,-27.49,15.06,-24.74
4668,-0.40,6.37,-8.02,-0.00,0.00,-0.01,-27.49,15.06,-24.74
4679,-0.41,6.36,-8.01,0.00,0.00,-0.01,-27.49,15.06,-24.74
4690,-0.41,6.36,-7.99,0.00,0.00,-0.01,-27.49,15.06,-24.74
4701,-0.41,6.36,-7.99,0.00,0.00,-0.01,-27.49,15.06,-24.74
4712,-0.42,6.36,-8.00,0.00,0.00,-0.01,-27.49,15.06,-24.74
4723,-0.42,6.36,-8.00,0.00,0.00,-0.01,-27.49,15.06,-24.74
4734,-0.42,6.38,-8.00,-0.00,0.00,-0.01,-27.49,15.06,-24.74
4745,-0.42,6.38,-8.00,-0.00,0.00,-0.01,-27.49,15.06,-24.74
4756,-0.42,6.38,-8.04,0.00,0.00,-0.01,-28.78,15.06,-26.52
4767,-0.42,6.38,-8.04,0.00,0.00,-0.01,-28.78,15.06,-26.52
4778,-0.43,6.37,-8.03,0.00,0.00,-0.01,-28.78,15.06,-26.52
4789,-0.43,6.37,-8.03,0.00,0.00,-0.01,-28.78,15.06,-26.52
4800,-0.42,6.37,-8.02,0.00,0.00,-0.01,-28.78,15.06,-26.52
4811,-0.41,6.37,-8.02,0.00,0.00,-0.01,-28.78,15.06,-26.52
4822,-0.41,6.37,-8.02,0.00,0.00,-0.01,-28.78,15.06,-26.52
4833,-0.40,6.37,-8.03,0.00,0.00,-0.01,-28.78,15.06,-26.52
4844,-0.40,6.37,-8.03,0.00,0.00,-0.01,-28.78,15.06,-26.52
4855,-0.40,6.38,-8.01,-0.00,0.00,-0.01,-28.78,15.06,-26.52
4866,-0.40,6.38,-8.01,-0.00,0.00,-0.01,-28.78,15.06,-26.52
4877,-0.42,6.37,-8.02,0.00,0.00,-0.01,-28.78,15.06,-26.52
4888,-0.42,6.37,-8.02,0.00,0.00,-0.01,-28.78,15.06,-26.52
4899,-0.41,6.36,-8.04,0.00,0.00,-0.01,-27.49,15.06,-24.38
4910,-0.41,6.36,-8.04,0.00,0.00,-0.01,-27.49,15.06,-24.38
4921,-0.42,6.38,-8.03,-0.00,0.00,-0.01,-27.49,15.06,-24.38
4932,-0.41,6.36,-8.00,-0.00,0.00,-0.01,-27.49,15.06,-24.38
4943,-0.41,6.36,-8.00,-0.00,0.00,-0.01,-27.49,15.06,-24.38
4954,-0.41,6.37,-8.00,0.00,0.00,-0.01,-27.49,15.06,-24.38
4965,-0.41,6.37,-8.00,0.00,0.00,-0.01,-27.49,15.06,-24.38
4976,-0.41,6.36,-7.99,0.00,0.00,-0.01,-27.49,15.06,-24.38
4987,-0.41,6.36,-7.99,0.00,0.00,-0.01,-27.49,15.06,-24.38
4998,-0.40,6.36,-7.99,-0.00,0.00,-0.01,-27.49,15.06,-24.38
5009,-0.40,6.36,-7.99,-0.00,0.00,-0.01,-27.49,15.06,-24.38
5020,-0.42,6.36,-8.00,-0.00,0.00,-0.01,-26.85,14.62,-27.42
5031,-0.41,6.38,-8.02,0.00,0.00,-0.01,-26.85,14.62,-27.42
5042,-0.41,6.38,-8.02,0.00,0.00,-0.01,-26.85,14.62,-27.42
5053,-0.42,6.37,-8.00,0.00,0.00,-0.01,-26.85,14.62,-27.42
5064,-0.42,6.37,-8.00,0.00,0.00,-0.01,-26.85,14.62,-27.42
5075,-0.42,6.37,-8.02,0.00,0.00,-0.01,-26.85,14.62,-27.42
5086,-0.42,6.37,-8.02,0.00,0.00,-0.01,-26.85,14.62,-27.42
5097,-0.42,6.38,-8.03,0.00,0.00,-0.01,-26.85,14.62,-27.42
5108,-0.42,6.38,-8.03,0.00,0.00,-0.01,-26.85,14.62,-27.42
5119,-0.41,6.37,-8.02,-0.00,0.00,-0.01,-26.85,14.62,-27.42
5130,-0.41,6.37,-8.02,-0.00,0.00,-0.01,-26.85,14.62,-27.42
5142,-0.42,6.39,-8.03,-0.00,0.00,-0.01,-28.78,13.30,-26.52
5152,-0.40,6.38,-8.02,0.00,0.00,-0.01,-28.78,13.30,-26.52
5163,-0.40,6.38,-8.02,0.00,0.00,-0.01,-28.78,13.30,-26.52
5174,-0.41,6.37,-8.03,-0.00,0.00,-0.01,-28.78,13.30,-26.52
5185,-0.41,6.37,-8.03,-0.00,0.00,-0.01,-28.78,13.30,-26.52
5196,-0.42,6.36,-8.01,-0.00,0.00,-0.01,-28.78,13.30,-26.52
5207,-0.42,6.36,-8.01,-0.00,0.00,-0.01,-28.78,13.30,-26.52
5218,-0.43,6.37,-8.03,-0.00,0.00,-0.01,-28.78,13.30,-26.52
5229,-0.43,6.37,-8.03,-0.00,0.00,-0.01,-28.78,13.30,-26.52
5240,-0.41,6.38,-8.02,-0.00,0.00,-0.01,-28.78,13.30,-26.52
5251,-0.41,6.37,-8.01,-0.00,0.00,-0.01,-28.35,13.89,-26.88
5262,-0.41,6.37,-8.01,-0.00,0.00,-0.01,-28.35,13.89,-26.88
5273,-0.40,6.36,-8.03,0.00,0.00,-0.01,-28.35,13.89,-26.88
5284,-0.40,6.36,-8.03,0.00,0.00,-0.01,-28.35,13.89,-26.88
5295,-0.42,6.36,-8.03,-0.00,0.00,-0.01,-28.35,13.89,-26.88
5306,-0.42,6.36,-8.03,-0.00,0.00,-0.01,-28.35,13.89,-26.88
5317,-0.42,6.37,-8.02,-0.00,0.00,-0.01,-28.35,13.89,-26.88
5328,-0.42,6.37,-8.02,-0.00,0.00,-0.01,-28.35,13.89,-26.88
5339,-0.41,6.37,-8.01,0.00,0.00,-0.01,-28.35,13.89,-26.88
5350,-0.41,6.37,-8.01,0.00,0.00,-0.01,-28.35,13.89,-26.88
5361,-0.42,6.38,-8.00,0.00,0.00,-0.01,-28.35,13.89,-26.88
5372,-0.41,6.37,-8.03,-0.00,0.00,-0.01,-28.35,13.89,-26.88
5383,-0.41,6.37,-8.03,-0.00,0.00,-0.01,-28.35,13.89,-26.88
5394,-0.41,6.37,-8.02,-0.00,0.00,-0.01,-28.56,14.62,-24.92
5405,-0.41,6.37,-8.02,-0.00,0.00,-0.01,-28.56,14.62,-24.92
5416,-0.41,6.36,-8.00,-0.00,0.00,-0.01,-28.56,14.62,-24.92
5427,-0.41,6.36,-8.00,-0.00,0.00,-0.01,-28.56,14.62,-24.92
5438,-0.41,6.36,-8.01,-0.00,0.00,-0.01,-28.56,14.62,-24.92
5449,-0.41,6.36,-8.01,-0.00,0.00,-0.01,-28.56,14.62,-24.92
5460,-0.41,6.36,-8.01,-0.00,0.00,-0.01,-28.56,14.62,-24.92
5471,-0.42,6.36,-8.02,-0.00,0.00,-0.01,-28.56,14.62,-24.92
5482,-0.42,6.36,-8.02,-0.00,0.00,-0.01,-28.56,14.62,-24.92
5493,-0.42,6.37,-8.02,-0.00,0.00,-0.01,-28.56,14.62,-24.92
5504,-0.42,6.37,-8.02,-0.00,0.00,-0.01,-28.56,14.62,-24.92
5515,-0.41,6.36,-8.05,-0.00,-0.00,-0.01,-29.42,14.04,-25.27
5526,-0.41,6.36,-8.05,-0.00,-0.00,-0.01,-29.42,14.04,-25.27
5537,-0.42,6.36,-8.02,-0.00,0.00,-0.01,-29.42,14.04,-25.27
5548,-0.42,6.36,-8.02,-0.00,0.00,-0.01,-29.42,14.04,-25.27
5559,-0.42,6.36,-8.02,0.00,0.00,-0.01,-29.42,14.04,-25.27
5570,-0.42,6.36,-8.02,0.00,0.00,-0.01,-29.42,14.04,-25.27
5581,-0.41,6.37,-8.01,0.00,0.00,-0.01,-29.42,14.04,-25.27
5592,-0.42,6.38,-8.01,0.00,0.00,-0.01,-29.42,14.04,-25.27
5603,-0.42,6.38,-8.01,0.00,0.00,-0.01,-29.42,14.04,-25.27
5614,-0.41,6.38,-8.01,0.00,0.00,-0.01,-29.42,14.04,-25.27
5625,-0.41,6.38,-8.01,0.00,0.00,-0.01,-29.42,14.04,-25.27
5636,-0.42,6.36,-8.04,-0.00,0.00,-0.01,-28.13,14.33,-25.99
5647,-0.42,6.36,-8.04,-0.00,0.00,-0.01,-28.13,14.33,-25.99
5658,-0.42,6.38,-8.05,-0.00,0.00,-0.01,-28.13,14.33,-25.99
5669,-0.42,6.38,-8.05,-0.00,0.00,-0.01,-28.13,14.33,-25.99
5680,-0.41,6.37,-8.02,-0.00,0.00,-0.01,-28.13,14.33,-25.99
5691,-0.41,6.37,-8.02,-0.00,0.00,-0.01,-28.13,14.33,-25.99
5702,-0.42,6.36,-8.02,0.00,0.00,-0.01,-28.13,14.33,-25.99
5713,-0.42,6.37,-8.04,0.00,0.00,-0.01,-28.13,14.33,-25.99
5724,-0.42,6.37,-8.04,0.00,0.00,-0.01,-28.13,14.33,-25.99
5735,-0.40,6.36,-8.00,-0.00,0.00,-0.01,-28.13,14.33,-25.99
5746,-0.40,6.36,-8.00,-0.00,0.00,-0.01,-28.13,14.33,-25.99
5757,-0.42,6.35,-8.03,0.00,0.00,-0.01,-28.13,14.33,-25.99
5768,-0.42,6.35,-8.03,0.00,0.00,-0.01,-28.13,14.33,-25.99
5779,-0.40,6.36,-8.04,0.00,0.00,-0.01,-28.56,14.92,-25.99
5790,-0.40,6.36,-8.04,0.00,0.00,-0.01,-28.56,14.92,-25.99
5801,-0.42,6.36,-8.02,0.00,0.00,-0.01,-28.56,14.92,-25.99
5812,-0.40,6.36,-8.00,-0.00,0.00,-0.01,-28.56,14.92,-25.99
5823,-0.40,6.36,-8.00,-0.00,0.00,-0.01,-28.56,14.92,-25.99
5834,-0.40,6.36,-8.01,0.00,-0.00,-0.01,-28.56,14.92,-25.99
5846,-0.40,6.36,-8.01,0.00,-0.00,-0.01,-28.56,14.92,-25.99
5856,-0.40,6.37,-8.00,-0.00,0.00,-0.01,-28.56,14.92,-25.99
5867,-0.40,6.37,-8.00,-0.00,0.00,-0.01,-28.56,14.92,-25.99
5878,-0.42,6.37,-8.03,-0.00,0.00,-0.01,-28.56,14.92,-25.99
5889,-0.42,6.37,-8.03,-0.00,0.00,-0.01,-28.56,14.92,-25.99
5900,-0.42,6.36,-8.05,-0.00,0.00,-0.01,-27.92,15.06,-26.88
5911,-0.42,6.36,-8.05,-0.00,0.00,-0.01,-27.92,15.06,-26.88
5922,-0.42,6.37,-8.03,0.00,0.00,-0.01,-27.92,15.06,-26.88
5933,-0.43,6.40,-8.01,0.00,0.00,-0.01,-27.92,15.06,-26.88
5944,-0.43,6.40,-8.01,0.00,0.00,-0.01,-27.92,15.06,-26.88
5955,-0.43,6.36,-8.02,0.00,0.00,-0.01,-27.92,15.06,-26.88
5966,-0.43,6.36,-8.02,0.00,0.00,-0.01,-27.92,15.06,-26.88
5977,-0.42,6.37,-8.01,-0.00,0.00,-0.01,-27.92,15.06,-26.88
5988,-0.42,6.37,-8.01,-0.00,0.00,-0.01,-27.92,15.06,-26.88
5999,-0.42,6.37,-8.02,-0.00,0.00,-0.01,-27.92,15.06,-26.88
6010,-0.42,6.37,-8.02,-0.00,0.00,-0.01,-27.92,15.06,-26.88
6021,-0.42,6.36,-8.01,-0.00,0.00,-0.01,-27.92,13.89,-25.81
6032,-0.42,6.38,-8.04,-0.00,0.00,-0.01,-27.92,13.89,-25.81
6043,-0.42,6.38,-8.04,-0.00,0.00,-0.01,-27.92,13.89,-25.81
6054,-0.41,6.36,-8.04,-0.00,0.00,-0.01,-27.92,13.89,-25.81
6065,-0.41,6.36,-8.04,-0.00,0.00,-0.01,-27.92,13.89,-25.81
6076,-0.41,6.36,-8.01,-0.00,0.00,-0.01,-27.92,13.89,-25.81
6087,-0.41,6.36,-8.01,-0.00,0.00,-0.01,-27.92,13.89,-25.81
6098,-0.42,6.38,-7.99,-0.00,0.00,-0.01,-27.92,13.89,-25.81
6109,-0.42,6.38,-7.99,-0.00,0.00,-0.01,-27.92,13.89,-25.81
6120,-0.40,6.36,-8.03,-0.00,0.00,-0.01,-27.92,13.89,-25.81
6131,-0.40,6.36,-8.03,-0.00,0.00,-0.01,-27.92,13.89,-25.81
6142,-0.42,6.37,-8.01,-0.00,0.00,-0.01,-27.92,13.89,-25.81
6153,-0.41,6.37,-8.03,0.00,0.00,-0.01,-27.49,15.36,-25.81
6164,-0.41,6.37,-8.03,0.00,0.00,-0.01,-27.49,15.36,-25.81
6175,-0.44,6.36,-8.02,-0.00,0.00,-0.01,-27.49,15.36,-25.81
6186,-0.44,6.36,-8.02,-0.00,0.00,-0.01,-27.49,15.36,-25.81
6197,-0.38,6.34,-8.06,-0.06,-0.01,-0.01,-27.49,15.36,-25.81
6208,-0.38,6.34,-8.06,-0.06,-0.01,-0.01,-27.49,15.36,-25.81
6219,-0.47,6.43,-7.93,-0.07,-0.04,-0.04,-27.49,15.36,-25.81
6230,-0.47,6.43,-7.93,-0.07,-0.04,-0.04,-27.49,15.36,-25.81
6241,-0.35,6.32,-8.08,-0.01,-0.01,-0.01,-27.49,15.36,-25.81
6252,-0.27,5.21,-8.22,-0.51,-0.42,-0.05,-27.49,15.36,-25.81
6263,-0.27,5.21,-8.22,-0.51,-0.42,-0.05,-27.49,15.36,-25.81
6274,-0.90,7.13,-7.23,-0.20,-0.47,0.39,-28.78,14.18,-25.81
6285,-0.90,7.13,-7.23,-0.20,-0.47,0.39,-28.78,14.18,-25.81
6296,-0.10,6.25,-8.27,0.73,0.03,0.56,-28.78,14.18,-25.81
6307,-0.10,6.25,-8.27,0.73,0.03,0.56,-28.78,14.18,-25.81
6318,-0.27,5.57,-8.37,-0.10,-0.65,0.56,-28.78,14.18,-25.81
6329,-0.27,5.57,-8.37,-0.10,-0.65,0.56,-28.78,14.18,-25.81
6340,-0.80,6.55,-8.03,0.05,-0.27,0.25,-28.78,14.18,-25.81
6351,-0.80,6.55,-8.03,0.05,-0.27,0.25,-28.78,14.18,-25.81
6362,-0.28,5.95,-8.64,0.34,-0.07,0.22,-28.78,14.18,-25.81
6373,-0.41,7.24,-12.33,0.95,-0.19,0.46,-28.78,14.18,-25.81
6384,-0.41,7.24,-12.33,0.95,-0.19,0.46,-28.78,14.18,-25.81
6395,0.30,3.98,-9.31,4.15,-0.77,1.19,-27.49,14.77,-26.88
6406,0.30,3.98,-9.31,4.15,-0.77,1.19,-27.49,14.77,-26.88
6417,-0.80,3.86,-9.04,4.54,-1.03,2.07,-27.49,14.77,-26.88
6428,-0.80,3.86,-9.04,4.54,-1.03,2.07,-27.49,14.77,-26.88
6439,-3.44,7.65,-13.56,5.15,-0.68,2.70,-27.49,14.77,-26.88
6450,-3.44,7.65,-13.56,5.15,-0.68,2.70,-27.49,14.77,-26.88
6461,-3.79,9.65,-5.58,8.22,0.56,2.74,-27.49,14.77,-26.88
6472,-1.11,14.19,-17.24,4.57,1.92,0.05,-27.49,14.77,-26.88
6483,-1.11,14.19,-17.24,4.57,1.92,0.05,-27.49,14.77,-26.88
6494,1.76,9.13,-21.51,6.94,0.85,-2.70,-27.49,14.77,-26.88
6505,1.76,9.13,-21.51,6.94,0.85,-2.70,-27.49,14.77,-26.88
6516,3.36,0.66,-16.01,9.79,-1.90,-4.05,-22.56,-12.95,-35.98
6527,3.36,0.66,-16.01,9.79,-1.90,-4.05,-22.56,-12.95,-35.98
6538,3.98,-4.09,-9.14,11.06,-4.25,-3.62,-22.56,-12.95,-35.98
6549,3.98,-4.09,-9.14,11.06,-4.25,-3.62,-22.56,-12.95,-35.98
6560,4.39,-5.85,-4.99,9.57,-5.74,-2.46,-22.56,-12.95,-35.98
6571,4.39,-5.85,-4.99,9.57,-5.74,-2.46,-22.56,-12.95,-35.98
6582,2.85,-6.48,-3.62,7.05,-6.42,-1.55,-22.56,-12.95,-35.98
6593,1.68,-6.89,-1.55,5.06,-6.51,-0.89,-22.56,-12.95,-35.98
6604,1.68,-6.89,-1.55,5.06,-6.51,-0.89,-22.56,-12.95,-35.98
6615,0.09,-5.94,-2.95,3.28,-5.92,-0.60,-22.56,-12.95,-35.98
6626,0.09,-5.94,-2.95,3.28,-5.92,-0.60,-22.56,-12.95,-35.98
6637,-0.05,-6.49,-3.84,3.92,-5.58,-0.53,-22.56,-12.95,-35.98
6648,-0.05,-6.49,-3.84,3.92,-5.58,-0.53,-22.56,-12.95,-35.98
6659,-1.10,-8.08,0.44,5.92,-5.44,-0.09,-40.56,-34.37,-2.08
6670,-1.10,-8.08,0.44,5.92,-5.44,-0.09,-40.56,-34.37,-2.08
6681,-0.62,-8.55,5.62,6.23,-4.55,0.60,-40.56,-34.37,-2.08
6692,-3.36,-5.28,3.18,3.35,-3.22,0.84,-40.56,-34.37,-2.08
6703,-3.36,-5.28,3.18,3.35,-3.22,0.84,-40.56,-34.37,-2.08
6714,-4.47,-2.96,1.22,2.68,-2.41,0.52,-40.56,-34.37,-2.08
6725,-4.47,-2.96,1.22,2.68,-2.41,0.52,-40.56,-34.37,-2.08
6736,-2.58,-7.24,4.46,4.16,-1.98,0.06,-40.56,-34.37,-2.08
6747,-2.58,-7.24,4.46,4.16,-1.98,0.06,-40.56,-34.37,-2.08
6758,-3.31,-9.43,4.06,3.06,-1.64,0.19,-40.56,-34.37,-2.08
6769,-3.31,-9.43,4.06,3.06,-1.64,0.19,-40.56,-34.37,-2.08
6780,-3.80,-7.52,3.13,0.74,-1.38,0.65,-38.42,-30.85,25.03
6791,-3.80,-7.52,3.13,0.74,-1.38,0.65,-38.42,-30.85,25.03
6802,-4.10,-9.16,5.57,-1.03,-1.14,0.71,-38.42,-30.85,25.03
6813,-2.55,-13.19,0.03,-3.76,-0.69,1.00,-38.42,-30.85,25.03
6824,-2.55,-13.19,0.03,-3.76,-0.69,1.00,-38.42,-30.85,25.03
6835,-7.51,-15.32,-4.64,-1.86,-0.73,2.95,-38.42,-30.85,25.03
6846,-7.51,-15.32,-4.64,-1.86,-0.73,2.95,-38.42,-30.85,25.03
6857,-7.48,-6.45,-9.69,-0.74,-1.28,4.16,-38.42,-30.85,25.03
6868,-7.48,-6.45,-9.69,-0.74,-1.28,4.16,-38.42,-30.85,25.03
6880,-4.82,-2.48,-7.49,2.03,-2.41,3.75,-38.42,-30.85,25.03
6890,-4.82,-2.48,-7.49,2.03,-2.41,3.75,-38.42,-30.85,25.03
6901,-3.11,-2.95,-3.76,3.73,-3.63,2.81,-43.78,-22.78,29.49
6912,-3.11,-2.95,-3.76,3.73,-3.63,2.81,-43.78,-22.78,29.49
6923,-5.08,-3.95,0.79,4.56,-3.93,2.33,-43.78,-22.78,29.49
6934,-7.72,-3.20,2.31,3.54,-3.99,2.00,-43.78,-22.78,29.49
6945,-7.72,-3.20,2.31,3.54,-3.99,2.00,-43.78,-22.78,29.49
6956,-8.31,-1.24,8.86,4.38,-3.70,2.15,-43.78,-22.78,29.49
6967,-8.31,-1.24,8.86,4.38,-3.70,2.15,-43.78,-22.78,29.49
6978,-9.14,1.13,15.90,5.31,-1.84,2.02,-43.78,-22.78,29.49
6989,-9.14,1.13,15.90,5.31,-1.84,2.02,-43.78,-22.78,29.49
7000,-8.07,1.02,11.03,1.67,0.57,0.57,-43.78,-22.78,29.49
7011,-8.07,1.02,11.03,1.67,0.57,0.57,-43.78,-22.78,29.49
7022,-7.29,-3.89,4.93,-0.58,1.75,-0.78,-43.78,-22.78,29.49
7033,-7.11,-5.94,3.07,0.73,1.82,-0.71,-37.78,-9.29,41.26
7049,-7.11,-5.94,3.07,0.73,1.82,-0.71,-37.78,-9.29,41.26
7055,-6.16,-4.13,5.86,1.68,1.39,-0.22,-37.78,-9.29,41.26
7066,-6.16,-4.13,5.86,1.68,1.39,-0.22,-37.78,-9.29,41.26
7077,-6.00,-2.34,6.99,-0.18,1.07,-0.25,-37.78,-9.29,41.26
7088,-6.00,-2.34,6.99,-0.18,1.07,-0.25,-37.78,-9.29,41.26
7099,-5.66,-2.11,5.42,-1.42,1.04,-0.92,-37.78,-9.29,41.26
7110,-5.66,-2.11,5.42,-1.42,1.04,-0.92,-37.78,-9.29,41.26
7121,-5.94,-7.33,6.42,-0.27,0.88,-1.14,-37.78,-9.29,41.26
7132,-5.94,-7.33,6.42,-0.27,0.88,-1.14,-37.78,-9.29,41.26
7143,-4.86,-8.07,6.20,-0.41,0.77,-0.14,-37.78,-9.29,41.26
7154,-5.13,-3.97,5.54,-0.33,0.83,0.72,-43.78,-9.87,35.20
7165,-5.13,-3.97,5.54,-0.33,0.83,0.72,-43.78,-9.87,35.20
7176,-5.97,-2.66,4.80,-0.14,0.69,0.51,-43.78,-9.87,35.20
7187,-5.97,-2.66,4.80,-0.14,0.69,0.51,-43.78,-9.87,35.20
7198,-7.52,-3.31,5.12,0.49,0.20,0.32,-43.78,-9.87,35.20
7209,-7.52,-3.31,5.12,0.49,0.20,0.32,-43.78,-9.87,35.20
7220,-8.04,-3.84,4.47,0.42,-0.37,0.54,-43.78,-9.87,35.20
7231,-8.04,-3.84,4.47,0.42,-0.37,0.54,-43.78,-9.87,35.20
7242,-7.98,-2.97,5.58,1.07,-0.64,0.64,-43.78,-9.87,35.20
7253,-8.29,-1.67,8.14,2.17,-0.27,0.24,-43.78,-9.87,35.20
7264,-8.29,-1.67,8.14,2.17,-0.27,0.24,-43.78,-9.87,35.20
7275,-9.07,-2.27,6.32,1.66,0.19,-0.34,-43.13,-5.62,34.66
7286,-9.07,-2.27,6.32,1.66,0.19,-0.34,-43.13,-5.62,34.66
7297,-8.30,-4.59,4.35,0.70,0.19,-0.36,-43.13,-5.62,34.66
7309,-8.30,-4.59,4.35,0.70,0.19,-0.36,-43.13,-5.62,34.66
7319,-8.50,-6.13,5.44,0.09,0.07,0.14,-43.13,-5.62,34.66
7330,-8.50,-6.13,5.44,0.09,0.07,0.14,-43.13,-5.62,34.66
7341,-6.62,-10.17,1.84,-2.27,-0.07,0.74,-43.13,-5.62,34.66
7352,-6.62,-10.17,1.84,-2.27,-0.07,0.74,-43.13,-5.62,34.66
7363,-4.63,-7.73,-3.56,-3.42,-1.05,2.07,-43.13,-5.62,34.66
7374,-3.66,0.75,-0.56,-0.82,-2.78,3.52,-43.13,-5.62,34.66
7385,-3.66,0.75,-0.56,-0.82,-2.78,3.52,-43.13,-5.62,34.66
7396,-6.04,-2.67,10.52,3.01,-3.30,3.70,-43.13,-5.62,34.66
7407,-6.04,-2.67,10.52,3.01,-3.30,3.70,-43.13,-5.62,34.66
7418,-6.07,0.44,7.15,0.60,-2.85,3.58,-38.63,-0.48,39.84
7429,-6.07,0.44,7.15,0.60,-2.85,3.58,-38.63,-0.48,39.84
7440,-6.15,2.76,5.17,2.04,-2.57,3.63,-38.63,-0.48,39.84
7451,-6.15,2.76,5.17,2.04,-2.57,3.63,-38.63,-0.48,39.84
7462,-6.39,3.84,9.80,3.85,-2.43,3.43,-38.63,-0.48,39.84
7473,-7.08,6.51,15.52,3.27,-1.58,2.83,-38.63,-0.48,39.84
7484,-7.08,6.51,15.52,3.27,-1.58,2.83,-38.63,-0.48,39.84
7495,-8.07,7.41,10.09,1.67,0.06,1.37,-38.63,-0.48,39.84
7506,-8.07,7.41,10.09,1.67,0.06,1.37,-38.63,-0.48,39.84
7517,-7.74,4.30,5.79,0.96,0.72,-0.15,-38.63,-0.48,39.84
7528,-7.74,4.30,5.79,0.96,0.72,-0.15,-38.63,-0.48,39.84
7539,-8.05,3.83,6.97,0.90,0.62,-0.92,-29.63,12.13,38.77
7550,-8.05,3.83,6.97,0.90,0.62,-0.92,-29.63,12.13,38.77
7561,-5.83,4.26,7.29,0.67,0.58,-1.20,-29.63,12.13,38.77
7572,-5.83,4.26,7.29,0.67,0.58,-1.20,-29.63,12.13,38.77
7583,-6.61,4.19,6.31,0.66,0.69,-1.36,-29.63,12.13,38.77
7594,-7.25,0.65,7.06,0.95,0.86,-1.67,-29.63,12.13,38.77
7606,-7.25,0.65,7.06,0.95,0.86,-1.67,-29.63,12.13,38.77
7616,-7.00,-0.49,5.24,0.79,1.04,-1.50,-29.63,12.13,38.77
7632,-7.00,-0.49,5.24,0.79,1.04,-1.50,-29.63,12.13,38.77
7638,-7.48,1.10,3.33,0.55,0.76,-1.01,-29.63,12.13,38.77
7649,-7.48,1.10,3.33,0.55,0.76,-1.01,-29.63,12.13,38.77
7660,-6.70,-0.42,5.99,0.07,0.17,-0.91,-33.49,10.66,35.20
7671,-6.70,-0.42,5.99,0.07,0.17,-0.91,-33.49,10.66,35.20
7682,-6.99,0.51,6.45,0.06,0.33,-0.52,-33.49,10.66,35.20
7693,-7.87,1.56,5.94,0.06,0.55,-0.48,-33.49,10.66,35.20
7704,-7.87,1.56,5.94,0.06,0.55,-0.48,-33.49,10.66,35.20
7715,-8.93,0.55,6.46,-0.06,0.53,-0.56,-33.49,10.66,35.20
7726,-8.93,0.55,6.46,-0.06,0.53,-0.56,-33.49,10.66,35.20
7737,-8.39,-0.13,6.39,-0.37,0.40,-0.45,-33.49,10.66,35.20
7748,-8.39,-0.13,6.39,-0.37,0.40,-0.45,-33.49,10.66,35.20
7759,-7.48,1.55,5.46,-0.49,0.38,-0.18,-33.49,10.66,35.20
7770,-7.48,1.55,5.46,-0.49,0.38,-0.18,-33.49,10.66,35.20
7781,-7.45,1.72,6.19,-0.31,0.39,-0.20,-33.49,10.66,35.20
7792,-7.45,1.72,6.19,-0.31,0.39,-0.20,-33.49,10.66,35.20
7803,-7.74,0.94,6.31,-0.21,0.48,-0.30,-36.92,10.66,34.49
7814,-7.85,0.51,5.77,-0.17,0.55,-0.30,-36.92,10.66,34.49
7825,-7.85,0.51,5.77,-0.17,0.55,-0.30,-36.92,10.66,34.49
7836,-8.53,-0.66,5.30,-0.34,0.45,-0.16,-36.92,10.66,34.49
7847,-8.53,-0.66,5.30,-0.34,0.45,-0.16,-36.92,10.66,34.49
7858,-8.11,0.18,5.53,-0.48,0.22,0.15,-36.92,10.66,34.49
7869,-8.11,0.18,5.53,-0.48,0.22,0.15,-36.92,10.66,34.49
7880,-7.90,1.76,5.82,-0.61,0.18,0.19,-36.92,10.66,34.49
7891,-7.90,1.76,5.82,-0.61,0.18,0.19,-36.92,10.66,34.49
7902,-7.51,0.61,5.31,-0.54,0.25,-0.05,-36.92,10.66,34.49
7913,-7.51,0.61,5.31,-0.54,0.25,-0.05,-36.92,10.66,34.49
7924,-7.77,0.06,5.11,-0.18,0.22,0.05,-39.49,7.73,32.35
7935,-8.01,1.04,5.72,0.04,0.11,0.26,-39.49,7.73,32.35
7946,-8.01,1.04,5.72,0.04,0.11,0.26,-39.49,7.73,32.35
7957,-8.08,1.13,5.84,0.15,0.15,0.16,-39.49,7.73,32.35
7968,-8.08,1.13,5.84,0.15,0.15,0.16,-39.49,7.73,32.35
7979,-8.27,1.05,5.30,0.05,0.22,0.05,-39.49,7.73,32.35
7990,-8.27,1.05,5.30,0.05,0.22,0.05,-39.49,7.73,32.35
8001,-8.29,0.69,5.40,-0.05,0.16,0.03,-39.49,7.73,32.35
8012,-8.29,0.69,5.40,-0.05,0.16,0.03,-39.49,7.73,32.35
8023,-8.29,0.61,5.41,-0.09,0.11,0.11,-39.49,7.73,32.35
8034,-7.99,0.54,5.54,-0.02,0.10,0.18,-41.21,8.90,34.13
8045,-7.99,0.54,5.54,-0.02,0.10,0.18,-41.21,8.90,34.13
8056,-7.97,0.78,5.66,0.11,0.14,0.17,-41.21,8.90,34.13
8067,-7.97,0.78,5.66,0.11,0.14,0.17,-41.21,8.90,34.13
8078,-8.39,1.01,5.31,0.13,0.17,0.09,-41.21,8.90,34.13
8089,-8.39,1.01,5.31,0.13,0.17,0.09,-41.21,8.90,34.13
8100,-8.38,0.70,5.30,0.08,0.12,0.07,-41.21,8.90,34.13
8111,-8.38,0.70,5.30,0.08,0.12,0.07,-41.21,8.90,34.13
8122,-8.14,0.86,5.17,0.04,0.04,0.19,-41.21,8.90,34.13
8133,-8.14,0.86,5.17,0.04,0.04,0.19,-41.21,8.90,34.13
8144,-8.68,0.94,5.55,0.05,-0.04,0.22,-41.21,8.90,34.13
8155,-8.52,1.21,5.61,-0.14,-0.01,0.14,-39.49,9.20,33.42
8166,-8.52,1.21,5.61,-0.14,-0.01,0.14,-39.49,9.20,33.42
8177,-8.27,0.65,5.47,-0.27,0.05,0.05,-39.49,9.20,33.42
8188,-8.27,0.65,5.47,-0.27,0.05,0.05,-39.49,9.20,33.42
8199,-8.28,0.67,4.82,-0.14,0.06,0.05,-39.49,9.20,33.42
8210,-8.28,0.67,4.82,-0.14,0.06,0.05,-39.49,9.20,33.42
8221,-8.60,0.91,5.32,0.23,0.03,0.07,-39.49,9.20,33.42
8232,-8.60,0.91,5.32,0.23,0.03,0.07,-39.49,9.20,33.42
8243,-9.31,1.55,6.76,0.27,0.11,-0.03,-39.49,9.20,33.42
8254,-8.53,1.08,5.14,-0.12,0.39,-0.38,-39.49,9.20,33.42
8265,-8.53,1.08,5.14,-0.12,0.39,-0.38,-39.49,9.20,33.42
8276,-8.83,1.04,5.87,-0.19,0.45,-0.60,-39.49,9.20,33.42
8287,-8.83,1.04,5.87,-0.19,0.45,-0.60,-39.49,9.20,33.42
8298,-8.54,0.48,4.81,-0.24,0.57,-0.90,-40.35,8.32,31.63
8309,-8.54,0.48,4.81,-0.24,0.57,-0.90,-40.35,8.32,31.63
8320,-7.75,0.12,5.01,-0.19,0.57,-1.12,-40.35,8.32,31.63
8331,-7.75,0.12,5.01,-0.19,0.57,-1.12,-40.35,8.32,31.63
8342,-7.46,0.12,4.13,0.01,0.46,-1.03,-40.35,8.32,31.63
8353,-7.46,0.12,4.13,0.01,0.46,-1.03,-40.35,8.32,31.63
8364,-8.00,0.43,4.68,0.12,0.18,-0.70,-40.35,8.32,31.63
8375,-8.17,0.75,5.23,-0.08,-0.02,-0.43,-40.35,8.32,31.63
8386,-8.17,0.75,5.23,-0.08,-0.02,-0.43,-40.35,8.32,31.63
8397,-7.57,-0.06,5.15,-0.74,-0.10,-0.27,-40.35,8.32,31.63
8408,-7.57,-0.06,5.15,-0.74,-0.10,-0.27,-40.35,8.32,31.63
8419,-8.13,-2.99,3.64,-0.71,-0.31,0.13,-44.42,5.53,32.52
8430,-8.13,-2.99,3.64,-0.71,-0.31,0.13,-44.42,5.53,32.52
8441,-9.25,1.19,6.28,0.01,-0.35,0.74,-44.42,5.53,32.52
8452,-9.25,1.19,6.28,0.01,-0.35,0.74,-44.42,5.53,32.52
8463,-9.16,0.61,4.51,-0.01,0.01,0.39,-44.42,5.53,32.52
8474,-9.50,0.65,5.25,0.09,0.14,0.09,-44.42,5.53,32.52
8485,-9.50,0.65,5.25,0.09,0.14,0.09,-44.42,5.53,32.52
8496,-8.35,0.14,5.19,0.13,0.27,-0.09,-44.42,5.53,32.52
8507,-8.35,0.14,5.19,0.13,0.27,-0.09,-44.42,5.53,32.52
8518,-8.32,-0.25,5.05,0.32,0.26,-0.09,-44.42,5.53,32.52
8529,-8.32,-0.25,5.05,0.32,0.26,-0.09,-44.42,5.53,32.52
8540,-8.05,-0.53,4.72,0.60,0.21,0.05,-43.35,7.73,32.35
8551,-8.05,-0.53,4.72,0.60,0.21,0.05,-43.35,7.73,32.35
8562,-8.89,-0.30,4.91,0.55,0.09,0.23,-43.35,7.73,32.35
8573,-8.89,-0.30,4.91,0.55,0.09,0.23,-43.35,7.73,32.35
8584,-9.20,0.52,4.71,-0.15,-0.26,0.38,-43.35,7.73,32.35
8595,-7.40,1.17,4.29,-0.56,-0.54,0.44,-43.35,7.73,32.35
8606,-7.40,1.17,4.29,-0.56,-0.54,0.44,-43.35,7.73,32.35
8617,-7.61,0.08,4.86,-0.51,-0.70,0.52,-43.35,7.73,32.35
8628,-7.61,0.08,4.86,-0.51,-0.70,0.52,-43.35,7.73,32.35
8639,-6.85,0.71,6.06,-0.37,-0.75,0.67,-43.35,7.73,32.35
8650,-6.85,0.71,6.06,-0.37,-0.75,0.67,-43.35,7.73,32.35
8661,-7.56,0.14,6.26,-0.12,-0.53,0.54,-43.35,7.73,32.35
8672,-7.56,0.14,6.26,-0.12,-0.53,0.54,-43.35,7.73,32.35
8683,-8.15,-0.12,5.68,-0.15,-0.45,0.48,-40.78,8.02,33.06
8695,-8.22,0.92,5.90,-0.29,-0.42,0.55,-40.78,8.02,33.06
8705,-8.22,0.92,5.90,-0.29,-0.42,0.55,-40.78,8.02,33.06
8716,-8.24,1.20,5.95,-0.21,-0.20,0.44,-40.78,8.02,33.06
8727,-8.24,1.20,5.95,-0.21,-0.20,0.44,-40.78,8.02,33.06
8738,-8.06,0.74,5.77,-0.12,-0.01,0.30,-40.78,8.02,33.06
8749,-8.06,0.74,5.77,-0.12,-0.01,0.30,-40.78,8.02,33.06
8760,-8.16,1.27,6.44,0.02,0.25,0.10,-40.78,8.02,33.06
8771,-8.16,1.27,6.44,0.02,0.25,0.10,-40.78,8.02,33.06
8782,-10.84,-0.26,4.71,0.22,0.48,-0.22,-40.78,8.02,33.06
8793,-10.84,-0.26,4.71,0.22,0.48,-0.22,-40.78,8.02,33.06
8804,-8.53,1.48,4.58,-0.00,0.31,-0.22,-38.85,8.76,33.95
8815,-8.86,1.02,5.55,0.05,0.27,-0.33,-38.85,8.76,33.95
8826,-8.86,1.02,5.55,0.05,0.27,-0.33,-38.85,8.76,33.95
8837,-9.79,0.24,4.71,0.02,0.38,-0.42,-38.85,8.76,33.95
8848,-9.79,0.24,4.71,0.02,0.38,-0.42,-38.85,8.76,33.95
8859,-9.81,-0.77,3.82,-0.09,-0.03,-0.40,-38.85,8.76,33.95
8870,-9.81,-0.77,3.82,-0.09,-0.03,-0.40,-38.85,8.76,33.95
8881,-7.15,1.24,4.98,-0.25,-0.39,-0.11,-38.85,8.76,33.95
8892,-7.15,1.24,4.98,-0.25,-0.39,-0.11,-38.85,8.76,33.95
8903,-7.59,-0.05,5.93,-0.13,-0.18,-0.11,-38.85,8.76,33.95
8914,-7.59,-0.05,5.93,-0.13,-0.18,-0.11,-38.85,8.76,33.95
8925,-7.07,0.17,5.52,-0.05,-0.04,0.11,-42.28,7.88,34.31
8936,-6.86,0.87,6.32,0.02,0.00,0.16,-42.28,7.88,34.31
8947,-6.86,0.87,6.32,0.02,0.00,0.16,-42.28,7.88,34.31
8958,-7.07,0.38,6.42,0.09,0.12,-0.03,-42.28,7.88,34.31
8969,-7.07,0.38,6.42,0.09,0.12,-0.03,-42.28,7.88,34.31
8980,-7.56,0.30,6.06,0.06,0.28,-0.12,-42.28,7.88,34.31
8991,-7.56,0.30,6.06,0.06,0.28,-0.12,-42.28,7.88,34.31
9002,-8.47,0.55,5.32,0.09,0.36,-0.08,-42.28,7.88,34.31
9013,-8.47,0.55,5.32,0.09,0.36,-0.08,-42.28,7.88,34.31
9024,-8.47,0.95,4.95,0.03,0.30,-0.04,-42.28,7.88,34.31
9035,-8.51,0.72,4.79,-0.01,0.25,-0.08,-42.28,7.88,34.31
9046,-8.51,0.72,4.79,-0.01,0.25,-0.08,-42.28,7.88,34.31
9057,-8.64,0.39,4.87,0.01,0.21,-0.11,-40.35,6.26,33.77
9068,-8.64,0.39,4.87,0.01,0.21,-0.11,-40.35,6.26,33.77
9079,-8.59,-0.04,5.17,0.08,0.15,-0.08,-40.35,6.26,33.77
9090,-8.59,-0.04,5.17,0.08,0.15,-0.08,-40.35,6.26,33.77
9101,-8.14,0.13,5.31,0.08,0.15,-0.00,-40.35,6.26,33.77
9112,-8.14,0.13,5.31,0.08,0.15,-0.00,-40.35,6.26,33.77
9123,-8.49,0.33,5.12,0.12,0.21,0.03,-40.35,6.26,33.77
9134,-8.49,0.33,5.12,0.12,0.21,0.03,-40.35,6.26,33.77
9145,-8.21,0.80,5.07,0.13,0.23,0.04,-40.35,6.26,33.77
9156,-9.63,0.33,4.41,0.18,0.26,0.00,-40.35,6.26,33.77
9167,-9.63,0.33,4.41,0.18,0.26,0.00,-40.35,6.26,33.77
9178,-8.84,1.11,4.86,0.01,0.11,0.06,-40.99,9.05,32.17
9189,-8.84,1.11,4.86,0.01,0.11,0.06,-40.99,9.05,32.17
9200,-8.52,0.23,5.00,-0.01,0.10,0.06,-40.99,9.05,32.17
9211,-8.52,0.23,5.00,-0.01,0.10,0.06,-40.99,9.05,32.17
9222,-8.37,0.95,5.05,0.05,0.13,0.19,-40.99,9.05,32.17
9233,-8.37,0.95,5.05,0.05,0.13,0.19,-40.99,9.05,32.17
9244,-7.99,0.39,4.55,0.12,0.12,0.23,-40.99,9.05,32.17
9255,-8.28,1.25,4.31,0.30,-0.01,0.37,-40.99,9.05,32.17
9266,-8.28,1.25,4.31,0.30,-0.01,0.37,-40.99,9.05,32.17
9277,-8.53,0.81,4.77,0.43,-0.16,0.34,-40.99,9.05,32.17
9288,-8.53,0.81,4.77,0.43,-0.16,0.34,-40.99,9.05,32.17
9299,-8.62,0.83,4.72,0.24,-0.25,0.16,-41.63,10.37,31.99
9310,-8.62,0.83,4.72,0.24,-0.25,0.16,-41.63,10.37,31.99
9321,-8.89,1.01,5.09,-0.01,-0.21,-0.09,-41.63,10.37,31.99
9332,-8.89,1.01,5.09,-0.01,-0.21,-0.09,-41.63,10.37,31.99
9343,-9.27,1.20,5.03,-0.22,-0.10,-0.35,-41.63,10.37,31.99
9354,-9.27,1.20,5.03,-0.22,-0.10,-0.35,-41.63,10.37,31.99
9365,-9.09,1.02,4.47,-0.27,0.08,-0.55,-41.63,10.37,31.99
9376,-8.63,0.28,3.91,0.16,0.21,-0.47,-41.63,10.37,31.99
9387,-8.63,0.28,3.91,0.16,0.21,-0.47,-41.63,10.37,31.99
9398,-8.65,0.52,5.83,0.81,0.25,-0.15,-41.63,10.37,31.99
9409,-8.65,0.52,5.83,0.81,0.25,-0.15,-41.63,10.37,31.99
9420,-8.36,-0.11,4.56,0.98,0.40,0.19,-40.99,9.93,30.74
9431,-8.36,-0.11,4.56,0.98,0.40,0.19,-40.99,9.93,30.74
9442,-9.73,1.73,3.76,0.62,0.29,0.45,-40.99,9.93,30.74
9453,-9.73,1.73,3.76,0.62,0.29,0.45,-40.99,9.93,30.74
9464,-9.05,1.02,4.13,-0.35,-0.29,0.47,-40.99,9.93,30.74
9475,-7.40,2.29,5.15,-0.85,-0.49,0.56,-40.99,9.93,30.74
9486,-7.40,2.29,5.15,-0.85,-0.49,0.56,-40.99,9.93,30.74
9497,-7.21,0.60,6.39,-0.97,-0.37,0.21,-40.99,9.93,30.74
9508,-7.21,0.60,6.39,-0.97,-0.37,0.21,-40.99,9.93,30.74
9519,-6.88,-0.37,6.49,-0.84,-0.15,-0.00,-40.99,9.93,30.74
9530,-6.88,-0.37,6.49,-0.84,-0.15,-0.00,-40.99,9.93,30.74
9541,-7.86,-0.22,5.96,-0.39,0.14,-0.05,-40.99,9.93,30.74
9552,-7.86,-0.22,5.96,-0.39,0.14,-0.05,-40.99,9.93,30.74
9563,-8.82,1.05,4.51,-0.02,0.30,0.01,-40.78,7.44,32.35
9574,-8.82,1.05,4.51,-0.02,0.30,0.01,-40.78,7.44,32.35
9585,-9.22,1.63,4.32,0.05,0.25,-0.00,-40.78,7.44,32.35
9596,-8.93,0.96,4.50,-0.03,0.16,-0.10,-40.78,7.44,32.35
9607,-8.93,0.96,4.50,-0.03,0.16,-0.10,-40.78,7.44,32.35
9618,-8.68,0.34,5.00,-0.02,0.08,-0.10,-40.78,7.44,32.35
9629,-8.68,0.34,5.00,-0.02,0.08,-0.10,-40.78,7.44,32.35
9640,-8.43,0.26,5.13,-0.01,0.07,-0.02,-40.78,7.44,32.35
9651,-8.43,0.26,5.13,-0.01,0.07,-0.02,-40.78,7.44,32.35
9662,-8.64,0.56,4.73,0.05,0.08,0.05,-40.78,7.44,32.35
9673,-8.64,0.56,4.73,0.05,0.08,0.05,-40.78,7.44,32.35
9684,-8.57,1.19,4.74,0.05,0.05,0.11,-40.13,9.05,31.81
9695,-8.42,1.23,4.87,-0.01,0.05,0.08,-40.13,9.05,31.81
9706,-8.42,1.23,4.87,-0.01,0.05,0.08,-40.13,9.05,31.81
9717,-8.59,0.76,4.82,-0.04,0.01,0.04,-40.13,9.05,31.81
9728,-8.59,0.76,4.82,-0.04,0.01,0.04,-40.13,9.05,31.81
9739,-8.47,0.70,4.87,-0.05,-0.04,0.10,-40.13,9.05,31.81
9750,-8.47,0.70,4.87,-0.05,-0.04,0.10,-40.13,9.05,31.81
9761,-8.42,0.68,4.83,-0.07,-0.06,0.11,-40.13,9.05,31.81
9772,-8.42,0.68,4.83,-0.07,-0.06,0.11,-40.13,9.05,31.81
9783,-8.44,0.92,4.66,-0.05,-0.08,0.08,-40.13,9.05,31.81
9794,-8.44,0.92,4.66,-0.05,-0.08,0.08,-40.13,9.05,31.81
9805,-8.81,0.89,5.12,-0.00,-0.11,0.02,-40.13,9.05,31.81
9816,-8.48,0.51,4.30,0.07,-0.10,-0.08,-40.13,9.05,31.81
9827,-8.48,0.51,4.30,0.07,-0.10,-0.08,-40.13,9.05,31.81
9839,-9.10,0.78,5.06,0.14,-0.14,-0.17,-40.13,9.05,31.81
9849,-9.10,0.78,5.06,0.14,-0.14,-0.17,-40.13,9.05,31.81
9860,-8.96,1.83,4.98,0.04,-0.01,-0.33,-40.13,9.05,31.81
9871,-8.96,1.83,4.98,0.04,-0.01,-0.33,-40.13,9.05,31.81
9882,-8.75,0.60,4.92,0.04,0.10,-0.43,-40.13,9.05,31.81
9893,-8.75,0.60,4.92,0.04,0.10,-0.43,-40.13,9.05,31.81
9904,-8.63,1.36,5.05,0.06,0.17,-0.34,-40.13,9.05,31.81
9915,-8.63,1.36,5.05,0.06,0.17,-0.34,-40.13,9.05,31.81
9926,-8.27,0.25,4.72,0.22,0.22,-0.26,-40.13,9.05,31.81
9937,-8.33,0.70,5.38,0.38,0.24,-0.01,-41.42,9.05,31.45
9948,-8.33,0.70,5.38,0.38,0.24,-0.01,-41.42,9.05,31.45
9959,-8.04,0.74,4.41,0.26,0.29,0.16,-41.42,9.05,31.45
9970,-8.04,0.74,4.41,0.26,0.29,0.16,-41.42,9.05,31.45
9981,-8.00,0.73,4.36,0.04,0.10,0.26,-41.42,9.05,31.45
9992,-8.00,0.73,4.36,0.04,0.10,0.26,-41.42,9.05,31.45
10003,-8.29,1.09,4.61,-0.11,-0.07,0.30,-41.42,9.05,31.45
10014,-8.29,1.09,4.61,-0.11,-0.07,0.30,-41.42,9.05,31.45
10025,-8.34,1.03,4.75,-0.14,-0.20,0.26,-41.42,9.05,31.45
10036,-8.87,0.81,5.29,-0.17,-0.24,0.18,-41.42,9.05,31.45
10047,-8.87,0.81,5.29,-0.17,-0.24,0.18,-41.42,9.05,31.45
10058,-8.81,0.17,4.21,-0.22,-0.15,0.13,-41.42,9.93,31.45
10069,-8.81,0.17,4.21,-0.22,-0.15,0.13,-41.42,9.93,31.45
10080,-9.06,0.89,5.31,-0.12,-0.12,0.14,-41.42,9.93,31.45
10091,-9.06,0.89,5.31,-0.12,-0.12,0.14,-41.42,9.93,31.45
10102,-8.78,0.81,4.24,-0.04,-0.01,0.07,-41.42,9.93,31.45
10113,-8.78,0.81,4.24,-0.04,-0.01,0.07,-41.42,9.93,31.45
10124,-9.58,1.43,5.73,0.02,-0.00,-0.00,-41.42,9.93,31.45
10136,-9.58,1.43,5.73,0.02,-0.00,-0.00,-41.42,9.93,31.45
10146,-8.48,0.43,4.44,-0.07,0.22,-0.23,-41.42,9.93,31.45
10157,-8.57,0.85,4.37,0.14,0.26,-0.16,-41.42,9.93,31.45
10168,-8.57,0.85,4.37,0.14,0.26,-0.16,-41.42,9.93,31.45
10179,-8.37,1.32,5.21,0.33,0.27,-0.05,-41.21,9.78,30.20
10190,-8.37,1.32,5.21,0.33,0.27,-0.05,-41.21,9.78,30.20
10201,-8.53,1.03,5.36,0.26,0.29,-0.03,-41.21,9.78,30.20
10212,-8.53,1.03,5.36,0.26,0.29,-0.03,-41.21,9.78,30.20
10223,-8.25,1.08,4.65,0.08,0.30,0.03,-41.21,9.78,30.20
10234,-8.25,1.08,4.65,0.08,0.30,0.03,-41.21,9.78,30.20
10245,-8.11,0.06,4.12,-0.04,0.18,0.07,-41.21,9.78,30.20
10256,-8.41,0.89,4.15,-0.01,-0.02,0.30,-41.21,9.78,30.20
10267,-8.41,0.89,4.15,-0.01,-0.02,0.30,-41.21,9.78,30.20
10278,-8.68,0.62,4.50,0.06,-0.17,0.34,-41.21,9.78,30.20
10289,-8.68,0.62,4.50,0.06,-0.17,0.34,-41.21,9.78,30.20
10300,-8.51,1.06,4.83,0.06,-0.24,0.35,-41.21,9.78,30.20
10311,-8.51,1.06,4.83,0.06,-0.24,0.35,-41.21,9.78,30.20
10322,-8.83,1.63,4.81,-0.05,-0.21,0.25,-42.28,9.34,31.10
10333,-8.83,1.63,4.81,-0.05,-0.21,0.25,-42.28,9.34,31.10
10344,-8.98,1.28,4.95,-0.06,-0.12,0.08,-42.28,9.34,31.10
10355,-8.98,1.28,4.95,-0.06,-0.12,0.08,-42.28,9.34,31.10
10366,-8.74,0.73,4.52,-0.01,-0.05,0.00,-42.28,9.34,31.10
10377,-9.35,1.65,5.72,0.06,-0.01,-0.03,-42.28,9.34,31.10
10388,-9.35,1.65,5.72,0.06,-0.01,-0.03,-42.28,9.34,31.10
10399,-8.72,1.06,4.92,0.01,0.17,-0.18,-42.28,9.34,31.10
10410,-8.72,1.06,4.92,0.01,0.17,-0.18,-42.28,9.34,31.10
10421,-8.66,0.92,4.49,0.13,0.26,-0.20,-42.28,9.34,31.10
10432,-8.66,0.92,4.49,0.13,0.26,-0.20,-42.28,9.34,31.10
10443,-8.37,1.35,3.93,0.25,0.31,-0.13,-42.49,9.49,31.63
10454,-8.37,1.35,3.93,0.25,0.31,-0.13,-42.49,9.49,31.63
10465,-8.60,1.44,5.39,0.34,0.28,-0.05,-42.49,9.49,31.63
10476,-8.14,0.68,4.12,0.19,0.30,0.02,-42.49,9.49,31.63
10487,-8.14,0.68,4.12,0.19,0.30,0.02,-42.49,9.49,31.63
10498,-7.96,0.41,3.65,-0.02,0.12,0.18,-42.49,9.49,31.63
10509,-7.96,0.41,3.65,-0.02,0.12,0.18,-42.49,9.49,31.63
10520,-8.35,0.79,4.26,-0.10,-0.12,0.38,-42.49,9.49,31.63
10531,-8.35,0.79,4.26,-0.10,-0.12,0.38,-42.49,9.49,31.63
10542,-8.99,1.10,5.09,-0.15,-0.27,0.40,-42.49,9.49,31.63
10553,-8.99,1.10,5.09,-0.15,-0.27,0.40,-42.49,9.49,31.63
10564,-9.34,2.04,4.91,-0.29,-0.20,0.19,-40.99,11.40,30.38
10575,-9.34,2.04,4.91,-0.29,-0.20,0.19,-40.99,11.40,30.38
10586,-8.86,1.32,3.70,-0.19,-0.08,-0.04,-40.99,11.40,30.38
10597,-9.38,1.37,5.51,0.04,-0.08,-0.06,-40.99,11.40,30.38
10608,-9.38,1.37,5.51,0.04,-0.08,-0.06,-40.99,11.40,30.38
10619,-8.79,0.76,5.01,0.17,0.16,-0.08,-40.99,11.40,30.38
10631,-8.79,0.76,5.01,0.17,0.16,-0.08,-40.99,11.40,30.38
10641,-8.75,1.34,4.25,0.36,0.37,0.11,-40.99,11.40,30.38
10652,-8.75,1.34,4.25,0.36,0.37,0.11,-40.99,11.40,30.38
10663,-8.55,1.91,3.41,0.48,0.50,0.32,-40.99,11.40,30.38
10674,-8.55,1.91,3.41,0.48,0.50,0.32,-40.99,11.40,30.38
10685,-8.59,2.56,3.20,0.18,0.33,0.28,-40.78,10.37,29.85
10696,-12.46,3.09,-0.01,-0.60,-0.32,0.15,-40.78,10.37,29.85
10707,-12.46,3.09,-0.01,-0.60,-0.32,0.15,-40.78,10.37,29.85
10718,-10.00,7.57,1.31,-1.57,-1.73,0.04,-40.78,10.37,29.85
10729,-10.00,7.57,1.31,-1.57,-1.73,0.04,-40.78,10.37,29.85
10740,-7.70,7.47,2.55,-2.83,-2.66,-0.85,-40.78,10.37,29.85
10751,-7.70,7.47,2.55,-2.83,-2.66,-0.85,-40.78,10.37,29.85
10762,-9.50,4.46,5.25,-3.29,-2.89,-1.91,-40.78,10.37,29.85
10773,-9.50,4.46,5.25,-3.29,-2.89,-1.91,-40.78,10.37,29.85
10784,-6.67,-0.94,6.69,-3.36,-2.91,-2.78,-40.78,10.37,29.85
10795,-6.67,-0.94,6.69,-3.36,-2.91,-2.78,-40.78,10.37,29.85
10806,-3.93,-6.04,9.12,-3.00,-2.29,-2.70,-40.78,10.37,29.85
10817,-3.81,-7.29,9.24,-1.70,-1.00,-1.62,-34.35,-1.95,42.34
10828,-3.81,-7.29,9.24,-1.70,-1.00,-1.62,-34.35,-1.95,42.34
10844,-6.09,-6.23,7.61,-0.14,0.06,-0.64,-34.35,-1.95,42.34
10850,-6.09,-6.23,7.61,-0.14,0.06,-0.64,-34.35,-1.95,42.34
10861,-5.78,-5.18,6.88,0.59,0.49,-0.02,-34.35,-1.95,42.34
10872,-5.78,-5.18,6.88,0.59,0.49,-0.02,-34.35,-1.95,42.34
10883,-5.86,-3.81,6.82,1.17,0.79,0.38,-34.35,-1.95,42.34
10894,-5.86,-3.81,6.82,1.17,0.79,0.38,-34.35,-1.95,42.34
10905,-6.09,-2.60,5.87,1.48,0.92,0.48,-34.35,-1.95,42.34
10916,-6.09,-2.60,5.87,1.48,0.92,0.48,-34.35,-1.95,42.34
10927,-6.55,-0.89,5.23,1.45,0.76,0.39,-34.35,-1.95,42.34
10938,-6.46,-1.24,5.56,1.31,0.51,0.10,-36.49,0.69,40.55
10949,-6.46,-1.24,5.56,1.31,0.51,0.10,-36.49,0.69,40.55
10960,-6.15,-1.32,5.61,1.09,0.42,0.05,-36.49,0.69,40.55
10971,-6.15,-1.32,5.61,1.09,0.42,0.05,-36.49,0.69,40.55
10982,-6.75,-1.40,5.73,1.05,0.40,0.03,-36.49,0.69,40.55
10993,-6.75,-1.40,5.73,1.05,0.40,0.03,-36.49,0.69,40.55
11004,-7.03,-1.14,5.62,1.04,0.36,-0.03,-36.49,0.69,40.55
11015,-7.03,-1.14,5.62,1.04,0.36,-0.03,-36.49,0.69,40.55
11026,-6.76,-0.66,5.21,0.88,0.27,-0.13,-36.49,0.69,40.55
11037,-6.31,-0.95,5.24,0.77,0.23,-0.17,-36.49,0.69,40.55
11048,-6.31,-0.95,5.24,0.77,0.23,-0.17,-36.49,0.69,40.55
11060,-6.91,-1.81,6.91,0.65,0.35,0.01,-37.78,4.50,36.98
11070,-6.91,-1.81,6.91,0.65,0.35,0.01,-37.78,4.50,36.98
11081,-11.65,-2.70,11.26,1.04,0.73,0.48,-37.78,4.50,36.98
11092,-11.65,-2.70,11.26,1.04,0.73,0.48,-37.78,4.50,36.98
11103,-10.13,2.53,4.21,1.07,0.78,0.95,-37.78,4.50,36.98
11114,-10.13,2.53,4.21,1.07,0.78,0.95,-37.78,4.50,36.98
11125,-6.64,3.77,3.99,0.10,-0.05,0.50,-37.78,4.50,36.98
11136,-6.64,3.77,3.99,0.10,-0.05,0.50,-37.78,4.50,36.98
11147,-7.78,-0.61,7.52,0.13,-0.07,0.08,-37.78,4.50,36.98
11158,-8.39,1.17,4.37,0.28,0.40,0.42,-37.78,4.50,36.98
11169,-8.39,1.17,4.37,0.28,0.40,0.42,-37.78,4.50,36.98
11180,-8.56,1.32,5.63,0.21,0.15,0.29,-37.78,4.50,36.98
11191,-8.56,1.32,5.63,0.21,0.15,0.29,-37.78,4.50,36.98
11202,-8.57,0.51,5.85,0.15,-0.01,0.14,-39.06,7.73,33.06
11213,-8.57,0.51,5.85,0.15,-0.01,0.14,-39.06,7.73,33.06
11224,-7.65,0.34,5.61,0.08,-0.05,0.18,-39.06,7.73,33.06
11235,-7.65,0.34,5.61,0.08,-0.05,0.18,-39.06,7.73,33.06
11246,-7.83,0.36,6.06,0.06,-0.02,0.12,-39.06,7.73,33.06
11257,-8.37,0.64,5.57,0.10,0.07,0.01,-39.06,7.73,33.06
11268,-8.37,0.64,5.57,0.10,0.07,0.01,-39.06,7.73,33.06
11279,-8.19,0.61,5.46,0.07,0.07,-0.00,-39.06,7.73,33.06
11290,-8.19,0.61,5.46,0.07,0.07,-0.00,-39.06,7.73,33.06
11301,-7.84,0.83,5.54,0.08,0.04,0.06,-39.06,7.73,33.06
11312,-7.84,0.83,5.54,0.08,0.04,0.06,-39.06,7.73,33.06
11323,-8.08,0.89,5.87,0.15,0.03,-0.02,-38.42,8.76,33.59
11334,-8.08,0.89,5.87,0.15,0.03,-0.02,-38.42,8.76,33.59
11345,-7.97,0.60,5.72,0.13,0.04,-0.13,-38.42,8.76,33.59
11356,-7.97,0.60,5.72,0.13,0.04,-0.13,-38.42,8.76,33.59
11367,-7.70,0.69,5.50,0.15,0.06,-0.06,-38.42,8.76,33.59
11378,-7.76,1.02,5.87,0.18,0.08,0.00,-38.42,8.76,33.59
11389,-7.76,1.02,5.87,0.18,0.08,0.00,-38.42,8.76,33.59
11400,-8.34,0.85,5.89,0.13,0.15,-0.03,-38.42,8.76,33.59
11411,-8.34,0.85,5.89,0.13,0.15,-0.03,-38.42,8.76,33.59
11422,-8.54,0.45,5.56,0.12,0.14,-0.11,-38.42,8.76,33.59
11433,-8.54,0.45,5.56,0.12,0.14,-0.11,-38.42,8.76,33.59
11444,-8.63,0.63,5.26,0.20,0.10,-0.06,-37.99,7.00,33.24
11455,-8.63,0.63,5.26,0.20,0.10,-0.06,-37.99,7.00,33.24
11466,-8.24,1.22,5.20,0.09,0.04,0.06,-37.99,7.00,33.24
11477,-8.08,1.30,5.46,-0.02,0.04,0.07,-37.99,7.00,33.24
11488,-8.08,1.30,5.46,-0.02,0.04,0.07,-37.99,7.00,33.24
11499,-8.14,0.57,5.73,-0.01,0.09,-0.01,-37.99,7.00,33.24
11510,-8.14,0.57,5.73,-0.01,0.09,-0.01,-37.99,7.00,33.24
11521,-7.90,0.02,5.87,0.05,0.09,-0.04,-37.99,7.00,33.24
11532,-7.90,0.02,5.87,0.05,0.09,-0.04,-37.99,7.00,33.24
11543,-7.83,0.27,5.78,0.05,0.10,0.07,-37.99,7.00,33.24
11554,-7.83,0.27,5.78,0.05,0.10,0.07,-37.99,7.00,33.24
11565,-8.04,0.75,5.69,0.05,0.10,0.09,-37.99,7.00,33.24
11577,-8.04,0.75,5.69,0.05,0.10,0.09,-37.99,7.00,33.24
11587,-8.23,0.99,5.43,0.06,0.10,0.02,-38.42,9.34,33.24
11598,-8.38,0.92,5.29,0.03,0.07,0.01,-38.42,9.34,33.24
11609,-8.38,0.92,5.29,0.03,0.07,0.01,-38.42,9.34,33.24
11620,-8.01,0.56,5.52,-0.01,0.01,0.07,-38.42,9.34,33.24
11631,-8.01,0.56,5.52,-0.01,0.01,0.07,-38.42,9.34,33.24
11642,-7.87,1.08,5.59,-0.02,0.02,0.11,-38.42,9.34,33.24
11653,-7.87,1.08,5.59,-0.02,0.02,0.11,-38.42,9.34,33.24
11664,-8.22,0.73,5.74,0.00,0.05,0.00,-38.42,9.34,33.24
11675,-8.22,0.73,5.74,0.00,0.05,0.00,-38.42,9.34,33.24
11686,-8.05,0.48,5.48,0.01,0.08,-0.04,-38.42,9.34,33.24
11697,-8.10,0.71,5.48,0.07,0.10,0.03,-38.42,9.34,33.24
11708,-8.10,0.71,5.48,0.07,0.10,0.03,-41.42,8.76,32.52
11719,-8.17,1.03,5.53,0.04,0.11,0.03,-41.42,8.76,32.52
11730,-8.17,1.03,5.53,0.04,0.11,0.03,-41.42,8.76,32.52
11741,-7.99,1.07,5.38,0.00,0.13,-0.01,-41.42,8.76,32.52
11752,-7.99,1.07,5.38,0.00,0.13,-0.01,-41.42,8.76,32.52
11763,-8.00,0.74,5.73,0.02,0.17,-0.03,-41.42,8.76,32.52
11774,-8.00,0.74,5.73,0.02,0.17,-0.03,-41.42,8.76,32.52
11785,-8.28,0.63,5.69,-0.00,0.25,-0.04,-41.42,8.76,32.52
11796,-8.28,0.63,5.69,-0.00,0.25,-0.04,-41.42,8.76,32.52
11807,-9.16,0.24,4.71,-0.00,0.23,-0.03,-41.42,8.76,32.52
11818,-9.11,1.35,4.77,0.04,0.13,0.04,-39.06,8.32,31.99
11829,-9.11,1.35,4.77,0.04,0.13,0.04,-39.06,8.32,31.99
11840,-8.61,1.07,5.55,0.19,0.23,-0.06,-39.06,8.32,31.99
11851,-8.61,1.07,5.55,0.19,0.23,-0.06,-39.06,8.32,31.99
11862,-8.02,0.39,4.84,0.32,0.33,-0.06,-39.06,8.32,31.99
11873,-8.02,0.39,4.84,0.32,0.33,-0.06,-39.06,8.32,31.99
11884,-7.96,0.38,6.06,0.41,0.18,0.06,-39.06,8.32,31.99
11895,-7.96,0.38,6.06,0.41,0.18,0.06,-39.06,8.32,31.99
11906,-7.81,0.90,6.18,0.23,0.09,0.11,-39.06,8.32,31.99
11917,-7.81,0.90,6.18,0.23,0.09,0.11,-39.06,8.32,31.99
11928,-7.32,0.64,4.87,-0.08,0.03,0.17,-39.06,8.32,31.99
11939,-8.21,1.59,4.59,-0.04,-0.18,0.41,-39.92,9.78,31.99
11950,-8.21,1.59,4.59,-0.04,-0.18,0.41,-39.92,9.78,31.99
11961,-8.64,1.54,4.71,0.03,-0.33,0.32,-39.92,9.78,31.99
11972,-8.64,1.54,4.71,0.03,-0.33,0.32,-39.92,9.78,31.99
11983,-9.23,1.10,5.26,-0.00,-0.22,0.16,-39.92,9.78,31.99
11994,-9.23,1.10,5.26,-0.00,-0.22,0.16,-39.92,9.78,31.99
12005,-8.87,0.51,5.14,-0.10,-0.05,0.05,-39.92,9.78,31.99
12016,-8.87,0.51,5.14,-0.10,-0.05,0.05,-39.92,9.78,31.99
12028,-9.19,1.33,5.67,-0.17,0.08,0.01,-39.92,9.78,31.99
12038,-9.18,1.08,4.67,-0.31,0.19,-0.15,-39.92,9.78,31.99
12049,-9.18,1.08,4.67,-0.31,0.19,-0.15,-39.92,9.78,31.99
12060,-7.47,0.89,4.87,-0.28,0.06,-0.12,-39.92,9.78,31.99
12071,-7.47,0.89,4.87,-0.28,0.06,-0.12,-39.92,9.78,31.99
12082,-7.15,1.44,5.74,-0.09,0.03,-0.00,-41.85,8.46,31.81
12093,-7.15,1.44,5.74,-0.09,0.03,-0.00,-41.85,8.46,31.81
12104,-7.57,0.82,5.74,0.00,0.12,-0.05,-41.85,8.46,31.81
12115,-7.57,0.82,5.74,0.00,0.12,-0.05,-41.85,8.46,31.81
12126,-7.86,0.75,5.50,0.01,0.21,0.00,-41.85,8.46,31.81
12137,-7.86,0.75,5.50,0.01,0.21,0.00,-41.85,8.46,31.81
12148,-8.88,0.57,4.97,0.00,0.17,0.07,-41.85,8.46,31.81
12159,-8.57,1.19,4.60,-0.01,0.05,0.15,-41.85,8.46,31.81
12170,-8.57,1.19,4.60,-0.01,0.05,0.15,-41.85,8.46,31.81
12181,-8.48,1.37,4.81,0.01,0.02,0.14,-41.85,8.46,31.81
12192,-8.48,1.37,4.81,0.01,0.02,0.14,-41.85,8.46,31.81
12203,-8.35,1.36,4.84,0.05,0.02,0.12,-40.99,10.22,32.17
12214,-8.35,1.36,4.84,0.05,0.02,0.12,-40.99,10.22,32.17
12225,-8.15,1.13,5.19,0.15,0.01,0.13,-40.99,10.22,32.17
12236,-8.15,1.13,5.19,0.15,0.01,0.13,-40.99,10.22,32.17
12247,-8.12,1.47,5.30,0.04,-0.02,0.12,-40.99,10.22,32.17
12258,-8.00,0.66,4.87,0.04,-0.06,0.12,-40.99,10.22,32.17
12269,-8.00,0.66,4.87,0.04,-0.06,0.12,-40.99,10.22,32.17
12280,-8.47,1.13,5.74,0.11,-0.15,0.16,-40.99,10.22,32.17
12291,-8.47,1.13,5.74,0.11,-0.15,0.16,-40.99,10.22,32.17
12302,-8.50,1.18,4.94,0.02,-0.13,0.07,-40.99,10.22,32.17
12313,-8.50,1.18,4.94,0.02,-0.13,0.07,-40.99,10.22,32.17
12324,-8.62,1.51,4.86,-0.06,-0.12,-0.03,-39.06,9.49,32.70
12335,-8.62,1.51,4.86,-0.06,-0.12,-0.03,-39.06,9.49,32.70
12347,-8.84,1.57,5.57,-0.07,-0.08,-0.20,-39.06,9.49,32.70
12357,-8.84,1.57,5.57,-0.07,-0.08,-0.20,-39.06,9.49,32.70
12368,-8.42,0.96,4.92,-0.03,0.05,-0.31,-39.06,9.49,32.70
12379,-8.77,1.24,5.70,0.12,0.11,-0.26,-39.06,9.49,32.70
12390,-8.77,1.24,5.70,0.12,0.11,-0.26,-39.06,9.49,32.70
12401,-8.20,0.94,4.76,0.36,0.26,-0.21,-39.06,9.49,32.70
12412,-8.20,0.94,4.76,0.36,0.26,-0.21,-39.06,9.49,32.70
12423,-8.09,1.00,5.78,0.50,0.25,-0.08,-39.06,9.49,32.70
12434,-8.09,1.00,5.78,0.50,0.25,-0.08,-39.06,9.49,32.70
12445,-8.02,1.30,5.21,0.38,0.26,0.04,-39.06,9.49,32.70
12456,-8.02,1.30,5.21,0.38,0.26,0.04,-39.06,9.49,32.70
12467,-8.08,1.12,5.53,0.18,0.18,0.06,-40.78,10.37,30.92
12478,-7.65,0.36,4.34,0.06,0.09,0.12,-40.78,10.37,30.92
12489,-7.65,0.36,4.34,0.06,0.09,0.12,-40.78,10.37,30.92
12500,-8.51,1.29,5.33,-0.05,-0.10,0.38,-40.78,10.37,30.92
12511,-8.51,1.29,5.33,-0.05,-0.10,0.38,-40.78,10.37,30.92
12522,-8.77,1.12,5.20,-0.21,-0.16,0.39,-40.78,10.37,30.92
12533,-8.77,1.12,5.20,-0.21,-0.16,0.39,-40.78,10.37,30.92
12544,-9.14,1.94,5.28,-0.33,-0.08,0.28,-40.78,10.37,30.92
12555,-9.14,1.94,5.28,-0.33,-0.08,0.28,-40.78,10.37,30.92
12566,-9.08,0.92,4.52,-0.29,0.03,0.05,-40.78,10.37,30.92
12577,-9.08,0.92,4.52,-0.29,0.03,0.05,-40.78,10.37,30.92
12588,-8.79,1.76,5.27,-0.06,0.13,-0.03,-39.92,11.25,31.28
12599,-8.06,1.29,4.48,0.19,0.24,-0.18,-39.92,11.25,31.28
12615,-8.06,1.29,4.48,0.19,0.24,-0.18,-39.92,11.25,31.28
12621,-7.76,1.39,4.54,0.48,0.17,-0.13,-39.92,11.25,31.28
12632,-7.76,1.39,4.54,0.48,0.17,-0.13,-39.92,11.25,31.28
12643,-8.13,1.44,5.60,0.58,0.01,-0.01,-39.92,11.25,31.28
12654,-8.13,1.44,5.60,0.58,0.01,-0.01,-39.92,11.25,31.28
12665,-8.24,1.75,5.76,0.23,0.00,0.01,-39.92,11.25,31.28
12676,-8.24,1.75,5.76,0.23,0.00,0.01,-39.92,11.25,31.28
12687,-7.93,1.19,4.17,-0.28,-0.01,0.01,-39.92,11.25,31.28
12698,-8.66,1.40,5.53,-0.52,-0.17,0.12,-39.92,11.25,31.28
12709,-8.66,1.40,5.53,-0.52,-0.17,0.12,-40.99,10.52,29.67
12720,-9.05,1.28,5.42,-0.49,-0.08,0.24,-40.99,10.52,29.67
12732,-9.05,1.28,5.42,-0.49,-0.08,0.24,-40.99,10.52,29.67
12742,-8.79,1.12,4.35,-0.54,0.06,0.20,-40.99,10.52,29.67
12753,-8.79,1.12,4.35,-0.54,0.06,0.20,-40.99,10.52,29.67
12764,-8.88,1.53,4.58,-0.14,0.09,0.11,-40.99,10.52,29.67
12775,-8.88,1.53,4.58,-0.14,0.09,0.11,-40.99,10.52,29.67
12786,-8.76,2.20,5.21,0.29,0.16,-0.05,-40.99,10.52,29.67
12797,-8.76,2.20,5.21,0.29,0.16,-0.05,-40.99,10.52,29.67
12808,-8.08,0.82,4.62,0.43,0.21,-0.19,-40.99,10.52,29.67
12819,-8.57,1.66,5.38,0.25,0.11,-0.11,-40.99,10.52,29.67
12830,-8.57,1.66,5.38,0.25,0.11,-0.11,-40.99,10.52,29.67
12841,-8.71,1.58,4.74,-0.08,0.16,-0.07,-40.99,10.52,30.03
12857,-8.71,1.58,4.74,-0.08,0.16,-0.07,-40.99,10.52,30.03
12863,-9.04,0.94,3.67,-0.39,-0.00,0.05,-40.99,10.52,30.03
12874,-9.04,0.94,3.67,-0.39,-0.00,0.05,-40.99,10.52,30.03
12885,-7.56,2.19,5.09,-0.55,-0.31,0.28,-40.99,10.52,30.03
12896,-7.56,2.19,5.09,-0.55,-0.31,0.28,-40.99,10.52,30.03
12907,-7.72,1.16,5.73,-0.45,-0.15,0.20,-40.99,10.52,30.03
12918,-7.72,1.16,5.73,-0.45,-0.15,0.20,-40.99,10.52,30.03
12929,-7.57,0.53,5.61,-0.29,0.01,0.12,-40.99,10.52,30.03
12940,-7.85,0.51,5.64,-0.05,0.07,0.10,-40.99,10.52,30.03
12951,-7.85,0.51,5.64,-0.05,0.07,0.10,-40.99,10.52,30.03
12962,-8.11,1.41,5.00,0.13,0.15,0.13,-39.49,10.96,31.63
12973,-8.11,1.41,5.00,0.13,0.15,0.13,-39.49,10.96,31.63
12984,-9.60,1.10,4.47,0.13,0.14,0.10,-39.49,10.96,31.63
12995,-9.60,1.10,4.47,0.13,0.14,0.10,-39.49,10.96,31.63
13006,-8.50,1.63,4.52,-0.04,-0.07,0.12,-39.49,10.96,31.63
13017,-8.50,1.63,4.52,-0.04,-0.07,0.12,-39.49,10.96,31.63
13028,-8.66,1.25,5.28,-0.05,-0.17,0.07,-39.49,10.96,31.63
13039,-8.62,0.77,5.20,-0.01,-0.15,0.02,-39.49,10.96,31.63
13050,-8.62,0.77,5.20,-0.01,-0.15,0.02,-39.49,10.96,31.63
13061,-8.82,1.53,5.03,0.03,-0.13,0.00,-39.49,10.96,31.63
13072,-8.82,1.53,5.03,0.03,-0.13,0.00,-39.49,10.96,31.63
13083,-8.80,1.35,5.27,0.04,-0.10,-0.19,-39.49,10.08,31.28
13095,-8.80,1.35,5.27,0.04,-0.10,-0.19,-39.49,10.08,31.28
13105,-8.54,1.37,5.16,0.10,0.03,-0.28,-39.49,10.08,31.28
13116,-8.54,1.37,5.16,0.10,0.03,-0.28,-39.49,10.08,31.28
13127,-8.81,2.07,5.53,0.20,0.09,-0.27,-39.49,10.08,31.28
13138,-8.81,2.07,5.53,0.20,0.09,-0.27,-39.49,10.08,31.28
13149,-8.23,1.19,4.70,0.31,0.18,-0.30,-39.49,10.08,31.28
13160,-8.11,1.80,4.85,0.33,0.21,-0.22,-39.49,10.08,31.28
13171,-8.11,1.80,4.85,0.33,0.21,-0.22,-39.49,10.08,31.28
13182,-8.10,1.29,5.18,0.31,0.23,-0.08,-39.49,10.08,31.28
13193,-8.10,1.29,5.18,0.31,0.23,-0.08,-39.49,10.08,31.28
13204,-8.10,1.13,5.00,0.20,0.23,0.08,-40.13,10.22,30.38
13215,-8.10,1.13,5.00,0.20,0.23,0.08,-40.13,10.22,30.38
13226,-8.07,0.96,4.24,0.08,0.15,0.18,-40.13,10.22,30.38
13237,-8.07,0.96,4.24,0.08,0.15,0.18,-40.13,10.22,30.38
13248,-8.27,1.26,4.09,0.01,-0.01,0.34,-40.13,10.22,30.38
13259,-8.62,1.68,5.10,-0.11,-0.19,0.34,-40.13,10.22,30.38
13270,-8.62,1.68,5.10,-0.11,-0.19,0.34,-40.13,10.22,30.38
13281,-9.09,1.36,5.29,-0.23,-0.25,0.20,-40.13,10.22,30.38
13292,-9.09,1.36,5.29,-0.23,-0.25,0.20,-40.13,10.22,30.38
13303,-9.02,1.62,5.25,-0.31,-0.16,0.08,-40.13,10.22,30.38
13314,-9.02,1.62,5.25,-0.31,-0.16,0.08,-40.13,10.22,30.38
13325,-8.65,1.16,4.59,-0.29,-0.05,-0.03,-40.13,10.22,30.38
13336,-8.65,1.16,4.59,-0.29,-0.05,-0.03,-40.13,10.22,30.38
13347,-8.87,1.73,5.38,-0.12,-0.01,-0.05,-40.56,10.52,31.45
13358,-8.87,1.73,5.38,-0.12,-0.01,-0.05,-40.56,10.52,31.45
13369,-8.84,1.52,5.60,0.10,0.13,-0.14,-40.56,10.52,31.45
13380,-8.51,1.13,5.08,0.33,0.24,-0.14,-40.56,10.52,31.45
13391,-8.51,1.13,5.08,0.33,0.24,-0.14,-40.56,10.52,31.45
13402,-8.35,1.62,5.69,0.47,0.25,-0.01,-40.56,10.52,31.45
13413,-8.35,1.62,5.69,0.47,0.25,-0.01,-40.56,10.52,31.45
13424,-8.10,1.59,4.49,0.36,0.29,0.05,-40.56,10.52,31.45
13435,-8.10,1.59,4.49,0.36,0.29,0.05,-40.56,10.52,31.45
13446,-8.14,1.81,4.55,0.12,0.19,0.16,-40.56,10.52,31.45
13457,-8.14,1.81,4.55,0.12,0.19,0.16,-40.56,10.52,31.45
13468,-8.15,1.20,4.91,-0.24,0.00,0.16,-40.99,11.40,30.03
13479,-8.66,0.41,5.00,-0.34,-0.15,0.18,-40.99,11.40,30.03
13490,-8.66,0.41,5.00,-0.34,-0.15,0.18,-40.99,11.40,30.03
13501,-9.10,1.75,5.19,-0.34,-0.17,0.20,-40.99,11.40,30.03
13512,-9.10,1.75,5.19,-0.34,-0.17,0.20,-40.99,11.40,30.03
13523,-8.86,1.59,4.27,-0.23,-0.07,0.04,-40.99,11.40,30.03
13534,-8.86,1.59,4.27,-0.23,-0.07,0.04,-40.99,11.40,30.03
13545,-8.98,2.09,5.27,-0.03,-0.04,-0.05,-40.99,11.40,30.03
13556,-8.98,2.09,5.27,-0.03,-0.04,-0.05,-40.99,11.40,30.03
13567,-8.50,1.54,4.74,0.07,0.10,-0.16,-40.99,11.40,30.03
13578,-8.50,1.54,4.74,0.07,0.10,-0.16,-40.99,11.40,30.03
13589,-8.53,1.10,5.53,0.25,0.17,-0.13,-39.28,11.40,30.03
13600,-8.25,1.39,4.50,0.39,0.27,0.04,-39.28,11.40,30.03
13611,-8.25,1.39,4.50,0.39,0.27,0.04,-39.28,11.40,30.03
13622,-8.33,2.13,4.93,0.33,0.20,0.14,-39.28,11.40,30.03
13633,-8.33,2.13,4.93,0.33,0.20,0.14,-39.28,11.40,30.03
13644,-9.20,1.65,4.13,-0.01,0.11,0.09,-39.28,11.40,30.03
13655,-9.20,1.65,4.13,-0.01,0.11,0.09,-39.28,11.40,30.03
13666,-8.62,1.47,4.15,-0.51,-0.34,0.15,-39.28,11.40,30.03
13677,-8.62,1.47,4.15,-0.51,-0.34,0.15,-39.28,11.40,30.03
13688,-7.41,2.23,4.87,-0.72,-0.60,0.18,-39.28,11.40,30.03
13700,-7.65,1.07,5.17,-0.64,-0.53,0.10,-39.28,11.40,30.03
13710,-7.65,1.07,5.17,-0.64,-0.53,0.10,-39.28,11.40,30.03
13726,-7.04,1.16,5.75,-0.43,-0.39,0.09,-37.56,10.22,31.10
13732,-7.04,1.16,5.75,-0.43,-0.39,0.09,-37.56,10.22,31.10
13743,-7.85,1.62,5.70,-0.25,-0.13,0.02,-37.56,10.22,31.10
13754,-7.85,1.62,5.70,-0.25,-0.13,0.02,-37.56,10.22,31.10
13765,-8.36,1.94,5.40,-0.03,0.19,-0.07,-37.56,10.22,31.10
13776,-8.36,1.94,5.40,-0.03,0.19,-0.07,-37.56,10.22,31.10
13787,-9.45,1.58,4.74,0.02,0.13,-0.06,-37.56,10.22,31.10
13798,-9.45,1.58,4.74,0.02,0.13,-0.06,-37.56,10.22,31.10
13809,-8.81,1.86,4.66,-0.06,-0.03,0.03,-37.56,10.22,31.10
13820,-8.67,1.02,5.33,0.05,0.00,-0.05,-37.56,10.22,31.10
13831,-8.67,1.02,5.33,0.05,0.00,-0.05,-37.56,10.22,31.10
13842,-9.08,1.25,5.17,0.09,0.12,0.03,-39.71,10.81,31.45
13853,-9.08,1.25,5.17,0.09,0.12,0.03,-39.71,10.81,31.45
13864,-8.72,1.08,4.06,-0.08,-0.04,0.15,-39.71,10.81,31.45
13875,-8.72,1.08,4.06,-0.08,-0.04,0.15,-39.71,10.81,31.45
13886,-7.81,2.45,4.81,-0.24,-0.31,0.32,-39.71,10.81,31.45
13897,-7.81,2.45,4.81,-0.24,-0.31,0.32,-39.71,10.81,31.45
13908,-7.53,1.64,5.49,-0.24,-0.29,0.27,-39.71,10.81,31.45
13919,-7.53,1.64,5.49,-0.24,-0.29,0.27,-39.71,10.81,31.45
13930,-7.37,1.25,5.63,-0.27,-0.20,0.24,-39.71,10.81,31.45
13941,-7.42,0.96,6.18,-0.24,-0.14,0.15,-39.71,10.81,31.45
13952,-7.42,0.96,6.18,-0.24,-0.14,0.15,-39.71,10.81,31.45
13963,-7.79,1.54,5.38,-0.14,0.06,0.06,-37.56,9.64,30.74
13974,-7.79,1.54,5.38,-0.14,0.06,0.06,-37.56,9.64,30.74
13985,-8.70,2.10,5.42,-0.01,0.22,-0.04,-37.56,9.64,30.74
13996,-8.70,2.10,5.42,-0.01,0.22,-0.04,-37.56,9.64,30.74
14007,-10.05,0.87,3.80,-0.00,0.30,-0.17,-37.56,9.64,30.74
14018,-10.05,0.87,3.80,-0.00,0.30,-0.17,-37.56,9.64,30.74
14029,-8.96,2.01,4.79,-0.08,0.08,-0.09,-37.56,9.64,30.74
14040,-9.02,1.31,5.56,0.03,0.16,-0.21,-37.56,9.64,30.74
14051,-9.02,1.31,5.56,0.03,0.16,-0.21,-37.56,9.64,30.74
14062,-8.37,1.15,5.16,0.25,0.34,-0.24,-37.56,9.64,30.74
14073,-8.37,1.15,5.16,0.25,0.34,-0.24,-37.56,9.64,30.74
14084,-8.25,1.56,5.31,0.60,0.35,-0.20,-37.56,9.64,30.74
14095,-8.25,1.56,5.31,0.60,0.35,-0.20,-37.56,9.64,30.74
14106,-8.29,2.33,4.77,0.74,0.38,-0.12,-38.85,10.81,32.88
14117,-8.29,2.33,4.77,0.74,0.38,-0.12,-38.85,10.81,32.88
14128,-8.13,1.56,4.99,0.58,0.38,-0.08,-38.85,10.81,32.88
14139,-8.13,1.56,4.99,0.58,0.38,-0.08,-38.85,10.81,32.88
14150,-8.00,1.81,4.95,0.26,0.35,-0.00,-38.85,10.81,32.88
14161,-8.01,0.71,4.74,0.02,0.29,0.09,-38.85,10.81,32.88
14172,-8.01,0.71,4.74,0.02,0.29,0.09,-38.85,10.81,32.88
14183,-8.27,1.70,3.94,-0.15,0.15,0.31,-38.85,10.81,32.88
14194,-8.27,1.70,3.94,-0.15,0.15,0.31,-38.85,10.81,32.88
14205,-9.65,1.74,4.28,-0.21,-0.19,0.23,-38.85,10.81,32.88
14216,-9.65,1.74,4.28,-0.21,-0.19,0.23,-38.85,10.81,32.88
14227,-7.93,1.97,4.10,-0.28,-0.53,0.09,-39.71,11.69,29.67
14238,-7.93,1.97,4.10,-0.28,-0.53,0.09,-39.71,11.69,29.67
14249,-7.39,1.64,5.26,-0.27,-0.60,-0.04,-39.71,11.69,29.67
14260,-7.26,1.35,5.66,-0.14,-0.40,-0.14,-39.71,11.69,29.67
14271,-7.26,1.35,5.66,-0.14,-0.40,-0.14,-39.71,11.69,29.67
14283,-7.60,2.01,5.88,0.10,-0.11,-0.22,-39.71,11.69,29.67
14293,-7.60,2.01,5.88,0.10,-0.11,-0.22,-39.71,11.69,29.67
14304,-10.74,0.40,4.08,0.27,0.15,-0.24,-39.71,11.69,29.67
14315,-10.74,0.40,4.08,0.27,0.15,-0.24,-39.71,11.69,29.67
14326,-8.72,2.35,4.06,0.03,-0.04,0.05,-39.71,11.69,29.67
14337,-8.72,2.35,4.06,0.03,-0.04,0.05,-39.71,11.69,29.67
14348,-8.65,0.94,5.10,0.20,-0.06,0.15,-39.28,11.69,30.03
14359,-8.65,0.94,5.10,0.20,-0.06,0.15,-39.28,11.69,30.03
14370,-9.06,1.98,5.54,0.42,0.06,0.32,-39.28,11.69,30.03
14381,-10.12,3.56,4.52,0.32,0.16,0.13,-39.28,11.69,30.03
14392,-10.12,3.56,4.52,0.32,0.16,0.13,-39.28,11.69,30.03
14403,-10.79,3.58,2.69,-0.35,-0.40,-0.22,-39.28,11.69,30.03
14414,-10.79,3.58,2.69,-0.35,-0.40,-0.22,-39.28,11.69,30.03
14425,-7.92,3.63,5.51,-1.26,-1.12,-0.44,-39.28,11.69,30.03
14436,-7.92,3.63,5.51,-1.26,-1.12,-0.44,-39.28,11.69,30.03
14447,-6.79,1.18,6.18,-1.39,-0.73,-0.61,-39.28,11.69,30.03
14458,-6.79,1.18,6.18,-1.39,-0.73,-0.61,-39.28,11.69,30.03
14469,-8.21,0.51,4.54,-0.54,0.09,-0.31,-36.49,10.08,32.35
14480,-8.30,0.79,5.52,0.10,-0.04,-0.20,-36.49,10.08,32.35
14496,-8.30,0.79,5.52,0.10,-0.04,-0.20,-36.49,10.08,32.35
14502,-6.87,-0.09,7.12,0.28,-0.14,-0.35,-36.49,10.08,32.35
14513,-6.87,-0.09,7.12,0.28,-0.14,-0.35,-36.49,10.08,32.35
14524,-7.25,0.07,5.72,0.30,0.24,-0.38,-36.49,10.08,32.35
14535,-7.25,0.07,5.72,0.30,0.24,-0.38,-36.49,10.08,32.35
14546,-7.05,-1.31,5.93,0.37,0.17,-0.52,-36.49,10.08,32.35
14557,-7.05,-1.31,5.93,0.37,0.17,-0.52,-36.49,10.08,32.35
14568,-7.30,-0.99,5.48,0.34,0.01,-0.47,-36.49,10.08,32.35
14579,-7.30,-0.99,5.48,0.34,0.01,-0.47,-36.49,10.08,32.35
14590,-8.09,-1.00,6.46,0.28,-0.14,-0.34,-36.49,10.08,32.35
14601,-9.14,0.92,6.28,0.27,-0.06,-0.11,-39.92,8.90,33.42
14612,-9.14,0.92,6.28,0.27,-0.06,-0.11,-39.92,8.90,33.42
14623,-8.79,1.89,5.01,0.11,-0.05,-0.05,-39.92,8.90,33.42
14634,-8.79,1.89,5.01,0.11,-0.05,-0.05,-39.92,8.90,33.42
14645,-7.92,2.18,4.52,-0.12,-0.09,0.00,-39.92,8.90,33.42
14656,-7.92,2.18,4.52,-0.12,-0.09,0.00,-39.92,8.90,33.42
14667,-8.31,1.57,5.18,-0.21,-0.09,0.00,-39.92,8.90,33.42
14678,-8.31,1.57,5.18,-0.21,-0.09,0.00,-39.92,8.90,33.42
14689,-8.38,0.89,5.46,-0.23,-0.02,-0.01,-39.92,8.90,33.42
14700,-8.46,0.17,5.52,-0.16,0.01,0.02,-39.92,8.90,33.42
14711,-8.46,0.17,5.52,-0.16,0.01,0.02,-39.92,8.90,33.42
14722,-8.19,0.59,5.46,-0.10,-0.03,0.14,-38.42,8.76,32.17
14733,-8.19,0.59,5.46,-0.10,-0.03,0.14,-38.42,8.76,32.17
14744,-8.10,1.14,5.59,-0.01,-0.04,0.19,-38.42,8.76,32.17
14756,-8.10,1.14,5.59,-0.01,-0.04,0.19,-38.42,8.76,32.17
14766,-8.43,1.59,5.25,-0.01,0.02,0.15,-38.42,8.76,32.17
14777,-8.43,1.59,5.25,-0.01,0.02,0.15,-38.42,8.76,32.17
14788,-8.27,1.28,5.25,-0.04,0.02,0.07,-38.42,8.76,32.17
14799,-8.27,1.28,5.25,-0.04,0.02,0.07,-38.42,8.76,32.17
14810,-7.98,1.10,5.45,-0.07,0.03,0.04,-38.42,8.76,32.17
14821,-8.09,0.75,5.56,0.00,0.06,0.01,-38.42,8.76,32.17
14832,-8.09,0.75,5.56,0.00,0.06,0.01,-38.42,8.76,32.17
14843,-7.76,1.06,5.40,0.09,0.12,0.03,-39.92,8.90,32.70
14854,-7.76,1.06,5.40,0.09,0.12,0.03,-39.92,8.90,32.70
14865,-7.89,1.24,5.49,0.13,0.19,0.03,-39.92,8.90,32.70
14876,-7.89,1.24,5.49,0.13,0.19,0.03,-39.92,8.90,32.70
14887,-7.88,1.06,5.54,0.20,0.25,0.01,-39.92,8.90,32.70
14898,-7.88,1.06,5.54,0.20,0.25,0.01,-39.92,8.90,32.70
14909,-9.33,0.01,4.63,0.33,0.18,-0.03,-39.92,8.90,32.70
14920,-9.33,0.01,4.63,0.33,0.18,-0.03,-39.92,8.90,32.70
14931,-8.68,1.19,4.75,0.27,-0.07,-0.01,-39.92,8.90,32.70
14942,-8.86,1.57,5.44,0.25,-0.14,-0.21,-39.92,8.90,32.70
14953,-8.86,1.57,5.44,0.25,-0.14,-0.21,-39.92,8.90,32.70
14964,-8.97,1.62,5.23,0.10,-0.04,-0.31,-39.92,8.90,32.70
14975,-8.97,1.62,5.23,0.10,-0.04,-0.31,-39.92,8.90,32.70
14986,-9.11,1.39,5.26,0.17,0.09,-0.22,-38.63,10.08,32.70
14997,-9.11,1.39,5.26,0.17,0.09,-0.22,-38.63,10.08,32.70
15008,-8.62,1.49,5.33,0.23,0.30,-0.06,-38.63,10.08,32.70
15019,-8.62,1.49,5.33,0.23,0.30,-0.06,-38.63,10.08,32.70
15030,-7.68,0.86,4.74,0.44,0.38,-0.03,-38.63,10.08,32.70
15041,-7.60,0.61,5.59,0.55,0.15,-0.16,-38.63,10.08,32.70
15052,-7.60,0.61,5.59,0.55,0.15,-0.16,-38.63,10.08,32.70
15063,-7.57,1.19,5.58,0.39,-0.03,-0.23,-38.63,10.08,32.70
15074,-7.57,1.19,5.58,0.39,-0.03,-0.23,-38.63,10.08,32.70
15085,-7.99,0.78,5.34,0.04,-0.16,-0.28,-38.63,10.08,32.70
15096,-7.99,0.78,5.34,0.04,-0.16,-0.28,-38.63,10.08,32.70
15107,-8.70,1.18,5.19,-0.19,-0.24,-0.24,-40.56,10.22,29.31
15118,-8.70,1.18,5.19,-0.19,-0.24,-0.24,-40.56,10.22,29.31
15129,-8.85,0.97,5.18,-0.23,-0.16,-0.16,-40.56,10.22,29.31
15140,-8.85,0.97,5.18,-0.23,-0.16,-0.16,-40.56,10.22,29.31
15151,-9.27,0.38,5.00,-0.29,-0.04,0.00,-40.56,10.22,29.31
15162,-9.42,0.61,4.57,-0.27,-0.11,0.36,-40.56,10.22,29.31
15173,-9.42,0.61,4.57,-0.27,-0.11,0.36,-40.56,10.22,29.31
15184,-7.63,2.04,5.08,-0.30,-0.24,0.62,-40.56,10.22,29.31
15195,-7.63,2.04,5.08,-0.30,-0.24,0.62,-40.56,10.22,29.31
15206,-7.73,1.41,5.79,-0.19,-0.14,0.43,-40.56,10.22,29.31
15217,-7.73,1.41,5.79,-0.19,-0.14,0.43,-40.56,10.22,29.31
15228,-7.53,0.63,5.73,-0.18,-0.07,0.27,-38.42,11.40,32.17
15239,-7.53,0.63,5.73,-0.18,-0.07,0.27,-38.42,11.40,32.17
15250,-7.37,0.86,5.86,-0.13,-0.04,0.23,-38.42,11.40,32.17
15261,-7.98,1.38,5.53,-0.06,0.07,0.17,-38.42,11.40,32.17
15272,-7.98,1.38,5.53,-0.06,0.07,0.17,-38.42,11.40,32.17
15283,-7.99,1.59,5.03,-0.04,0.12,0.09,-38.42,11.40,32.17
15295,-7.99,1.59,5.03,-0.04,0.12,0.09,-38.42,11.40,32.17
15305,-8.21,1.49,5.37,0.00,0.12,0.00,-38.42,11.40,32.17
15316,-8.21,1.49,5.37,0.00,0.12,0.00,-38.42,11.40,32.17
15327,-8.68,1.09,5.44,0.04,0.19,-0.08,-38.42,11.40,32.17
15338,-8.68,1.09,5.44,0.04,0.19,-0.08,-38.42,11.40,32.17
15349,-8.76,0.98,5.22,-0.03,0.08,-0.06,-38.42,11.40,32.17
15360,-8.76,0.98,5.22,-0.03,0.08,-0.06,-38.42,11.40,32.17
15371,-8.68,1.17,5.03,-0.04,0.01,-0.03,-37.99,10.22,31.45
15382,-8.71,1.07,5.42,0.06,0.03,-0.16,-37.99,10.22,31.45
15393,-8.71,1.07,5.42,0.06,0.03,-0.16,-37.99,10.22,31.45
15404,-8.64,1.44,5.17,0.21,0.13,-0.25,-37.99,10.22,31.45
15415,-8.64,1.44,5.17,0.21,0.13,-0.25,-37.99,10.22,31.45
15426,-8.45,1.36,5.42,0.36,0.24,-0.23,-37.99,10.22,31.45
15437,-8.45,1.36,5.42,0.36,0.24,-0.23,-37.99,10.22,31.45
15448,-8.14,1.04,5.52,0.46,0.31,-0.09,-37.99,10.22,31.45
15459,-8.14,1.04,5.52,0.46,0.31,-0.09,-37.99,10.22,31.45
15470,-7.83,1.67,4.52,0.36,0.30,0.05,-37.99,10.22,31.45
15481,-7.82,0.90,4.81,0.17,0.16,0.13,-39.49,10.37,30.20
15492,-7.82,0.90,4.81,0.17,0.16,0.13,-39.49,10.37,30.20
15503,-7.93,1.24,4.77,-0.05,0.05,0.27,-39.49,10.37,30.20
15514,-7.93,1.24,4.77,-0.05,0.05,0.27,-39.49,10.37,30.20
15525,-8.25,1.38,4.64,-0.21,-0.10,0.31,-39.49,10.37,30.20
15536,-8.25,1.38,4.64,-0.21,-0.10,0.31,-39.49,10.37,30.20
15547,-8.99,1.31,5.44,-0.25,-0.21,0.23,-39.49,10.37,30.20
15558,-8.99,1.31,5.44,-0.25,-0.21,0.23,-39.49,10.37,30.20
15569,-8.81,1.18,4.98,-0.19,-0.10,0.05,-39.49,10.37,30.20
15580,-8.81,1.18,4.98,-0.19,-0.10,0.05,-39.49,10.37,30.20
15591,-8.84,1.84,5.00,-0.06,-0.03,-0.04,-39.49,10.37,30.20
15602,-8.30,1.98,5.14,0.02,0.07,-0.17,-40.35,10.37,33.06
15613,-8.30,1.98,5.14,0.02,0.07,-0.17,-40.35,10.37,33.06
15624,-8.46,1.29,5.34,0.08,0.13,-0.19,-40.35,10.37,33.06
15635,-8.46,1.29,5.34,0.08,0.13,-0.19,-40.35,10.37,33.06
15646,-8.24,1.26,4.96,0.16,0.20,-0.06,-40.35,10.37,33.06
15658,-8.24,1.26,4.96,0.16,0.20,-0.06,-40.35,10.37,33.06
15668,-8.05,1.03,4.93,0.32,0.23,0.14,-40.35,10.37,33.06
15679,-8.05,1.03,4.93,0.32,0.23,0.14,-40.35,10.37,33.06
15690,-8.11,1.73,4.76,0.33,0.15,0.30,-40.35,10.37,33.06
15701,-8.20,1.31,4.88,0.10,0.01,0.22,-40.35,10.37,33.06
15712,-8.20,1.31,4.88,0.10,0.01,0.22,-40.35,10.37,33.06
15723,-8.87,1.47,5.41,-0.12,-0.05,0.14,-39.49,11.84,31.63
15734,-8.87,1.47,5.41,-0.12,-0.05,0.14,-39.49,11.84,31.63
15745,-8.70,1.34,4.54,-0.14,0.01,-0.00,-39.49,11.84,31.63
15756,-8.70,1.34,4.54,-0.14,0.01,-0.00,-39.49,11.84,31.63
15767,-8.87,1.98,5.10,-0.05,0.06,-0.05,-39.49,11.84,31.63
15778,-8.87,1.98,5.10,-0.05,0.06,-0.05,-39.49,11.84,31.63
15789,-8.34,1.86,4.23,0.06,0.17,-0.11,-39.49,11.84,31.63
15800,-8.34,1.86,4.23,0.06,0.17,-0.11,-39.49,11.84,31.63
15811,-8.13,1.63,5.17,0.25,0.18,-0.09,-39.49,11.84,31.63
15822,-7.99,1.15,4.71,0.40,0.16,-0.02,-39.49,11.84,31.63
15833,-7.99,1.15,4.71,0.40,0.16,-0.02,-39.49,11.84,31.63
15844,-8.29,1.59,5.02,0.26,0.06,0.07,-39.49,11.84,31.63
15855,-8.29,1.59,5.02,0.26,0.06,0.07,-39.49,11.84,31.63
15866,-7.92,1.37,4.26,-0.03,-0.01,0.09,-39.92,11.54,30.56
15877,-7.92,1.37,4.26,-0.03,-0.01,0.09,-39.92,11.54,30.56
15888,-8.45,2.03,4.83,-0.23,-0.19,0.12,-39.92,11.54,30.56
15899,-8.45,2.03,4.83,-0.23,-0.19,0.12,-39.92,11.54,30.56
15910,-8.27,1.40,4.82,-0.46,-0.30,0.04,-39.92,11.54,30.56
15921,-8.27,1.40,4.82,-0.46,-0.30,0.04,-39.92,11.54,30.56
15932,-8.15,1.66,5.52,-0.72,-0.29,0.05,-39.92,11.54,30.56
15943,-8.93,0.77,5.05,-0.74,-0.23,0.11,-39.92,11.54,30.56
15954,-8.93,0.77,5.05,-0.74,-0.23,0.11,-39.92,11.54,30.56
15965,-8.51,1.78,5.09,-0.72,-0.13,0.21,-39.92,11.54,30.56
15976,-8.51,1.78,5.09,-0.72,-0.13,0.21,-39.92,11.54,30.56
15987,-8.80,1.22,5.35,-0.67,-0.05,0.17,-39.06,10.66,31.63
15998,-8.80,1.22,5.35,-0.67,-0.05,0.17,-39.06,10.66,31.63
16009,-8.55,1.25,4.64,-0.47,0.05,0.20,-39.06,10.66,31.63
16020,-8.55,1.25,4.64,-0.47,0.05,0.20,-39.06,10.66,31.63
16031,-8.92,1.50,5.17,-0.14,0.11,0.29,-39.06,10.66,31.63
16042,-8.69,2.75,4.61,0.01,0.23,0.30,-39.06,10.66,31.63
16053,-8.69,2.75,4.61,0.01,0.23,0.30,-39.06,10.66,31.63
16064,-9.33,3.46,4.67,-0.18,0.13,-0.04,-39.06,10.66,31.63
16075,-9.33,3.46,4.67,-0.18,0.13,-0.04,-39.06,10.66,31.63
16086,-10.62,2.50,3.30,-0.55,-0.27,-0.44,-39.06,10.66,31.63
16097,-10.62,2.50,3.30,-0.55,-0.27,-0.44,-39.06,10.66,31.63
16108,-8.38,3.97,5.12,-1.08,-0.82,-0.58,-38.85,9.05,33.59
16119,-8.38,3.97,5.12,-1.08,-0.82,-0.58,-38.85,9.05,33.59
16130,-7.56,1.35,5.73,-1.05,-0.49,-0.72,-38.85,9.05,33.59
16141,-7.56,1.35,5.73,-1.05,-0.49,-0.72,-38.85,9.05,33.59
16152,-8.11,0.68,3.88,-0.55,0.11,-0.40,-38.85,9.05,33.59
16163,-8.20,0.72,5.44,-0.16,0.07,-0.22,-38.85,9.05,33.59
16174,-8.20,0.72,5.44,-0.16,0.07,-0.22,-38.85,9.05,33.59
16185,-7.07,-1.62,5.94,0.14,-0.04,-0.42,-38.85,9.05,33.59
16196,-7.07,-1.62,5.94,0.14,-0.04,-0.42,-38.85,9.05,33.59
16207,-6.75,-2.11,6.69,0.44,-0.03,-0.28,-38.85,9.05,33.59
16218,-6.75,-2.11,6.69,0.44,-0.03,-0.28,-38.85,9.05,33.59
16229,-6.81,-0.91,6.26,0.46,0.02,-0.15,-38.85,9.05,33.59
16240,-6.81,-0.91,6.26,0.46,0.02,-0.15,-38.85,9.05,33.59
16251,-7.10,-1.27,5.79,0.23,-0.11,-0.37,-39.49,7.73,34.13
16262,-7.77,-1.27,5.75,0.18,-0.12,-0.37,-39.49,7.73,34.13
16273,-7.77,-1.27,5.75,0.18,-0.12,-0.37,-39.49,7.73,34.13
16284,-9.03,0.85,5.50,0.16,-0.09,-0.14,-39.49,7.73,34.13
16295,-9.03,0.85,5.50,0.16,-0.09,-0.14,-39.49,7.73,34.13
16306,-9.45,1.14,5.19,-0.01,-0.09,-0.10,-39.49,7.73,34.13
16317,-9.45,1.14,5.19,-0.01,-0.09,-0.10,-39.49,7.73,34.13
16329,-8.73,0.79,4.68,-0.08,-0.13,-0.04,-39.49,7.73,34.13
16339,-8.73,0.79,4.68,-0.08,-0.13,-0.04,-39.49,7.73,34.13
16350,-7.92,0.77,5.31,-0.03,-0.20,-0.01,-39.49,7.73,34.13
16361,-7.92,0.77,5.31,-0.03,-0.20,-0.01,-39.49,7.73,34.13
16372,-8.11,0.54,5.95,0.00,-0.14,-0.03,-40.78,8.02,33.42
16383,-8.16,0.48,5.79,-0.06,-0.03,-0.03,-40.78,8.02,33.42
16394,-8.16,0.48,5.79,-0.06,-0.03,-0.03,-40.78,8.02,33.42
16405,-8.15,0.56,5.47,0.00,0.04,0.02,-40.78,8.02,33.42
16416,-8.15,0.56,5.47,0.00,0.04,0.02,-40.78,8.02,33.42
16427,-8.36,0.91,5.38,0.07,0.04,0.03,-40.78,8.02,33.42
16438,-8.36,0.91,5.38,0.07,0.04,0.03,-40.78,8.02,33.42
16449,-8.39,0.96,5.43,0.04,0.01,-0.02,-40.78,8.02,33.42
16460,-8.39,0.96,5.43,0.04,0.01,-0.02,-40.78,8.02,33.42
16471,-8.23,0.43,5.50,-0.01,-0.02,-0.07,-40.78,8.02,33.42
16482,-7.90,0.26,5.53,-0.03,-0.03,-0.05,-39.92,7.14,34.84
16493,-7.90,0.26,5.53,-0.03,-0.03,-0.05,-39.92,7.14,34.84
16504,-7.97,0.34,5.58,0.03,0.03,0.01,-39.92,7.14,34.84
16515,-7.97,0.34,5.58,0.03,0.03,0.01,-39.92,7.14,34.84
16526,-8.12,0.55,5.60,0.11,0.10,-0.02,-39.92,7.14,34.84
16537,-8.12,0.55,5.60,0.11,0.10,-0.02,-39.92,7.14,34.84
16548,-8.20,0.69,5.29,0.17,0.15,-0.08,-39.92,7.14,34.84
16559,-8.20,0.69,5.29,0.17,0.15,-0.08,-39.92,7.14,34.84
16570,-8.10,0.62,5.39,0.23,0.16,-0.08,-39.92,7.14,34.84
16581,-8.10,0.62,5.39,0.23,0.16,-0.08,-39.92,7.14,34.84
16592,-7.99,0.57,5.54,0.24,0.22,-0.06,-39.92,7.14,34.84
16603,-8.12,0.40,5.60,0.31,0.32,-0.03,-39.92,7.14,34.84
16614,-8.12,0.40,5.60,0.31,0.32,-0.03,-39.92,7.14,34.84
16625,-9.45,0.16,4.64,0.27,0.31,0.03,-40.13,7.58,32.52
16636,-9.45,0.16,4.64,0.27,0.31,0.03,-40.13,7.58,32.52
16647,-8.41,1.19,4.71,0.06,0.06,0.16,-40.13,7.58,32.52
16658,-8.41,1.19,4.71,0.06,0.06,0.16,-40.13,7.58,32.52
16669,-8.14,0.60,5.02,0.05,-0.03,0.20,-40.13,7.58,32.52
16680,-8.14,0.60,5.02,0.05,-0.03,0.20,-40.13,7.58,32.52
16691,-8.06,0.67,5.21,0.12,-0.13,0.33,-40.13,7.58,32.52
16702,-8.17,0.82,5.34,0.28,-0.19,0.36,-40.13,7.58,32.52
16713,-8.17,0.82,5.34,0.28,-0.19,0.36,-40.13,7.58,32.52
16724,-8.28,1.02,5.54,0.32,-0.25,0.27,-40.13,7.58,32.52
16735,-8.28,1.02,5.54,0.32,-0.25,0.27,-40.13,7.58,32.52
16746,-8.13,0.71,5.29,0.11,-0.33,0.21,-38.21,9.49,32.70
16757,-8.13,0.71,5.29,0.11,-0.33,0.21,-38.21,9.49,32.70
16768,-8.56,0.87,5.59,-0.24,-0.39,0.19,-38.21,9.49,32.70
16779,-8.56,0.87,5.59,-0.24,-0.39,0.19,-38.21,9.49,32.70
16790,-9.21,0.96,5.46,-0.22,-0.29,0.05,-38.21,9.49,32.70
16801,-9.21,0.96,5.46,-0.22,-0.29,0.05,-38.21,9.49,32.70
16812,-9.32,1.68,5.54,-0.07,-0.13,-0.15,-38.21,9.49,32.70
16823,-9.02,0.78,5.89,0.03,0.07,-0.41,-38.21,9.49,32.70
16834,-9.02,0.78,5.89,0.03,0.07,-0.41,-38.21,9.49,32.70
16845,-8.64,0.78,5.41,0.26,0.32,-0.39,-38.21,9.49,32.70
16856,-8.64,0.78,5.41,0.26,0.32,-0.39,-38.21,9.49,32.70
16867,-8.32,0.80,5.39,0.61,0.49,-0.36,-38.42,7.88,33.24
16878,-8.32,0.80,5.39,0.61,0.49,-0.36,-38.42,7.88,33.24
16889,-7.88,1.28,4.76,0.92,0.50,-0.32,-38.42,7.88,33.24
16900,-7.88,1.28,4.76,0.92,0.50,-0.32,-38.42,7.88,33.24
16911,-7.47,1.45,5.52,0.89,0.32,-0.29,-38.42,7.88,33.24
16922,-7.47,1.45,5.52,0.89,0.32,-0.29,-38.42,7.88,33.24
16933,-7.74,1.01,5.38,0.49,0.19,-0.18,-38.42,7.88,33.24
16944,-7.67,0.21,5.81,0.04,0.10,-0.04,-38.42,7.88,33.24
16955,-7.67,0.21,5.81,0.04,0.10,-0.04,-38.42,7.88,33.24
16966,-7.76,0.17,5.31,-0.27,0.05,0.20,-38.42,7.88,33.24
16977,-7.76,0.17,5.31,-0.27,0.05,0.20,-38.42,7.88,33.24
16988,-8.25,0.64,5.50,-0.44,-0.03,0.39,-40.78,10.37,32.35
16999,-8.25,0.64,5.50,-0.44,-0.03,0.39,-40.78,10.37,32.35
17010,-9.04,1.49,5.27,-0.43,-0.01,0.35,-40.78,10.37,32.35
17021,-9.04,1.49,5.27,-0.43,-0.01,0.35,-40.78,10.37,32.35
17032,-8.62,1.25,4.25,-0.34,0.06,0.13,-40.78,10.37,32.35
17043,-8.84,1.72,5.16,-0.17,0.04,0.07,-40.78,10.37,32.35
17054,-8.84,1.72,5.16,-0.17,0.04,0.07,-40.78,10.37,32.35
17065,-8.07,0.77,4.72,-0.01,0.13,0.05,-40.78,10.37,32.35
17076,-8.07,0.77,4.72,-0.01,0.13,0.05,-40.78,10.37,32.35
17087,-7.97,1.01,5.27,0.19,0.09,0.18,-40.78,10.37,32.35
17098,-7.97,1.01,5.27,0.19,0.09,0.18,-40.78,10.37,32.35
17109,-7.96,0.83,5.50,0.35,0.05,0.26,-40.78,10.37,32.35
17120,-7.96,0.83,5.50,0.35,0.05,0.26,-40.78,10.37,32.35
17131,-7.92,0.83,5.34,0.25,-0.01,0.25,-39.71,9.93,31.45
17142,-7.92,0.83,5.34,0.25,-0.01,0.25,-39.71,9.93,31.45
17153,-8.15,1.18,5.05,0.02,-0.11,0.22,-39.71,9.93,31.45
17164,-8.62,1.32,5.38,-0.13,-0.24,0.06,-39.71,9.93,31.45
17175,-8.62,1.32,5.38,-0.13,-0.24,0.06,-39.71,9.93,31.45
17186,-8.74,1.32,5.08,-0.28,-0.19,-0.16,-39.71,9.93,31.45
17197,-8.74,1.32,5.08,-0.28,-0.19,-0.16,-39.71,9.93,31.45
17208,-9.07,1.09,5.53,-0.32,-0.09,-0.30,-39.71,9.93,31.45
17219,-9.07,1.09,5.53,-0.32,-0.09,-0.30,-39.71,9.93,31.45
17230,-8.42,1.39,4.74,-0.24,0.07,-0.33,-39.71,9.93,31.45
17241,-8.42,1.39,4.74,-0.24,0.07,-0.33,-39.71,9.93,31.45
17252,-8.63,0.71,5.11,0.06,0.13,-0.28,-39.28,9.64,31.81
17263,-8.19,1.02,5.38,0.35,0.17,-0.12,-39.28,9.64,31.81
17274,-8.19,1.02,5.38,0.35,0.17,-0.12,-39.28,9.64,31.81
17285,-8.46,1.45,5.26,0.39,0.22,-0.00,-39.28,9.64,31.81
17296,-8.46,1.45,5.26,0.39,0.22,-0.00,-39.28,9.64,31.81
17307,-8.37,1.24,4.61,0.28,0.28,0.15,-39.28,9.64,31.81
17318,-8.37,1.24,4.61,0.28,0.28,0.15,-39.28,9.64,31.81
17329,-8.21,1.50,4.73,0.05,0.19,0.29,-39.28,9.64,31.81
17340,-8.21,1.50,4.73,0.05,0.19,0.29,-39.28,9.64,31.81
17351,-8.87,0.78,4.92,-0.24,0.02,0.30,-39.28,9.64,31.81
17362,-8.87,0.78,4.92,-0.24,0.02,0.30,-39.28,9.64,31.81
17373,-7.57,0.64,5.54,-0.46,-0.23,0.35,-38.42,9.64,29.67
17384,-7.30,1.20,5.53,-0.28,-0.11,0.35,-38.42,9.64,29.67
17395,-7.30,1.20,5.53,-0.28,-0.11,0.35,-38.42,9.64,29.67
17406,-7.76,1.00,5.27,-0.05,0.05,0.22,-38.42,9.64,29.67
17417,-7.76,1.00,5.27,-0.05,0.05,0.22,-38.42,9.64,29.67
17428,-9.30,0.83,4.64,0.09,0.05,0.15,-38.42,9.64,29.67
17439,-9.30,0.83,4.64,0.09,0.05,0.15,-38.42,9.64,29.67
17450,-8.69,1.54,4.69,0.04,-0.14,0.08,-38.42,9.64,29.67
17461,-8.69,1.54,4.69,0.04,-0.14,0.08,-38.42,9.64,29.67
17472,-9.07,1.65,4.78,0.02,-0.18,-0.06,-38.42,9.64,29.67
17483,-8.87,1.73,5.71,-0.01,-0.11,-0.19,-38.42,9.64,29.67
17494,-8.87,1.73,5.71,-0.01,-0.11,-0.19,-38.42,9.64,29.67
17510,-8.63,0.99,4.81,-0.01,0.02,-0.31,-39.71,9.93,33.59
17516,-8.63,0.99,4.81,-0.01,0.02,-0.31,-39.71,9.93,33.59
17527,-8.74,1.24,5.45,0.12,0.09,-0.23,-39.71,9.93,33.59
17538,-8.74,1.24,5.45,0.12,0.09,-0.23,-39.71,9.93,33.59
17549,-8.46,1.16,4.84,0.17,0.23,-0.15,-39.71,9.93,33.59
17560,-8.46,1.16,4.84,0.17,0.23,-0.15,-39.71,9.93,33.59
17571,-8.28,1.50,4.62,0.32,0.31,0.01,-39.71,9.93,33.59
17582,-8.28,1.50,4.62,0.32,0.31,0.01,-39.71,9.93,33.59
17593,-8.05,1.25,4.97,0.34,0.26,0.00,-39.71,9.93,33.59
17609,-8.05,0.98,4.99,0.28,0.11,-0.11,-39.71,9.93,33.59
17615,-8.05,0.98,4.99,0.28,0.11,-0.11,-39.71,9.93,33.59
17626,-8.35,1.29,4.97,0.08,-0.02,-0.21,-40.13,9.93,30.38
17637,-8.35,1.29,4.97,0.08,-0.02,-0.21,-40.13,9.93,30.38
17648,-8.28,1.32,4.64,-0.13,-0.13,-0.31,-40.13,9.93,30.38
17659,-8.28,1.32,4.64,-0.13,-0.13,-0.31,-40.13,9.93,30.38
17670,-8.59,0.74,5.13,-0.17,-0.21,-0.31,-40.13,9.93,30.38
17681,-8.59,0.74,5.13,-0.17,-0.21,-0.31,-40.13,9.93,30.38
17692,-8.64,1.03,5.32,-0.22,-0.15,-0.21,-40.13,9.93,30.38
17703,-9.55,0.61,4.67,-0.32,-0.06,-0.05,-40.13,9.93,30.38
17714,-9.55,0.61,4.67,-0.32,-0.06,-0.05,-40.13,9.93,30.38
17725,-9.02,0.80,4.37,-0.53,-0.24,0.31,-40.13,9.93,30.38
17736,-9.02,0.80,4.37,-0.53,-0.24,0.31,-40.13,9.93,30.38
17747,-7.94,2.34,4.44,-0.55,-0.26,0.69,-40.13,8.46,31.81
17758,-7.94,2.34,4.44,-0.55,-0.26,0.69,-40.13,8.46,31.81
17769,-8.35,2.07,5.38,-0.46,-0.09,0.64,-40.13,8.46,31.81
17780,-8.35,2.07,5.38,-0.46,-0.09,0.64,-40.13,8.46,31.81
17791,-7.49,0.60,5.75,-0.47,-0.03,0.45,-40.13,8.46,31.81
17802,-7.49,0.60,5.75,-0.47,-0.03,0.45,-40.13,8.46,31.81
17813,-7.61,0.68,6.15,-0.47,0.08,0.42,-40.13,8.46,31.81
17824,-7.70,0.55,5.78,-0.38,0.16,0.29,-40.13,8.46,31.81
17835,-7.70,0.55,5.78,-0.38,0.16,0.29,-40.13,8.46,31.81
17846,-7.84,0.78,5.79,-0.21,0.19,0.14,-40.13,8.46,31.81
17857,-7.84,0.78,5.79,-0.21,0.19,0.14,-40.13,8.46,31.81
17868,-8.18,1.42,4.95,-0.04,0.28,0.07,-40.13,8.46,31.81
17879,-8.18,1.42,4.95,-0.04,0.28,0.07,-40.13,8.46,31.81
17890,-8.46,1.64,4.84,-0.00,0.26,0.02,-39.28,9.34,33.95
17901,-8.46,1.64,4.84,-0.00,0.26,0.02,-39.28,9.34,33.95
17912,-8.68,0.92,5.16,-0.04,0.07,-0.04,-39.28,9.34,33.95
17923,-8.68,0.92,5.16,-0.04,0.07,-0.04,-39.28,9.34,33.95
17934,-8.44,0.64,4.79,-0.04,-0.04,-0.01,-39.28,9.34,33.95
17945,-8.58,0.87,5.05,0.07,-0.08,0.00,-39.28,9.34,33.95
17956,-8.58,0.87,5.05,0.07,-0.08,0.00,-39.28,9.34,33.95
17967,-8.79,1.29,5.48,0.12,-0.07,-0.08,-39.28,9.34,33.95
17978,-8.79,1.29,5.48,0.12,-0.07,-0.08,-39.28,9.34,33.95
17989,-8.85,1.32,4.81,0.21,-0.00,-0.25,-39.28,9.34,33.95
18000,-8.85,1.32,4.81,0.21,-0.00,-0.25,-39.28,9.34,33.95
18011,-8.61,1.17,4.92,0.31,0.07,-0.34,-40.99,8.76,32.52
18022,-8.61,1.17,4.92,0.31,0.07,-0.34,-40.99,8.76,32.52
18033,-8.47,2.01,4.76,0.37,0.13,-0.27,-40.99,8.76,32.52
18044,-8.79,1.58,5.18,0.43,0.15,-0.21,-40.99,8.76,32.52
18055,-8.79,1.58,5.18,0.43,0.15,-0.21,-40.99,8.76,32.52
18066,-8.38,1.10,5.18,0.29,0.25,-0.13,-40.99,8.76,32.52
18077,-8.38,1.10,5.18,0.29,0.25,-0.13,-40.99,8.76,32.52
18088,-8.24,1.03,4.84,0.05,0.31,0.04,-40.99,8.76,32.52
18099,-8.24,1.03,4.84,0.05,0.31,0.04,-40.99,8.76,32.52
18110,-8.10,0.57,4.60,-0.18,0.23,0.23,-40.99,8.76,32.52
18121,-8.10,0.57,4.60,-0.18,0.23,0.23,-40.99,8.76,32.52
18132,-8.90,1.25,4.09,-0.31,0.06,0.44,-40.78,9.49,31.63
18143,-8.90,1.25,4.09,-0.31,0.06,0.44,-40.78,9.49,31.63
18154,-7.80,1.30,5.28,-0.42,-0.23,0.48,-40.78,9.49,31.63
18166,-7.59,1.36,5.19,-0.27,-0.15,0.34,-40.78,9.49,31.63
18176,-7.59,1.36,5.19,-0.27,-0.15,0.34,-40.78,9.49,31.63
18187,-7.59,0.66,5.93,-0.15,-0.09,0.11,-40.78,9.49,31.63
18198,-7.59,0.66,5.93,-0.15,-0.09,0.11,-40.78,9.49,31.63
18209,-9.88,0.36,4.38,0.08,0.03,-0.02,-40.78,9.49,31.63
18220,-9.88,0.36,4.38,0.08,0.03,-0.02,-40.78,9.49,31.63
18231,-9.08,2.47,4.06,-0.01,-0.11,-0.04,-40.78,9.49,31.63
18242,-9.08,2.47,4.06,-0.01,-0.11,-0.04,-40.78,9.49,31.63
18253,-8.94,1.89,4.72,0.02,-0.10,-0.24,-39.28,8.46,32.17
18264,-8.69,1.54,4.92,0.03,-0.04,-0.39,-39.28,8.46,32.17
18275,-8.69,1.54,4.92,0.03,-0.04,-0.39,-39.28,8.46,32.17
18286,-8.55,1.18,5.30,0.17,0.09,-0.35,-39.28,8.46,32.17
18297,-8.55,1.18,5.30,0.17,0.09,-0.35,-39.28,8.46,32.17
18308,-8.45,0.86,4.98,0.34,0.22,-0.20,-39.28,8.46,32.17
18319,-8.45,0.86,4.98,0.34,0.22,-0.20,-39.28,8.46,32.17
18330,-8.32,1.57,5.79,0.37,0.31,0.02,-39.28,8.46,32.17
18341,-8.32,1.57,5.79,0.37,0.31,0.02,-39.28,8.46,32.17
18352,-7.84,1.64,3.87,0.20,0.41,0.18,-39.28,8.46,32.17
18363,-7.84,1.64,3.87,0.20,0.41,0.18,-39.28,8.46,32.17
18374,-7.69,0.33,5.02,-0.12,0.17,0.23,-39.28,8.46,32.17
18385,-8.04,0.62,4.77,-0.28,-0.01,0.35,-40.13,9.34,30.38
18396,-8.04,0.62,4.77,-0.28,-0.01,0.35,-40.13,9.34,30.38
18407,-8.26,0.62,4.83,-0.24,-0.22,0.33,-40.13,9.34,30.38
18418,-8.26,0.62,4.83,-0.24,-0.22,0.33,-40.13,9.34,30.38
18429,-9.13,1.48,4.69,-0.31,-0.40,0.19,-40.13,9.34,30.38
18440,-9.13,1.48,4.69,-0.31,-0.40,0.19,-40.13,9.34,30.38
18451,-9.48,2.24,4.59,-0.16,-0.32,-0.01,-40.13,9.34,30.38
18463,-9.48,2.24,4.59,-0.16,-0.32,-0.01,-40.13,9.34,30.38
18473,-9.21,2.23,5.11,0.06,-0.14,-0.21,-40.13,9.34,30.38
18484,-8.55,1.24,4.64,0.16,0.01,-0.35,-40.13,9.34,30.38
18495,-8.55,1.24,4.64,0.16,0.01,-0.35,-40.13,9.34,30.38
18506,-8.44,0.84,5.76,0.31,0.07,-0.24,-39.92,10.96,30.92
18517,-8.44,0.84,5.76,0.31,0.07,-0.24,-39.92,10.96,30.92
18528,-8.08,0.53,5.34,0.36,0.20,0.00,-39.92,10.96,30.92
18539,-8.08,0.53,5.34,0.36,0.20,0.00,-39.92,10.96,30.92
18550,-8.07,1.68,4.70,0.20,0.22,0.31,-39.92,10.96,30.92
18561,-8.07,1.68,4.70,0.20,0.22,0.31,-39.92,10.96,30.92
18572,-9.77,1.23,4.29,-0.28,-0.01,0.36,-39.92,10.96,30.92
18583,-9.77,1.23,4.29,-0.28,-0.01,0.36,-39.92,10.96,30.92
18594,-7.73,1.68,5.16,-0.79,-0.43,0.39,-39.92,10.96,30.92
18605,-7.69,0.97,5.45,-0.94,-0.46,0.24,-39.92,10.96,30.92
18616,-7.69,0.97,5.45,-0.94,-0.46,0.24,-39.92,10.96,30.92
18627,-7.45,0.42,6.33,-0.83,-0.40,0.03,-38.42,8.17,33.95
18638,-7.45,0.42,6.33,-0.83,-0.40,0.03,-38.42,8.17,33.95
18649,-8.14,1.22,5.31,-0.42,-0.12,-0.03,-38.42,8.17,33.95
18660,-8.14,1.22,5.31,-0.42,-0.12,-0.03,-38.42,8.17,33.95
18671,-8.59,1.60,4.99,-0.18,-0.02,-0.11,-38.42,8.17,33.95
18682,-8.59,1.60,4.99,-0.18,-0.02,-0.11,-38.42,8.17,33.95
18693,-8.52,1.60,4.88,-0.04,0.00,-0.15,-38.42,8.17,33.95
18704,-8.28,1.19,5.27,0.02,-0.02,-0.18,-38.42,8.17,33.95
18715,-8.28,1.19,5.27,0.02,-0.02,-0.18,-38.42,8.17,33.95
18731,-8.04,1.02,5.51,0.06,0.03,-0.16,-38.42,8.17,33.95
18737,-8.04,1.02,5.51,0.06,0.03,-0.16,-38.42,8.17,33.95
18748,-8.06,1.21,5.37,0.10,0.13,-0.16,-38.42,8.17,33.95
18759,-8.06,1.21,5.37,0.10,0.13,-0.16,-38.42,8.17,33.95
18770,-9.49,0.67,4.53,0.08,0.17,-0.14,-37.35,9.49,33.42
18781,-9.49,0.67,4.53,0.08,0.17,-0.14,-37.35,9.49,33.42
18792,-8.65,1.41,4.98,-0.17,-0.01,0.01,-37.35,9.49,33.42
18803,-8.65,1.41,4.98,-0.17,-0.01,0.01,-37.35,9.49,33.42
18814,-8.52,0.43,5.42,-0.18,-0.02,0.08,-37.35,9.49,33.42
18825,-8.37,0.77,5.31,-0.15,0.02,0.18,-37.35,9.49,33.42
18836,-8.37,0.77,5.31,-0.15,0.02,0.18,-37.35,9.49,33.42
18847,-8.53,1.01,5.11,-0.01,0.02,0.15,-37.35,9.49,33.42
18858,-8.53,1.01,5.11,-0.01,0.02,0.15,-37.35,9.49,33.42
18869,-8.81,1.76,5.38,0.07,0.05,0.06,-37.35,9.49,33.42
18880,-8.81,1.76,5.38,0.07,0.05,0.06,-37.35,9.49,33.42
18891,-8.48,1.44,4.97,-0.02,0.14,-0.08,-38.85,9.05,34.31
18902,-8.48,1.44,4.97,-0.02,0.14,-0.08,-38.85,9.05,34.31
18913,-8.21,1.41,4.83,-0.06,0.15,-0.12,-38.85,9.05,34.31
18924,-8.21,1.41,4.83,-0.06,0.15,-0.12,-38.85,9.05,34.31
18935,-8.09,0.44,5.07,-0.10,0.12,-0.04,-38.85,9.05,34.31
18946,-8.78,0.38,4.51,-0.08,0.04,0.18,-38.85,9.05,34.31
18957,-8.78,0.38,4.51,-0.08,0.04,0.18,-38.85,9.05,34.31
18968,-7.72,1.38,5.09,-0.17,-0.23,0.36,-38.85,9.05,34.31
18979,-7.72,1.38,5.09,-0.17,-0.23,0.36,-38.85,9.05,34.31
18990,-7.75,1.59,5.28,-0.26,-0.25,0.35,-38.85,9.05,34.31
19001,-7.75,1.59,5.28,-0.26,-0.25,0.35,-38.85,9.05,34.31
19012,-7.48,1.12,5.30,-0.40,-0.22,0.29,-37.78,7.73,34.13
19023,-7.48,1.12,5.30,-0.40,-0.22,0.29,-37.78,7.73,34.13
19034,-7.79,1.13,5.65,-0.39,-0.17,0.25,-37.78,7.73,34.13
19046,-8.75,1.46,5.77,-0.16,0.08,0.14,-37.78,7.73,34.13
19056,-8.75,1.46,5.77,-0.16,0.08,0.14,-37.78,7.73,34.13
19067,-9.18,0.85,5.08,-0.13,0.13,-0.02,-37.78,7.73,34.13
19078,-9.18,0.85,5.08,-0.13,0.13,-0.02,-37.78,7.73,34.13
19089,-9.15,1.22,5.40,-0.11,0.06,-0.12,-37.78,7.73,34.13
19100,-9.15,1.22,5.40,-0.11,0.06,-0.12,-37.78,7.73,34.13
19111,-8.44,0.86,5.06,0.06,0.19,-0.25,-37.78,7.73,34.13
19122,-8.44,0.86,5.06,0.06,0.19,-0.25,-37.78,7.73,34.13
19133,-8.34,1.28,5.35,0.41,0.28,-0.21,-37.78,7.73,34.13
19144,-8.34,1.28,5.35,0.41,0.28,-0.21,-37.78,7.73,34.13
19155,-8.65,1.30,4.72,0.68,0.36,-0.20,-38.21,8.61,34.49
19166,-8.46,1.60,5.06,0.74,0.38,-0.21,-38.21,8.61,34.49
19177,-8.46,1.60,5.06,0.74,0.38,-0.21,-38.21,8.61,34.49
19188,-8.45,0.62,5.18,0.54,0.37,-0.18,-38.21,8.61,34.49
19199,-8.45,0.62,5.18,0.54,0.37,-0.18,-38.21,8.61,34.49
19210,-7.93,0.91,4.69,0.21,0.32,-0.03,-38.21,8.61,34.49
19221,-7.93,0.91,4.69,0.21,0.32,-0.03,-38.21,8.61,34.49
19232,-8.04,0.99,4.98,-0.13,0.19,0.07,-38.21,8.61,34.49
19243,-8.04,0.99,4.98,-0.13,0.19,0.07,-38.21,8.61,34.49
19254,-8.04,0.95,3.97,-0.31,0.08,0.28,-38.21,8.61,34.49
19265,-9.50,1.39,4.68,-0.28,-0.16,0.33,-40.13,9.34,32.52
19276,-9.50,1.39,4.68,-0.28,-0.16,0.33,-40.13,9.34,32.52
19287,-8.52,1.58,4.68,-0.29,-0.43,0.14,-40.13,9.34,32.52
19298,-8.52,1.58,4.68,-0.29,-0.43,0.14,-40.13,9.34,32.52
19309,-7.69,1.69,5.17,-0.28,-0.46,-0.09,-40.13,9.34,32.52
19320,-7.69,1.69,5.17,-0.28,-0.46,-0.09,-40.13,9.34,32.52
19331,-7.91,0.97,5.53,-0.16,-0.28,-0.29,-40.13,9.34,32.52
19342,-7.91,0.97,5.53,-0.16,-0.28,-0.29,-40.13,9.34,32.52
19353,-7.87,1.45,5.30,0.07,-0.01,-0.30,-40.13,9.34,32.52
19364,-7.87,1.45,5.30,0.07,-0.01,-0.30,-40.13,9.34,32.52
19375,-10.20,0.37,4.22,0.17,0.16,-0.21,-40.13,9.34,32.52
19386,-8.64,1.70,4.12,-0.03,0.04,0.11,-39.71,9.64,32.52
19397,-8.64,1.70,4.12,-0.03,0.04,0.11,-39.71,9.64,32.52
19408,-8.64,1.04,5.25,-0.05,0.06,0.23,-39.71,9.64,32.52
19419,-8.64,1.04,5.25,-0.05,0.06,0.23,-39.71,9.64,32.52
19430,-8.90,1.61,4.74,-0.11,0.16,0.33,-39.71,9.64,32.52
19441,-8.90,1.61,4.74,-0.11,0.16,0.33,-39.71,9.64,32.52
19452,-9.18,1.85,4.37,-0.24,0.15,0.25,-39.71,9.64,32.52
19463,-9.18,1.85,4.37,-0.24,0.15,0.25,-39.71,9.64,32.52
19474,-7.99,0.68,5.23,-0.40,-0.06,0.08,-39.71,9.64,32.52
19485,-7.48,1.00,5.58,-0.25,-0.04,0.00,-39.71,9.64,32.52
19496,-7.48,1.00,5.58,-0.25,-0.04,0.00,-39.71,9.64,32.52
19507,-7.74,0.44,5.93,-0.02,0.10,-0.17,-39.71,9.05,33.59
19518,-7.74,0.44,5.93,-0.02,0.10,-0.17,-39.71,9.05,33.59
19529,-9.61,0.97,3.98,0.14,0.27,-0.14,-39.71,9.05,33.59
19540,-9.61,0.97,3.98,0.14,0.27,-0.14,-39.71,9.05,33.59
19551,-8.76,2.07,4.52,0.06,0.08,-0.04,-39.71,9.05,33.59
19562,-8.76,2.07,4.52,0.06,0.08,-0.04,-39.71,9.05,33.59
19573,-8.54,1.06,5.08,-0.00,0.06,-0.08,-39.71,9.05,33.59
19585,-8.54,1.06,5.08,-0.00,0.06,-0.08,-39.71,9.05,33.59
19595,-8.49,0.65,5.14,0.01,0.09,-0.00,-39.71,9.05,33.59
19606,-8.19,0.72,4.99,0.02,0.13,0.11,-39.71,9.05,33.59
19617,-8.19,0.72,4.99,0.02,0.13,0.11,-39.71,9.05,33.59
19628,-8.22,0.96,4.87,0.05,0.09,0.19,-39.71,9.05,33.59
19639,-8.22,0.96,4.87,0.05,0.09,0.19,-39.71,9.05,33.59
19650,-7.99,0.54,4.53,0.07,-0.01,0.24,-39.71,9.05,32.17
19661,-7.99,0.54,4.53,0.07,-0.01,0.24,-39.71,9.05,32.17
19672,-8.70,1.54,5.21,0.01,-0.11,0.31,-39.71,9.05,32.17
19683,-8.70,1.54,5.21,0.01,-0.11,0.31,-39.71,9.05,32.17
19694,-8.64,1.39,4.35,-0.15,-0.14,0.08,-39.71,9.05,32.17
19705,-8.99,1.45,5.28,-0.20,-0.22,-0.15,-39.71,9.05,32.17
19716,-8.99,1.45,5.28,-0.20,-0.22,-0.15,-39.71,9.05,32.17
19727,-8.99,1.16,5.18,-0.17,-0.09,-0.33,-39.71,9.05,32.17
19738,-8.99,1.16,5.18,-0.17,-0.09,-0.33,-39.71,9.05,32.17
19749,-8.67,1.07,4.99,0.01,0.04,-0.35,-39.71,9.05,32.17
19760,-8.67,1.07,4.99,0.01,0.04,-0.35,-39.71,9.05,32.17
19771,-8.88,0.87,4.16,0.24,0.14,-0.25,-38.42,9.05,32.88
19782,-8.88,0.87,4.16,0.24,0.14,-0.25,-38.42,9.05,32.88
19793,-8.51,1.65,5.28,0.49,0.20,-0.14,-38.42,9.05,32.88
19804,-8.51,1.65,5.28,0.49,0.20,-0.14,-38.42,9.05,32.88
19815,-8.57,0.93,5.88,0.51,0.27,-0.08,-38.42,9.05,32.88
19826,-8.15,1.08,4.70,0.23,0.38,0.04,-38.42,9.05,32.88
19837,-8.15,1.08,4.70,0.23,0.38,0.04,-38.42,9.05,32.88
19848,-8.10,1.13,3.93,-0.28,0.32,0.18,-38.42,9.05,32.88
19859,-8.10,1.13,3.93,-0.28,0.32,0.18,-38.42,9.05,32.88
19870,-9.32,1.14,3.53,-0.58,0.03,0.28,-38.42,9.05,32.88
19881,-9.32,1.14,3.53,-0.58,0.03,0.28,-38.42,9.05,32.88
19892,-8.34,0.65,5.11,-0.67,-0.51,0.23,-38.21,8.61,33.42
19903,-8.34,0.65,5.11,-0.67,-0.51,0.23,-38.21,8.61,33.42
19914,-7.30,0.84,5.04,-0.58,-0.61,0.20,-38.21,8.61,33.42
19925,-7.30,0.84,5.04,-0.58,-0.61,0.20,-38.21,8.61,33.42
19936,-8.12,0.89,5.28,-0.32,-0.48,0.10,-38.21,8.61,33.42
19947,-7.96,1.67,5.34,-0.16,-0.38,0.05,-38.21,8.61,33.42
19958,-7.96,1.67,5.34,-0.16,-0.38,0.05,-38.21,8.61,33.42
19969,-8.24,1.50,5.77,0.02,-0.19,-0.07,-38.21,8.61,33.42
19980,-8.24,1.50,5.77,0.02,-0.19,-0.07,-38.21,8.61,33.42
19991,-8.44,1.13,5.23,0.16,0.07,-0.11,-38.21,8.61,33.42
20002,-8.44,1.13,5.23,0.16,0.07,-0.11,-38.21,8.61,33.42
20013,-10.26,0.82,4.84,0.25,0.21,-0.06,-38.21,8.61,33.42
20024,-10.26,0.82,4.84,0.25,0.21,-0.06,-38.21,8.61,33.42
20035,-8.51,0.93,5.08,0.08,0.08,0.12,-37.56,9.64,33.59
20046,-8.74,1.19,5.82,-0.06,0.05,0.20,-37.56,9.64,33.59
20057,-8.74,1.19,5.82,-0.06,0.05,0.20,-37.56,9.64,33.59
20068,-8.78,1.15,5.41,-0.15,0.16,0.17,-37.56,9.64,33.59
20079,-8.78,1.15,5.41,-0.15,0.16,0.17,-37.56,9.64,33.59
20090,-9.50,1.12,4.60,-0.17,0.22,0.13,-37.56,9.64,33.59
20101,-9.50,1.12,4.60,-0.17,0.22,0.13,-37.56,9.64,33.59
20112,-8.57,0.81,4.72,-0.32,0.04,0.14,-37.56,9.64,33.59
20123,-8.57,0.81,4.72,-0.32,0.04,0.14,-37.56,9.64,33.59
20134,-7.91,1.96,4.56,-0.38,-0.01,0.27,-37.56,9.64,33.59
20145,-7.91,1.96,4.56,-0.38,-0.01,0.27,-37.56,9.64,33.59
20156,-7.64,1.19,5.31,-0.32,0.01,0.18,-37.99,9.34,34.31
20167,-7.59,0.94,5.34,-0.15,0.08,0.08,-37.99,9.34,34.31
20178,-7.59,0.94,5.34,-0.15,0.08,0.08,-37.99,9.34,34.31
20189,-7.97,0.33,5.65,0.04,0.13,-0.01,-37.99,9.34,34.31
20200,-7.97,0.33,5.65,0.04,0.13,-0.01,-37.99,9.34,34.31
20211,-8.03,1.17,4.88,0.23,0.23,0.07,-37.99,9.34,34.31
20222,-8.03,1.17,4.88,0.23,0.23,0.07,-37.99,9.34,34.31
20233,-10.08,0.95,4.06,0.25,0.23,0.04,-37.99,9.34,34.31
20244,-10.08,0.95,4.06,0.25,0.23,0.04,-37.99,9.34,34.31
20255,-8.81,1.84,4.89,0.08,-0.04,-0.01,-37.99,9.34,34.31
20266,-8.86,1.03,4.84,0.11,-0.12,-0.16,-38.85,8.76,33.59
20277,-8.86,1.03,4.84,0.11,-0.12,-0.16,-38.85,8.76,33.59
20288,-8.86,0.69,5.59,0.12,-0.11,-0.26,-38.85,8.76,33.59
20299,-8.86,0.69,5.59,0.12,-0.11,-0.26,-38.85,8.76,33.59
20310,-8.51,1.47,5.25,0.05,-0.02,-0.24,-38.85,8.76,33.59
20321,-8.51,1.47,5.25,0.05,-0.02,-0.24,-38.85,8.76,33.59
20332,-8.46,1.38,4.84,-0.00,0.06,-0.24,-38.85,8.76,33.59
20343,-8.46,1.38,4.84,-0.00,0.06,-0.24,-38.85,8.76,33.59
20354,-8.93,1.55,5.28,0.02,0.13,-0.18,-38.85,8.76,33.59
20365,-8.93,1.55,5.28,0.02,0.13,-0.18,-38.85,8.76,33.59
20376,-8.69,0.82,4.62,0.02,0.26,-0.12,-38.85,8.76,33.59
20387,-8.45,1.09,5.18,0.16,0.32,-0.08,-38.85,8.76,33.59
20398,-8.45,1.09,5.18,0.16,0.32,-0.08,-38.85,8.76,33.59
20409,-8.28,0.59,4.08,0.34,0.33,-0.09,-38.85,8.76,33.59
20420,-8.28,0.59,4.08,0.34,0.33,-0.09,-38.85,8.76,33.59
20431,-8.58,2.11,4.25,0.46,0.16,-0.12,-38.85,8.76,33.59
20442,-8.58,2.11,4.25,0.46,0.16,-0.12,-38.85,8.76,33.59
20453,-8.37,2.44,3.85,0.24,-0.02,-0.43,-38.85,8.76,33.59
20464,-8.37,2.44,3.85,0.24,-0.02,-0.43,-38.85,8.76,33.59
20475,-8.50,1.82,4.85,0.05,-0.20,-0.68,-38.85,8.76,33.59
20486,-8.47,1.71,4.60,-0.02,-0.26,-0.78,-38.85,8.76,33.59
20497,-8.47,1.71,4.60,-0.02,-0.26,-0.78,-38.85,8.76,33.59
20508,-10.59,0.03,3.46,0.14,-0.42,-0.82,-38.85,8.76,33.59
20519,-10.59,0.03,3.46,0.14,-0.42,-0.82,-38.85,8.76,33.59
20530,-9.59,0.54,4.52,0.24,-0.66,-0.34,-39.06,6.56,33.77
20541,-9.59,0.54,4.52,0.24,-0.66,-0.34,-39.06,6.56,33.77
20552,-8.68,3.71,3.47,0.26,-0.46,0.26,-39.06,6.56,33.77
20563,-8.68,3.71,3.47,0.26,-0.46,0.26,-39.06,6.56,33.77
20574,-7.96,3.07,5.08,0.03,-0.32,0.18,-39.06,6.56,33.77
20585,-7.96,3.07,5.08,0.03,-0.32,0.18,-39.06,6.56,33.77
20596,-7.93,0.02,6.13,-0.26,-0.05,-0.13,-39.06,6.56,33.77
20607,-7.35,-2.38,6.12,-0.21,0.06,-0.39,-39.06,6.56,33.77
20618,-7.35,-2.38,6.12,-0.21,0.06,-0.39,-39.06,6.56,33.77
20629,-6.96,-2.10,6.04,0.09,-0.02,-0.29,-39.06,6.56,33.77
20640,-6.96,-2.10,6.04,0.09,-0.02,-0.29,-39.06,6.56,33.77
20651,-6.90,-1.72,6.59,0.26,-0.21,-0.37,-40.56,6.70,33.24
20662,-6.90,-1.72,6.59,0.26,-0.21,-0.37,-40.56,6.70,33.24
20673,-8.17,-1.45,6.27,0.29,-0.21,-0.44,-40.56,6.70,33.24
20684,-8.17,-1.45,6.27,0.29,-0.21,-0.44,-40.56,6.70,33.24
20695,-9.21,0.61,5.11,0.36,-0.14,-0.23,-40.56,6.70,33.24
20706,-8.92,1.87,4.40,0.30,-0.20,-0.16,-40.56,6.70,33.24
20717,-8.92,1.87,4.40,0.30,-0.20,-0.16,-40.56,6.70,33.24
20728,-8.36,1.49,5.12,0.16,-0.31,-0.24,-40.56,6.70,33.24
20739,-8.36,1.49,5.12,0.16,-0.31,-0.24,-40.56,6.70,33.24
20750,-8.34,1.01,5.64,-0.08,-0.29,-0.24,-40.56,6.70,33.24
20761,-8.34,1.01,5.64,-0.08,-0.29,-0.24,-40.56,6.70,33.24
20772,-8.18,-0.13,5.93,-0.23,-0.18,-0.22,-39.92,6.26,35.56
20783,-8.18,-0.13,5.93,-0.23,-0.18,-0.22,-39.92,6.26,35.56
20794,-8.16,0.03,5.35,-0.18,-0.06,-0.05,-39.92,6.26,35.56
20805,-8.16,0.03,5.35,-0.18,-0.06,-0.05,-39.92,6.26,35.56
20816,-8.49,0.67,5.29,-0.07,-0.04,0.06,-39.92,6.26,35.56
20827,-8.61,0.79,5.06,0.00,-0.05,0.00,-39.92,6.26,35.56
20838,-8.61,0.79,5.06,0.00,-0.05,0.00,-39.92,6.26,35.56
20849,-8.07,0.44,5.37,-0.03,-0.12,-0.09,-39.92,6.26,35.56
20860,-8.07,0.44,5.37,-0.03,-0.12,-0.09,-39.92,6.26,35.56
20871,-7.73,0.47,5.74,-0.08,-0.11,-0.06,-39.92,6.26,35.56
20882,-7.73,0.47,5.74,-0.08,-0.11,-0.06,-39.92,6.26,35.56
20893,-7.77,0.32,5.88,-0.12,0.00,-0.03,-39.92,6.26,35.56
20904,-7.77,0.32,5.88,-0.12,0.00,-0.03,-39.92,6.26,35.56
20915,-7.81,0.11,5.81,-0.01,0.11,-0.02,-38.21,6.85,34.84
20926,-7.81,0.11,5.81,-0.01,0.11,-0.02,-38.21,6.85,34.84
20937,-7.94,0.43,5.63,0.11,0.24,0.04,-38.21,6.85,34.84
20948,-9.09,0.34,5.68,0.24,0.40,0.08,-38.21,6.85,34.84
20959,-9.09,0.34,5.68,0.24,0.40,0.08,-38.21,6.85,34.84
20970,-8.94,0.26,5.03,0.18,0.22,0.08,-38.21,6.85,34.84
20981,-8.94,0.26,5.03,0.18,0.22,0.08,-38.21,6.85,34.84
20992,-8.72,1.36,4.85,0.47,0.10,-0.08,-38.21,6.85,34.84
21003,-8.72,1.36,4.85,0.47,0.10,-0.08,-38.21,6.85,34.84
21014,-8.19,1.02,4.54,0.53,0.07,-0.33,-38.21,6.85,34.84
21030,-8.19,1.02,4.54,0.53,0.07,-0.33,-38.21,6.85,34.84
21036,-8.39,0.80,5.23,0.28,-0.01,-0.36,-39.49,6.56,32.70
21047,-8.52,0.51,5.45,-0.03,-0.03,-0.26,-39.49,6.56,32.70
21058,-8.52,0.51,5.45,-0.03,-0.03,-0.26,-39.49,6.56,32.70
21069,-9.23,-0.60,4.75,-0.38,-0.11,-0.02,-39.49,6.56,32.70
21080,-9.23,-0.60,4.75,-0.38,-0.11,-0.02,-39.49,6.56,32.70
21091,-7.87,-0.02,5.30,-0.78,-0.34,0.45,-39.49,6.56,32.70
21102,-7.87,-0.02,5.30,-0.78,-0.34,0.45,-39.49,6.56,32.70
21113,-7.79,0.89,5.51,-0.76,-0.29,0.78,-39.49,6.56,32.70
21124,-7.79,0.89,5.51,-0.76,-0.29,0.78,-39.49,6.56,32.70
21135,-7.97,1.01,5.64,-0.56,-0.17,0.80,-39.49,6.56,32.70
21146,-7.97,1.01,5.64,-0.56,-0.17,0.80,-39.49,6.56,32.70
21157,-7.11,0.55,5.87,-0.38,-0.05,0.57,-37.78,7.14,34.84
21168,-7.77,0.02,5.82,-0.16,0.14,0.44,-37.78,7.14,34.84
21179,-7.77,0.02,5.82,-0.16,0.14,0.44,-37.78,7.14,34.84
21190,-8.02,0.38,5.74,0.02,0.21,0.40,-37.78,7.14,34.84
21201,-8.02,0.38,5.74,0.02,0.21,0.40,-37.78,7.14,34.84
21212,-7.93,0.94,5.46,0.16,0.25,0.30,-37.78,7.14,34.84
21223,-7.93,0.94,5.46,0.16,0.25,0.30,-37.78,7.14,34.84
21234,-8.36,0.97,5.39,0.19,0.29,0.15,-37.78,7.14,34.84
21245,-8.36,0.97,5.39,0.19,0.29,0.15,-37.78,7.14,34.84
21256,-8.37,0.83,4.94,0.03,0.12,0.11,-37.78,7.14,34.84
21267,-8.43,0.88,5.28,0.01,-0.05,0.12,-37.78,7.14,34.84
21278,-8.43,0.88,5.28,0.01,-0.05,0.12,-37.78,7.14,34.84
21289,-8.34,0.72,5.09,0.07,-0.08,0.06,-39.28,7.29,35.02
21300,-8.34,0.72,5.09,0.07,-0.08,0.06,-39.28,7.29,35.02
21311,-8.33,0.74,4.93,0.16,-0.10,0.02,-39.28,7.29,35.02
21322,-8.33,0.74,4.93,0.16,-0.10,0.02,-39.28,7.29,35.02
21333,-8.27,1.05,5.12,0.23,-0.16,-0.05,-39.28,7.29,35.02
21344,-8.27,1.05,5.12,0.23,-0.16,-0.05,-39.28,7.29,35.02
21355,-8.76,1.02,5.61,0.26,-0.16,-0.21,-39.28,7.29,35.02
21366,-8.76,1.02,5.61,0.26,-0.16,-0.21,-39.28,7.29,35.02
21377,-8.53,1.06,4.78,0.13,-0.03,-0.37,-39.28,7.29,35.02
21388,-8.86,1.62,5.57,0.08,0.03,-0.39,-39.28,7.29,35.02
21399,-8.86,1.62,5.57,0.08,0.03,-0.39,-39.28,7.29,35.02
21410,-8.27,1.16,5.38,0.13,0.18,-0.39,-39.71,7.29,33.95
21421,-8.27,1.16,5.38,0.13,0.18,-0.39,-39.71,7.29,33.95
21432,-8.32,0.49,5.09,0.21,0.24,-0.25,-39.71,7.29,33.95
21443,-8.32,0.49,5.09,0.21,0.24,-0.25,-39.71,7.29,33.95
21454,-7.90,0.68,5.42,0.25,0.24,-0.04,-39.71,7.29,33.95
21466,-7.90,0.68,5.42,0.25,0.24,-0.04,-39.71,7.29,33.95
21476,-7.65,0.49,4.69,0.14,0.19,0.12,-39.71,7.29,33.95
21487,-7.93,0.34,5.38,0.14,0.05,0.30,-39.71,7.29,33.95
21498,-7.93,0.34,5.38,0.14,0.05,0.30,-39.71,7.29,33.95
21509,-8.27,0.61,5.34,-0.01,-0.04,0.37,-39.71,7.29,33.95
21520,-8.27,0.61,5.34,-0.01,-0.04,0.37,-39.71,7.29,33.95
21531,-8.07,0.99,4.72,-0.08,-0.13,0.38,-38.42,8.76,32.88
21542,-8.07,0.99,4.72,-0.08,-0.13,0.38,-38.42,8.76,32.88
21553,-9.21,1.47,5.91,-0.10,-0.22,0.28,-38.42,8.76,32.88
21564,-9.21,1.47,5.91,-0.10,-0.22,0.28,-38.42,8.76,32.88
21575,-8.71,1.09,4.60,-0.19,-0.06,0.05,-38.42,8.76,32.88
21586,-8.71,1.09,4.60,-0.19,-0.06,0.05,-38.42,8.76,32.88
21597,-8.77,1.06,5.25,-0.14,-0.04,-0.06,-38.42,8.76,32.88
21608,-8.61,1.19,5.63,0.04,0.06,-0.12,-38.42,8.76,32.88
21619,-8.61,1.19,5.63,0.04,0.06,-0.12,-38.42,8.76,32.88
21630,-8.31,1.09,5.02,0.16,0.19,-0.14,-38.42,8.76,32.88
21641,-8.31,1.09,5.02,0.16,0.19,-0.14,-38.42,8.76,32.88
21652,-8.13,1.16,5.24,0.24,0.22,-0.04,-38.63,8.61,34.13
21663,-8.13,1.16,5.24,0.24,0.22,-0.04,-38.63,8.61,34.13
21674,-7.93,0.71,5.20,0.16,0.20,0.08,-38.63,8.61,34.13
21685,-7.93,0.71,5.20,0.16,0.20,0.08,-38.63,8.61,34.13
21696,-7.77,0.96,4.93,0.10,0.12,0.24,-38.63,8.61,34.13
21707,-8.22,1.19,5.42,-0.06,-0.02,0.27,-38.63,8.61,34.13
21718,-8.22,1.19,5.42,-0.06,-0.02,0.27,-38.63,8.61,34.13
21729,-7.89,0.99,4.73,-0.21,-0.09,0.21,-38.63,8.61,34.13
21740,-7.89,0.99,4.73,-0.21,-0.09,0.21,-38.63,8.61,34.13
21751,-8.65,1.01,5.06,-0.26,-0.21,0.22,-38.63,8.61,34.13
21762,-8.65,1.01,5.06,-0.26,-0.21,0.22,-38.63,8.61,34.13
21773,-9.12,1.38,5.57,-0.28,-0.14,0.13,-38.63,8.61,34.13
21784,-9.12,1.38,5.57,-0.28,-0.14,0.13,-38.63,8.61,34.13
21795,-8.77,0.57,4.61,-0.19,-0.00,-0.01,-38.85,8.46,33.95
21806,-8.77,0.57,4.61,-0.19,-0.00,-0.01,-38.85,8.46,33.95
21817,-9.18,1.44,5.42,0.05,0.06,-0.04,-38.85,8.46,33.95
21828,-8.53,0.90,5.15,0.27,0.23,-0.13,-38.85,8.46,33.95
21839,-8.53,0.90,5.15,0.27,0.23,-0.13,-38.85,8.46,33.95
21850,-8.00,1.33,5.39,0.49,0.26,-0.04,-38.85,8.46,33.95
21861,-8.00,1.33,5.39,0.49,0.26,-0.04,-38.85,8.46,33.95
21872,-7.85,1.43,5.36,0.46,0.21,0.03,-38.85,8.46,33.95
21883,-7.85,1.43,5.36,0.46,0.21,0.03,-38.85,8.46,33.95
21894,-7.91,0.90,5.48,0.20,0.09,0.06,-38.85,8.46,33.95
21905,-7.91,0.90,5.48,0.20,0.09,0.06,-38.85,8.46,33.95
21916,-8.33,1.21,5.24,-0.19,0.01,0.15,-38.85,9.34,32.88
21927,-8.33,1.21,5.24,-0.19,0.01,0.15,-38.85,9.34,32.88
21938,-8.10,1.13,5.17,-0.48,-0.07,0.18,-38.85,9.34,32.88
21949,-8.64,0.58,5.43,-0.72,-0.18,0.19,-38.85,9.34,32.88
21960,-8.64,0.58,5.43,-0.72,-0.18,0.19,-38.85,9.34,32.88
21971,-9.09,0.78,5.38,-0.74,-0.11,0.21,-38.85,9.34,32.88
21982,-9.09,0.78,5.38,-0.74,-0.11,0.21,-38.85,9.34,32.88
21993,-8.65,0.91,4.41,-0.50,0.05,0.13,-38.85,9.34,32.88
22004,-8.65,0.91,4.41,-0.50,0.05,0.13,-38.85,9.34,32.88
22015,-8.82,1.17,5.00,-0.12,0.04,0.11,-38.85,9.34,32.88
22026,-8.82,1.17,5.00,-0.12,0.04,0.11,-38.85,9.34,32.88
22037,-8.56,1.46,5.49,0.06,0.14,0.14,-38.63,9.20,33.42
22048,-8.35,0.85,5.10,0.09,0.20,0.17,-38.63,9.20,33.42
22059,-8.35,0.85,5.10,0.09,0.20,0.17,-38.63,9.20,33.42
22070,-8.19,1.51,4.66,0.18,0.17,0.27,-38.63,9.20,33.42
22081,-8.19,1.51,4.66,0.18,0.17,0.27,-38.63,9.20,33.42
22092,-7.90,1.28,5.14,0.21,0.10,0.29,-38.63,9.20,33.42
22103,-7.90,1.28,5.14,0.21,0.10,0.29,-38.63,9.20,33.42
22114,-8.20,0.95,5.77,0.02,-0.02,0.17,-38.63,9.20,33.42
22125,-8.20,0.95,5.77,0.02,-0.02,0.17,-38.63,9.20,33.42
22136,-8.14,1.03,4.35,-0.17,-0.06,0.07,-38.63,9.20,33.42
22147,-8.14,1.03,4.35,-0.17,-0.06,0.07,-38.63,9.20,33.42
22158,-8.61,1.57,4.86,-0.13,-0.19,0.01,-38.63,9.20,33.42
22169,-8.82,1.56,5.11,-0.11,-0.21,-0.11,-37.78,9.49,33.77
22180,-8.82,1.56,5.11,-0.11,-0.21,-0.11,-37.78,9.49,33.77
22191,-8.78,1.42,5.23,-0.14,-0.11,-0.27,-37.78,9.49,33.77
22202,-8.78,1.42,5.23,-0.14,-0.11,-0.27,-37.78,9.49,33.77
22213,-8.36,0.70,4.83,-0.03,0.02,-0.38,-37.78,9.49,33.77
22224,-8.36,0.70,4.83,-0.03,0.02,-0.38,-37.78,9.49,33.77
22235,-8.26,1.18,4.89,0.14,0.03,-0.31,-37.78,9.49,33.77
22246,-8.26,1.18,4.89,0.14,0.03,-0.31,-37.78,9.49,33.77
22257,-8.51,1.39,5.63,0.33,0.04,-0.17,-37.78,9.49,33.77
22268,-8.44,0.61,5.50,0.40,0.15,-0.09,-37.78,9.49,33.77
22279,-8.44,0.61,5.50,0.40,0.15,-0.09,-37.78,9.49,33.77
22290,-8.23,1.39,4.67,0.29,0.29,0.07,-37.35,8.32,32.35
22301,-8.23,1.39,4.67,0.29,0.29,0.07,-37.35,8.32,32.35
22312,-8.40,1.36,4.31,0.14,0.30,0.22,-37.35,8.32,32.35
22323,-8.40,1.36,4.31,0.14,0.30,0.22,-37.35,8.32,32.35
22334,-8.72,2.32,3.79,-0.06,0.22,0.39,-37.35,8.32,32.35
22345,-8.72,2.32,3.79,-0.06,0.22,0.39,-37.35,8.32,32.35
22356,-8.56,1.67,4.97,-0.42,-0.10,0.40,-37.35,8.32,32.35
22367,-8.56,1.67,4.97,-0.42,-0.10,0.40,-37.35,8.32,32.35
22378,-7.37,1.44,5.27,-0.50,-0.16,0.35,-37.35,8.32,32.35
22389,-7.32,0.41,5.92,-0.32,-0.08,0.17,-37.35,8.32,32.35
22400,-7.32,0.41,5.92,-0.32,-0.08,0.17,-37.35,8.32,32.35
22411,-7.39,0.70,5.68,-0.12,-0.00,0.08,-36.06,8.90,34.13
22422,-7.39,0.70,5.68,-0.12,-0.00,0.08,-36.06,8.90,34.13
22433,-8.83,1.44,4.43,-0.02,-0.04,0.07,-36.06,8.90,34.13
22444,-8.83,1.44,4.43,-0.02,-0.04,0.07,-36.06,8.90,34.13
22455,-9.00,2.19,4.38,-0.04,-0.20,0.06,-36.06,8.90,34.13
22466,-9.00,2.19,4.38,-0.04,-0.20,0.06,-36.06,8.90,34.13
22477,-8.79,1.02,4.96,-0.07,-0.23,-0.17,-36.06,8.90,34.13
22488,-8.96,1.16,5.69,-0.03,-0.20,-0.30,-36.06,8.90,34.13
22499,-8.96,1.16,5.69,-0.03,-0.20,-0.30,-36.06,8.90,34.13
22510,-8.63,0.60,4.97,0.03,-0.05,-0.44,-36.06,8.90,34.13
22521,-8.63,0.60,4.97,0.03,-0.05,-0.44,-36.06,8.90,34.13
22532,-8.57,1.24,5.04,0.22,0.04,-0.40,-36.06,8.90,34.13
22543,-8.57,1.24,5.04,0.22,0.04,-0.40,-36.06,8.90,34.13
22554,-8.39,1.64,5.44,0.44,0.13,-0.27,-37.99,8.17,34.31
22565,-8.39,1.64,5.44,0.44,0.13,-0.27,-37.99,8.17,34.31
22576,-8.51,1.07,5.31,0.65,0.23,-0.14,-37.99,8.17,34.31
22587,-8.51,1.07,5.31,0.65,0.23,-0.14,-37.99,8.17,34.31
22598,-8.48,1.10,5.77,0.57,0.33,0.04,-37.99,8.17,34.31
22609,-7.68,0.90,3.71,0.38,0.40,0.25,-37.99,8.17,34.31
22620,-7.68,0.90,3.71,0.38,0.40,0.25,-37.99,8.17,34.31
22631,-8.69,2.65,5.09,0.15,0.11,0.31,-37.99,8.17,34.31
22642,-8.69,2.65,5.09,0.15,0.11,0.31,-37.99,8.17,34.31
22653,-10.08,3.78,2.96,-0.43,-0.25,0.18,-37.99,8.17,34.31
22664,-10.08,3.78,2.96,-0.43,-0.25,0.18,-37.99,8.17,34.31
22675,-7.75,3.68,4.87,-0.75,-0.67,0.06,-38.21,8.32,33.42
22686,-7.75,3.68,4.87,-0.75,-0.67,0.06,-38.21,8.32,33.42
22697,-8.67,3.91,3.86,-0.54,-0.26,0.07,-38.21,8.32,33.42
22708,-8.43,0.77,5.48,-0.25,-0.23,-0.23,-38.21,8.32,33.42
22719,-8.43,0.77,5.48,-0.25,-0.23,-0.23,-38.21,8.32,33.42
22730,-7.42,-0.39,6.11,0.25,-0.22,-0.44,-38.21,8.32,33.42
22741,-7.42,-0.39,6.11,0.25,-0.22,-0.44,-38.21,8.32,33.42
22752,-7.44,-0.28,6.32,0.69,-0.07,-0.53,-38.21,8.32,33.42
22763,-7.44,-0.28,6.32,0.69,-0.07,-0.53,-38.21,8.32,33.42
22774,-7.47,-0.10,5.99,0.58,0.05,-0.60,-38.21,8.32,33.42
22785,-7.47,-0.10,5.99,0.58,0.05,-0.60,-38.21,8.32,33.42
22796,-7.60,-0.84,5.38,0.33,-0.06,-0.79,-38.42,8.76,33.59
22807,-7.60,-0.84,5.38,0.33,-0.06,-0.79,-38.42,8.76,33.59
22818,-7.90,-1.81,6.44,0.29,-0.26,-0.89,-38.42,8.76,33.59
22829,-8.88,-0.22,5.19,0.23,-0.15,-0.50,-38.42,8.76,33.59
22840,-8.88,-0.22,5.19,0.23,-0.15,-0.50,-38.42,8.76,33.59
22851,-8.53,0.95,5.05,0.07,-0.21,-0.27,-38.42,8.76,33.59
22862,-8.53,0.95,5.05,0.07,-0.21,-0.27,-38.42,8.76,33.59
22873,-8.53,1.49,4.76,0.04,-0.20,-0.18,-38.42,8.76,33.59
22884,-8.53,1.49,4.76,0.04,-0.20,-0.18,-38.42,8.76,33.59
22895,-8.57,1.54,5.21,-0.03,-0.22,-0.10,-38.42,8.76,33.59
22906,-8.57,1.54,5.21,-0.03,-0.22,-0.10,-38.42,8.76,33.59
22917,-8.21,0.91,5.56,-0.20,-0.16,-0.02,-39.49,7.14,34.13
22928,-8.21,0.91,5.56,-0.20,-0.16,-0.02,-39.49,7.14,34.13
22939,-7.94,0.35,5.81,-0.16,-0.13,-0.02,-39.49,7.14,34.13
22950,-8.19,0.65,5.75,-0.05,-0.09,0.03,-39.49,7.14,34.13
22962,-8.19,0.65,5.75,-0.05,-0.09,0.03,-39.49,7.14,34.13
22972,-8.16,1.23,5.31,-0.05,-0.04,0.10,-39.49,7.14,34.13
22983,-8.16,1.23,5.31,-0.05,-0.04,0.10,-39.49,7.14,34.13
22994,-8.15,1.13,5.51,-0.03,-0.00,0.09,-39.49,7.14,34.13
23005,-8.15,1.13,5.51,-0.03,-0.00,0.09,-39.49,7.14,34.13
23016,-8.28,0.86,5.42,0.04,0.02,0.04,-39.49,7.14,34.13
23027,-8.28,0.86,5.42,0.04,0.02,0.04,-39.49,7.14,34.13
23038,-7.98,0.92,5.46,0.02,0.00,0.02,-39.49,7.14,34.13
23049,-8.23,0.86,5.58,-0.01,0.03,0.04,-40.13,7.58,33.59
23060,-8.23,0.86,5.58,-0.01,0.03,0.04,-40.13,7.58,33.59
23071,-8.22,0.68,5.27,-0.03,0.05,0.05,-40.13,7.58,33.59
23082,-8.22,0.68,5.27,-0.03,0.05,0.05,-40.13,7.58,33.59
23093,-8.24,0.84,5.43,-0.00,0.03,0.07,-40.13,7.58,33.59
23104,-8.24,0.84,5.43,-0.00,0.03,0.07,-40.13,7.58,33.59
23115,-8.02,0.93,5.42,-0.01,0.02,0.09,-40.13,7.58,33.59
23126,-8.02,0.93,5.42,-0.01,0.02,0.09,-40.13,7.58,33.59
23137,-8.01,0.87,5.41,-0.02,0.03,0.07,-40.13,7.58,33.59
23148,-8.01,0.87,5.41,-0.02,0.03,0.07,-40.13,7.58,33.59
23159,-7.87,0.97,5.58,0.10,0.08,0.03,-40.13,7.58,33.59
23170,-9.37,0.64,4.94,0.10,0.11,0.03,-37.99,8.17,33.95
23181,-9.37,0.64,4.94,0.10,0.11,0.03,-37.99,8.17,33.95
23192,-8.57,1.16,4.68,-0.02,-0.00,0.04,-37.99,8.17,33.95
23203,-8.57,1.16,4.68,-0.02,-0.00,0.04,-37.99,8.17,33.95
23214,-8.58,0.57,5.31,0.14,-0.02,-0.02,-37.99,8.17,33.95
23225,-8.58,0.57,5.31,0.14,-0.02,-0.02,-37.99,8.17,33.95
23236,-8.75,1.30,5.73,0.22,0.02,-0.10,-37.99,8.17,33.95
23247,-8.75,1.30,5.73,0.22,0.02,-0.10,-37.99,8.17,33.95
23258,-8.63,1.02,5.17,0.33,0.14,-0.28,-37.99,8.17,33.95
23269,-8.59,1.16,5.80,0.57,0.18,-0.24,-37.99,8.17,33.95
23280,-8.59,1.16,5.80,0.57,0.18,-0.24,-37.99,8.17,33.95
23291,-8.10,0.62,5.38,0.54,0.25,-0.15,-37.78,8.61,31.99
23302,-8.10,0.62,5.38,0.54,0.25,-0.15,-37.78,8.61,31.99
23313,-7.83,1.31,4.97,0.47,0.25,0.03,-37.78,8.61,31.99
23324,-7.83,1.31,4.97,0.47,0.25,0.03,-37.78,8.61,31.99
23335,-7.79,1.07,5.04,0.37,0.19,0.14,-37.78,8.61,31.99
23346,-7.79,1.07,5.04,0.37,0.19,0.14,-37.78,8.61,31.99
23357,-7.77,0.33,5.16,0.13,0.09,0.29,-37.78,8.61,31.99
23368,-7.77,0.33,5.16,0.13,0.09,0.29,-37.78,8.61,31.99
23379,-8.13,1.68,5.48,-0.11,-0.03,0.42,-37.78,8.61,31.99
23390,-7.70,0.94,4.68,-0.22,-0.11,0.35,-37.78,8.61,31.99
23401,-7.70,0.94,4.68,-0.22,-0.11,0.35,-37.78,8.61,31.99
23412,-8.44,1.59,5.13,-0.23,-0.24,0.33,-37.78,8.61,31.99
23423,-8.44,1.59,5.13,-0.23,-0.24,0.33,-37.78,8.61,31.99
23434,-9.09,1.64,5.27,-0.19,-0.22,0.17,-37.35,9.20,31.28
23445,-9.09,1.64,5.27,-0.19,-0.22,0.17,-37.35,9.20,31.28
23456,-8.58,1.61,4.85,-0.13,-0.09,-0.01,-37.35,9.20,31.28
23467,-8.58,1.61,4.85,-0.13,-0.09,-0.01,-37.35,9.20,31.28
23478,-8.61,1.24,5.43,-0.08,-0.05,-0.10,-37.35,9.20,31.28
