time,ax,ay,az,gx,gy,gz,mx,my,mz
402,-0.46,6.34,-8.04,0.00,0.00,-0.01,-20.88,13.47,-29.86
412,-0.44,6.34,-8.06,0.00,0.00,-0.01,-20.88,13.47,-29.86
423,-0.44,6.34,-8.06,0.00,0.00,-0.01,-20.88,13.47,-29.86
434,-0.43,6.35,-8.06,-0.00,0.00,-0.01,-20.88,13.47,-29.86
445,-0.43,6.35,-8.06,-0.00,0.00,-0.01,-20.88,13.47,-29.86
456,-0.47,6.38,-8.03,-0.01,-0.00,-0.01,-20.07,14.38,-28.40
471,-0.47,6.38,-8.03,-0.01,-0.00,-0.01,-20.07,14.38,-28.40
478,-0.50,6.36,-8.01,-0.01,-0.00,-0.01,-20.07,14.38,-28.40
489,-0.50,6.36,-8.01,-0.01,-0.00,-0.01,-20.07,14.38,-28.40
500,-0.45,6.35,-8.05,0.00,0.00,-0.01,-20.07,14.38,-28.40
511,-0.45,6.35,-8.05,0.00,0.00,-0.01,-20.07,14.38,-28.40
633,-0.45,6.32,-8.04,-0.00,0.00,-0.00,-21.48,13.32,-28.59
643,-0.45,6.32,-8.04,-0.00,0.00,-0.00,-21.48,13.32,-28.59
654,-0.48,6.34,-8.00,-0.01,0.00,-0.01,-21.48,13.32,-28.59
665,-0.48,6.34,-8.00,-0.01,0.00,-0.01,-21.48,13.32,-28.59
676,-0.46,6.34,-8.03,-0.01,0.00,-0.01,-21.48,13.32,-28.59
687,-0.46,6.34,-8.03,-0.01,0.00,-0.01,-21.48,13.32,-28.59
698,-0.44,6.34,-8.05,-0.01,0.00,-0.01,-20.07,14.08,-29.50
709,-0.44,6.34,-8.05,-0.01,0.00,-0.01,-20.07,14.08,-29.50
724,-0.43,6.32,-8.05,-0.01,0.00,-0.01,-20.07,14.08,-29.50
731,-0.43,6.32,-8.05,-0.01,0.00,-0.01,-20.07,14.08,-29.50
742,-0.46,6.36,-8.03,-0.01,0.00,-0.01,-20.07,14.08,-29.50
753,-0.46,6.37,-8.00,-0.00,0.00,-0.01,-20.07,14.08,-29.50
764,-0.46,6.37,-8.00,-0.00,0.00,-0.01,-20.07,14.08,-29.50
867,-0.46,6.36,-8.04,0.00,-0.00,-0.01,-22.48,13.17,-29.50
878,-0.44,6.35,-8.04,0.00,0.00,-0.01,-22.48,13.17,-29.50
889,-0.44,6.35,-8.04,0.00,0.00,-0.01,-22.48,13.17,-29.50
900,-0.43,6.34,-8.05,0.00,0.00,-0.01,-22.48,13.17,-29.50
911,-0.43,6.34,-8.05,0.00,0.00,-0.01,-22.48,13.17,-29.50
922,-0.46,6.36,-8.04,0.00,0.00,-0.01,-22.48,13.17,-29.50
933,-0.46,6.36,-8.04,0.00,0.00,-0.01,-22.48,13.17,-29.50
944,-0.46,6.36,-8.04,0.00,0.00,-0.01,-22.48,13.17,-29.50
955,-0.45,6.35,-8.04,0.00,0.00,-0.01,-20.68,14.53,-28.22
966,-0.45,6.35,-8.04,0.00,0.00,-0.01,-20.68,14.53,-28.22
977,-0.47,6.35,-8.06,0.00,0.00,-0.01,-20.68,14.53,-28.22
988,-0.47,6.35,-8.06,0.00,0.00,-0.01,-20.68,14.53,-28.22
999,-0.45,6.35,-8.02,0.00,0.00,-0.01,-20.68,14.53,-28.22
1104,-0.46,6.36,-8.05,-0.01,-0.00,-0.01,-20.47,14.08,-27.67
1114,-0.46,6.34,-8.04,-0.00,-0.00,-0.01,-20.47,14.08,-27.67
1125,-0.46,6.34,-8.04,-0.00,-0.00,-0.01,-20.47,14.08,-27.67
1136,-0.46,6.35,-8.03,-0.00,0.00,-0.01,-20.47,14.08,-27.67
1147,-0.46,6.35,-8.03,-0.00,0.00,-0.01,-20.47,14.08,-27.67
1158,-0.45,6.35,-8.03,-0.00,-0.00,-0.01,-20.47,14.08,-27.67
1169,-0.45,6.35,-8.03,-0.00,-0.00,-0.01,-20.47,14.08,-27.67
1180,-0.45,6.38,-8.03,-0.00,-0.00,-0.01,-20.47,14.08,-27.67
1196,-0.45,6.38,-8.03,-0.00,-0.00,-0.01,-20.47,14.08,-27.67
1202,-0.46,6.35,-8.04,-0.00,-0.00,-0.01,-21.08,13.32,-28.95
1213,-0.47,6.34,-8.05,-0.00,-0.00,-0.01,-21.08,13.32,-28.95
1224,-0.47,6.34,-8.05,-0.00,-0.00,-0.01,-21.08,13.32,-28.95
1235,-0.47,6.35,-8.06,-0.00,-0.00,-0.01,-21.08,13.32,-28.95
1338,-0.46,6.35,-8.04,-0.00,-0.00,-0.01,-19.87,13.62,-29.31
1348,-0.46,6.35,-8.04,-0.00,-0.00,-0.01,-19.87,13.62,-29.31
1359,-0.46,6.37,-8.04,0.00,0.00,-0.01,-19.87,13.62,-29.31
1370,-0.46,6.37,-8.04,0.00,0.00,-0.01,-19.87,13.62,-29.31
1381,-0.46,6.34,-8.04,-0.00,0.00,-0.01,-19.87,13.62,-29.31
1392,-0.46,6.36,-8.02,-0.00,0.00,-0.01,-19.87,13.62,-29.31
1403,-0.46,6.36,-8.02,-0.00,0.00,-0.01,-19.87,13.62,-29.31
1414,-0.46,6.35,-8.03,-0.00,0.00,-0.01,-19.87,13.62,-29.31
1425,-0.46,6.35,-8.03,-0.00,0.00,-0.01,-19.87,13.62,-29.31
1436,-0.45,6.35,-8.05,-0.00,0.00,-0.01,-19.87,13.62,-29.31
1447,-0.45,6.35,-8.05,-0.00,0.00,-0.01,-19.87,13.62,-29.31
1458,-0.46,6.35,-8.06,0.00,0.00,-0.01,-20.27,13.93,-29.68
1568,-0.46,6.35,-8.06,0.00,0.00,-0.01,-20.27,13.93,-29.68
1570,-0.46,6.36,-8.02,-0.00,0.00,-0.01,-20.27,13.93,-29.68
1580,-0.46,6.36,-8.06,0.00,0.00,-0.01,-21.08,13.62,-28.95
1591,-0.46,6.36,-8.06,0.00,0.00,-0.01,-21.08,13.62,-28.95
1602,-0.48,6.35,-8.03,-0.00,0.00,-0.01,-21.08,13.62,-28.95
1613,-0.46,6.35,-8.03,-0.00,0.00,-0.01,-21.08,13.62,-28.95
1624,-0.46,6.35,-8.03,-0.00,0.00,-0.01,-21.08,13.62,-28.95
1635,-0.45,6.36,-8.03,-0.00,0.00,-0.01,-21.08,13.62,-28.95
1646,-0.45,6.36,-8.03,-0.00,0.00,-0.01,-21.08,13.62,-28.95
1657,-0.46,6.37,-8.03,0.00,0.00,-0.01,-21.08,13.62,-28.95
1668,-0.46,6.37,-8.03,0.00,0.00,-0.01,-21.08,13.62,-28.95
1679,-0.47,6.36,-8.05,-0.00,0.00,-0.01,-21.08,13.62,-28.95
1690,-0.47,6.36,-8.05,-0.00,0.00,-0.01,-21.08,13.62,-28.95
1795,-0.47,6.35,-8.01,0.00,0.00,-0.01,-20.88,13.77,-29.50
1806,-0.47,6.35,-8.01,0.00,0.00,-0.01,-20.88,13.77,-29.50
1817,-0.46,6.34,-8.01,-0.00,0.00,-0.01,-20.88,13.77,-29.50
1828,-0.46,6.34,-8.01,-0.00,0.00,-0.01,-20.88,13.77,-29.50
1839,-0.45,6.35,-8.05,-0.00,0.00,-0.01,-21.48,13.62,-28.22
1850,-0.45,6.35,-8.05,-0.00,0.00,-0.01,-21.48,13.62,-28.22
1861,-0.47,6.35,-8.03,-0.00,0.00,-0.01,-21.48,13.62,-28.22
1872,-0.47,6.35,-8.03,-0.00,0.00,-0.01,-21.48,13.62,-28.22
1883,-0.48,6.35,-8.04,0.00,0.00,-0.01,-21.48,13.62,-28.22
1894,-0.46,6.36,-8.06,-0.00,0.00,-0.01,-21.48,13.62,-28.22
1905,-0.46,6.36,-8.06,-0.00,0.00,-0.01,-21.48,13.62,-28.22
1916,-0.45,6.36,-8.05,-0.00,0.00,-0.01,-21.48,13.62,-28.22
1927,-0.45,6.36,-8.05,-0.00,0.00,-0.01,-21.48,13.62,-28.22
2067,-0.48,6.35,-8.06,0.00,0.00,-0.01,-21.28,13.17,-28.77
2077,-0.48,6.33,-8.04,0.00,0.00,-0.01,-21.28,13.17,-28.77
2088,-0.48,6.33,-8.04,0.00,0.00,-0.01,-21.28,13.17,-28.77
2099,-0.48,6.36,-8.07,-0.00,0.00,-0.01,-20.07,13.47,-29.50
2110,-0.48,6.36,-8.07,-0.00,0.00,-0.01,-20.07,13.47,-29.50
2121,-0.46,6.37,-8.01,-0.00,-0.00,-0.01,-20.07,13.47,-29.50
2132,-0.46,6.37,-8.01,-0.00,-0.00,-0.01,-20.07,13.47,-29.50
2143,-0.46,6.36,-8.05,0.00,-0.00,-0.01,-20.07,13.47,-29.50
2154,-0.49,6.35,-8.06,0.00,0.00,-0.01,-20.07,13.47,-29.50
2165,-0.49,6.35,-8.06,0.00,0.00,-0.01,-20.07,13.47,-29.50
2176,-0.46,6.36,-8.04,-0.00,-0.00,-0.01,-20.07,13.47,-29.50
2187,-0.46,6.36,-8.04,-0.00,-0.00,-0.01,-20.07,13.47,-29.50
2198,-0.46,6.38,-8.03,-0.00,-0.00,-0.01,-20.07,13.47,-29.50
2301,-0.46,6.33,-8.03,-0.00,0.00,-0.01,-20.27,13.02,-30.04
2311,-0.46,6.33,-8.03,-0.00,0.00,-0.01,-20.27,13.02,-30.04
2322,-0.46,6.35,-8.02,-0.00,0.00,-0.01,-20.27,13.02,-30.04
2333,-0.46,6.37,-8.04,-0.00,0.00,-0.01,-20.27,14.23,-30.04
2344,-0.46,6.37,-8.04,-0.00,0.00,-0.01,-20.27,14.23,-30.41
2355,-0.47,6.33,-8.05,0.00,0.00,-0.01,-20.27,14.23,-30.41
2366,-0.47,6.33,-8.05,0.00,0.00,-0.01,-20.27,14.23,-30.41
2377,-0.48,6.34,-8.04,0.00,0.00,-0.01,-20.27,14.23,-30.41
2388,-0.48,6.34,-8.04,0.00,0.00,-0.01,-20.27,14.23,-30.41
2399,-0.48,6.37,-8.05,-0.00,0.00,-0.01,-20.27,14.23,-30.41
2410,-0.48,6.37,-8.05,-0.00,0.00,-0.01,-20.27,14.23,-30.41
2421,-0.45,6.38,-8.02,-0.00,0.00,-0.01,-20.27,14.23,-30.41
2432,-0.45,6.38,-8.02,-0.00,0.00,-0.01,-20.27,14.23,-30.41
2535,-0.48,6.36,-8.03,-0.00,0.00,-0.01,-21.28,14.38,-28.40
2546,-0.48,6.36,-8.03,-0.00,0.00,-0.01,-21.28,14.38,-28.40
2557,-0.48,6.33,-8.04,-0.00,0.00,-0.01,-21.28,14.38,-28.40
2568,-0.48,6.33,-8.04,-0.00,0.00,-0.01,-21.28,14.38,-28.40
2579,-0.47,6.33,-8.05,0.00,0.00,-0.01,-21.28,14.38,-28.40
2590,-0.47,6.33,-8.05,0.00,0.00,-0.01,-21.28,14.38,-28.40
2601,-0.46,6.34,-8.04,-0.00,0.00,-0.01,-20.88,13.77,-29.50
2612,-0.46,6.34,-8.04,-0.00,0.00,-0.01,-20.88,13.77,-29.50
2623,-0.46,6.36,-8.04,-0.00,0.00,-0.01,-20.88,13.77,-29.50
2634,-0.48,6.35,-8.03,0.00,0.00,-0.01,-20.88,13.77,-29.50
2645,-0.48,6.35,-8.03,0.00,0.00,-0.01,-20.88,13.77,-29.50
2656,-0.48,6.33,-8.06,0.00,0.00,-0.01,-20.88,13.77,-29.50
2667,-0.48,6.33,-8.06,0.00,0.00,-0.01,-20.88,13.77,-29.50
2772,-0.48,6.34,-8.04,0.00,0.00,-0.01,-18.87,13.17,-29.50
2782,-0.46,6.35,-8.04,-0.00,0.00,-0.01,-18.87,13.17,-29.50
2793,-0.46,6.35,-8.04,-0.00,0.00,-0.01,-18.87,13.17,-29.50
2804,-0.46,6.36,-8.02,-0.00,0.00,-0.01,-18.87,13.17,-29.50
2815,-0.46,6.38,-8.01,-0.00,0.00,-0.01,-18.87,13.17,-29.50
2826,-0.46,6.38,-8.01,-0.00,0.00,-0.01,-18.87,13.17,-29.50
2837,-0.48,6.33,-8.03,0.00,0.00,-0.01,-21.08,14.83,-27.86
2848,-0.48,6.33,-8.03,0.00,0.00,-0.01,-21.08,14.83,-27.86
2859,-0.48,6.34,-8.05,-0.00,0.00,-0.01,-21.08,14.83,-27.86
2870,-0.48,6.34,-8.05,-0.00,0.00,-0.01,-21.08,14.83,-27.86
2881,-0.48,6.34,-8.02,-0.00,0.00,-0.01,-21.08,14.83,-27.86
2892,-0.48,6.34,-8.02,-0.00,0.00,-0.01,-21.08,14.83,-27.86
2903,-0.46,6.35,-8.02,-0.00,0.00,-0.01,-21.08,14.83,-27.86
3008,-0.45,6.35,-8.04,-0.00,0.00,-0.01,-21.28,13.17,-30.23
3019,-0.47,6.37,-8.04,-0.00,0.00,-0.01,-21.28,13.17,-30.23
3030,-0.47,6.37,-8.04,-0.00,0.00,-0.01,-21.28,13.17,-30.23
3041,-0.48,6.35,-8.01,0.00,0.00,-0.01,-21.28,13.17,-30.23
3052,-0.48,6.35,-8.01,0.00,0.00,-0.01,-21.28,13.17,-30.23
3063,-0.47,6.33,-8.06,0.00,0.00,-0.01,-21.28,13.17,-30.23
3074,-0.46,6.34,-8.03,-0.00,0.00,-0.01,-21.28,13.17,-30.23
3085,-0.46,6.34,-8.03,-0.00,0.00,-0.01,-21.28,13.17,-30.23
3096,-0.48,6.35,-8.06,-0.00,0.00,-0.01,-21.08,13.02,-30.04
3107,-0.48,6.35,-8.06,-0.00,0.00,-0.01,-21.08,13.02,-30.04
3118,-0.48,6.37,-8.05,-0.00,0.00,-0.01,-21.08,13.02,-30.04
3129,-0.48,6.37,-8.05,-0.00,0.00,-0.01,-21.08,13.02,-30.04
3241,-0.47,6.34,-8.05,0.00,0.00,-0.01,-21.08,13.02,-30.04
3243,-0.48,6.35,-8.05,-0.00,0.00,-0.01,-21.08,13.93,-30.41
3253,-0.48,6.35,-8.05,-0.00,0.00,-0.01,-21.08,13.93,-30.41
3264,-0.46,6.34,-8.04,0.00,0.00,-0.01,-21.08,13.93,-30.41
3275,-0.45,6.36,-8.06,-0.00,0.00,-0.01,-21.08,13.93,-30.41
3286,-0.45,6.36,-8.06,-0.00,0.00,-0.01,-21.08,13.93,-30.41
3297,-0.46,6.36,-8.01,-0.00,0.00,-0.01,-21.08,13.93,-30.41
3308,-0.46,6.36,-8.01,-0.00,0.00,-0.01,-21.08,13.93,-30.41
3319,-0.48,6.35,-8.03,-0.00,0.00,-0.01,-21.08,13.93,-30.41
3330,-0.48,6.35,-8.03,-0.00,0.00,-0.01,-21.08,13.93,-30.41
3341,-0.49,6.35,-8.04,-0.00,0.00,-0.01,-21.08,13.93,-30.41
3352,-0.49,6.35,-8.04,-0.00,0.00,-0.01,-21.08,13.93,-30.41
3363,-0.47,6.34,-8.06,-0.00,0.00,-0.01,-20.27,13.32,-29.68
3466,-0.46,6.35,-8.07,-0.00,0.00,-0.01,-20.27,13.32,-29.68
3477,-0.46,6.35,-8.05,-0.00,0.00,-0.01,-20.88,13.17,-29.13
3488,-0.46,6.35,-8.05,-0.00,0.00,-0.01,-20.88,13.17,-29.13
3499,-0.47,6.36,-8.03,-0.00,0.00,-0.01,-20.88,13.17,-29.13
3510,-0.47,6.36,-8.03,-0.00,0.00,-0.01,-20.88,13.17,-29.13
3521,-0.48,6.35,-8.02,-0.00,0.00,-0.01,-20.88,13.17,-29.13
3532,-0.48,6.35,-8.02,-0.00,0.00,-0.01,-20.88,13.17,-29.13
3543,-0.47,6.34,-8.04,0.00,0.00,-0.01,-20.88,13.17,-29.13
3554,-0.47,6.34,-8.04,0.00,0.00,-0.01,-20.88,13.17,-29.13
3565,-0.46,6.34,-8.04,-0.00,0.00,-0.01,-20.88,13.17,-29.13
3576,-0.46,6.37,-8.05,-0.00,0.00,-0.01,-20.88,13.17,-29.13
3587,-0.46,6.37,-8.05,-0.00,0.00,-0.01,-20.88,13.17,-29.13
3598,-0.47,6.37,-8.04,-0.00,0.00,-0.01,-19.67,13.47,-28.77
3701,-0.48,6.34,-8.03,-0.00,0.00,-0.01,-19.67,13.47,-28.77
3712,-0.48,6.34,-8.03,-0.00,0.00,-0.01,-19.67,13.47,-28.77
3723,-0.49,6.37,-8.04,-0.00,0.00,-0.01,-19.67,13.47,-28.77
3734,-0.49,6.37,-8.04,-0.00,0.00,-0.01,-19.67,13.47,-28.77
3745,-0.46,6.35,-8.08,0.00,0.00,-0.01,-20.68,13.93,-30.41
3756,-0.46,6.36,-8.06,-0.00,0.00,-0.01,-20.68,13.93,-30.41
3767,-0.46,6.36,-8.06,-0.00,0.00,-0.01,-20.68,13.93,-30.41
3778,-0.47,6.36,-8.02,-0.00,0.00,-0.01,-20.68,13.93,-30.41
3789,-0.47,6.36,-8.02,-0.00,0.00,-0.01,-20.68,13.93,-30.41
3800,-0.47,6.36,-8.05,-0.00,0.00,-0.01,-20.68,13.93,-30.41
3811,-0.47,6.36,-8.05,-0.00,0.00,-0.01,-20.68,13.93,-30.41
3822,-0.48,6.34,-8.05,-0.00,0.00,-0.01,-20.68,13.93,-30.41
3833,-0.48,6.34,-8.05,-0.00,0.00,-0.01,-20.68,13.93,-30.41
3940,-0.47,6.36,-8.03,-0.00,0.00,-0.01,-21.88,13.32,-30.04
3951,-0.47,6.36,-8.03,-0.00,0.00,-0.01,-21.88,13.32,-30.04
3962,-0.45,6.34,-8.03,-0.00,0.00,-0.01,-21.88,13.32,-30.04
3973,-0.45,6.34,-8.03,-0.00,0.00,-0.01,-21.88,13.32,-30.04
3984,-0.47,6.35,-8.04,-0.00,0.00,-0.01,-19.87,12.72,-28.22
3995,-0.47,6.34,-8.02,-0.00,0.00,-0.01,-19.87,12.72,-28.22
4006,-0.47,6.34,-8.02,-0.00,0.00,-0.01,-19.87,12.72,-28.22
4017,-0.47,6.34,-8.02,-0.00,0.00,-0.01,-19.87,12.72,-28.22
4033,-0.47,6.34,-8.02,-0.00,0.00,-0.01,-19.87,12.72,-28.22
4039,-0.46,6.34,-8.04,-0.00,0.00,-0.01,-19.87,12.72,-28.22
4050,-0.46,6.34,-8.04,-0.00,0.00,-0.01,-19.87,12.72,-28.22
4061,-0.46,6.34,-8.04,-0.00,0.00,-0.01,-19.87,12.72,-28.22
4072,-0.46,6.34,-8.04,-0.00,0.00,-0.01,-19.87,12.72,-28.22
4212,-0.48,6.34,-8.04,-0.00,0.00,-0.01,-19.67,13.47,-29.13
4222,-0.47,6.36,-8.04,-0.00,0.00,-0.01,-19.67,13.47,-29.13
4233,-0.47,6.36,-8.04,-0.00,0.00,-0.01,-19.67,13.47,-29.13
4244,-0.47,6.36,-8.04,-0.00,0.00,-0.01,-19.87,13.62,-28.59
4255,-0.47,6.35,-8.04,-0.00,0.00,-0.01,-19.87,13.62,-28.59
4266,-0.47,6.35,-8.04,-0.00,0.00,-0.01,-19.87,13.62,-28.59
4277,-0.47,6.37,-8.04,-0.00,0.00,-0.01,-19.87,13.62,-28.59
4288,-0.47,6.37,-8.04,-0.00,0.00,-0.01,-19.87,13.62,-28.59
4299,-0.48,6.35,-8.04,-0.00,0.00,-0.01,-19.87,13.62,-28.59
4310,-0.48,6.35,-8.04,-0.00,0.00,-0.01,-19.87,13.62,-28.59
4321,-0.46,6.34,-8.06,-0.00,0.00,-0.01,-19.87,13.62,-28.59
4332,-0.46,6.34,-8.06,-0.00,0.00,-0.01,-19.87,13.62,-28.59
4343,-0.47,6.35,-8.04,-0.00,0.00,-0.01,-19.87,13.62,-28.59
4446,-0.47,6.35,-8.06,0.00,0.00,-0.01,-18.87,13.77,-28.40
4457,-0.46,6.35,-8.03,-0.00,0.00,-0.01,-18.87,13.77,-28.40
4468,-0.46,6.35,-8.03,-0.00,0.00,-0.01,-18.87,13.77,-28.40
4479,-0.48,6.36,-8.01,-0.00,0.00,-0.01,-22.08,13.77,-28.77
4490,-0.48,6.36,-8.01,-0.00,0.00,-0.01,-22.08,13.77,-28.77
4501,-0.49,6.35,-8.03,-0.00,0.00,-0.01,-22.08,13.77,-28.77
4512,-0.49,6.35,-8.03,-0.00,0.00,-0.01,-22.08,13.77,-28.77
4523,-0.47,6.34,-8.04,0.00,0.00,-0.01,-22.08,13.77,-28.77
4534,-0.47,6.34,-8.04,0.00,0.00,-0.01,-22.08,13.77,-28.77
4545,-0.47,6.34,-8.05,-0.00,0.00,-0.01,-22.08,13.77,-28.77
4556,-0.46,6.35,-8.03,-0.00,0.00,-0.01,-22.08,13.77,-28.77
4567,-0.46,6.35,-8.03,-0.00,0.00,-0.01,-22.08,13.77,-28.77
4670,-0.47,6.35,-8.05,-0.00,0.00,-0.01,-20.47,13.47,-29.50
4680,-0.51,6.34,-8.04,-0.00,0.00,-0.01,-20.47,13.47,-29.50
4691,-0.51,6.34,-8.04,-0.00,0.00,-0.01,-20.47,13.47,-29.50
4702,-0.48,6.34,-8.03,-0.00,0.00,-0.01,-20.47,13.47,-29.50
4713,-0.48,6.34,-8.03,-0.00,0.00,-0.01,-20.47,13.47,-29.50
4724,-0.46,6.34,-8.04,0.00,0.00,-0.01,-20.47,13.47,-29.50
4735,-0.46,6.34,-8.04,0.00,0.00,-0.01,-20.47,13.47,-29.50
4746,-0.46,6.35,-8.04,-0.00,0.00,-0.01,-20.07,13.47,-29.13
4757,-0.47,6.35,-8.06,-0.00,0.00,-0.01,-20.07,13.47,-29.13
4768,-0.47,6.35,-8.06,-0.00,0.00,-0.01,-20.07,13.47,-29.13
4779,-0.48,6.36,-8.05,-0.00,0.00,-0.01,-20.07,13.47,-29.13
4790,-0.48,6.36,-8.05,-0.00,0.00,-0.01,-20.07,13.47,-29.13
4801,-0.49,6.35,-8.03,0.00,0.00,-0.01,-20.07,13.47,-29.13
4904,-0.48,6.34,-8.05,0.00,0.00,-0.01,-19.87,13.32,-28.22
4914,-0.48,6.34,-8.05,0.00,0.00,-0.01,-19.87,13.32,-28.22
4925,-0.47,6.35,-8.06,-0.00,0.00,-0.01,-19.87,13.32,-28.22
4936,-0.46,6.34,-8.06,-0.00,0.00,-0.01,-19.87,13.32,-28.22
4947,-0.46,6.34,-8.06,-0.00,0.00,-0.01,-19.87,13.32,-28.22
4958,-0.47,6.37,-8.03,-0.00,0.00,-0.01,-19.87,13.32,-28.22
4969,-0.47,6.37,-8.03,-0.00,0.00,-0.01,-19.87,13.32,-28.22
4980,-0.47,6.35,-8.03,-0.00,0.00,-0.01,-19.87,13.32,-28.22
4991,-0.47,6.35,-8.03,-0.00,0.00,-0.01,-19.87,13.32,-28.22
5002,-0.48,6.35,-8.05,-0.00,0.00,-0.01,-19.87,13.93,-28.59
5013,-0.48,6.35,-8.05,-0.00,0.00,-0.01,-19.87,13.93,-28.59
5024,-0.47,6.35,-8.07,-0.00,0.00,-0.01,-19.87,13.93,-28.59
5035,-0.47,6.35,-8.07,-0.00,0.00,-0.01,-19.87,13.93,-28.59
5138,-0.48,6.37,-8.01,-0.02,-0.02,-0.02,-21.08,13.93,-30.04
5148,-0.48,6.37,-8.01,-0.02,-0.02,-0.02,-21.08,13.93,-30.04
5159,-0.34,6.21,-8.16,0.01,-0.02,-0.00,-21.08,13.93,-30.04
5170,-0.34,6.21,-8.16,0.01,-0.02,-0.00,-21.08,13.93,-30.04
5181,-0.30,6.11,-8.29,-0.04,-0.20,0.18,-21.08,13.93,-30.04
5192,-0.30,6.11,-8.29,-0.04,-0.20,0.18,-21.08,13.93,-30.04
5203,-0.06,6.07,-8.37,-0.07,-0.44,0.44,-21.08,13.93,-30.04
5214,-0.06,6.07,-8.37,-0.07,-0.44,0.44,-21.08,13.93,-30.04
5225,-0.55,7.06,-7.65,0.10,-0.50,0.70,-21.08,13.93,-30.04
5236,-0.60,6.40,-8.09,0.10,-0.38,0.57,-18.46,14.08,-27.67
5247,-0.60,6.40,-8.09,0.10,-0.38,0.57,-18.46,14.08,-27.67
5258,-0.99,6.66,-7.60,-0.07,-0.28,0.25,-18.46,14.08,-27.67
5269,-0.99,6.66,-7.60,-0.07,-0.28,0.25,-18.46,14.08,-27.67
5370,-0.26,6.23,-8.24,0.07,0.35,-0.42,-22.28,12.72,-29.68
5380,-0.38,6.24,-8.31,0.12,0.25,-0.22,-22.28,12.72,-29.68
5391,-0.38,6.24,-8.31,0.12,0.25,-0.22,-22.28,12.72,-29.68
5402,-0.72,6.17,-8.29,0.21,0.15,-0.12,-22.28,12.72,-29.68
5413,-0.72,6.17,-8.29,0.21,0.15,-0.12,-22.28,12.72,-29.68
5424,-0.50,7.11,-8.67,0.54,0.09,-0.05,-22.28,12.72,-29.68
5435,-0.50,7.11,-8.67,0.54,0.09,-0.05,-22.28,12.72,-29.68
5446,-0.56,6.68,-8.63,1.29,-0.00,-0.01,-22.28,12.72,-29.68
5457,-1.53,5.56,-9.39,1.97,0.05,-0.03,-22.28,12.72,-29.68
5468,-1.53,5.56,-9.39,1.97,0.05,-0.03,-22.28,12.72,-29.68
5479,-1.06,5.04,-10.58,2.74,0.01,0.12,-22.28,12.72,-29.68
5490,-1.06,5.04,-10.58,2.74,0.01,0.12,-22.28,12.72,-29.68
5501,-0.29,3.47,-9.13,3.88,-0.11,0.44,-19.07,10.30,-32.60
5604,-0.14,3.18,-12.72,1.75,-0.19,-0.63,-19.07,10.30,-32.60
5615,-0.14,3.18,-12.72,1.75,-0.19,-0.63,-19.07,10.30,-32.60
5626,-0.59,3.54,-12.03,1.35,-0.82,-0.36,-19.87,3.66,-37.70
5637,-0.91,4.36,-11.99,1.08,-1.09,-0.37,-19.87,3.66,-37.70
5648,-0.91,4.36,-11.99,1.08,-1.09,-0.37,-19.87,3.66,-37.70
5659,-0.96,3.56,-11.82,1.23,-1.11,-0.70,-19.87,3.66,-37.70
5670,-0.96,3.56,-11.82,1.23,-1.11,-0.70,-19.87,3.66,-37.70
5681,-0.61,2.68,-11.92,1.28,-1.15,-0.95,-19.87,3.66,-37.70
5692,-0.61,2.68,-11.92,1.28,-1.15,-0.95,-19.87,3.66,-37.70
5703,-0.14,3.56,-10.54,1.75,-1.32,-0.91,-19.87,3.66,-37.70
5714,-0.14,3.56,-10.54,1.75,-1.32,-0.91,-19.87,3.66,-37.70
5725,-0.82,4.19,-10.98,2.03,-1.51,-1.12,-19.87,3.66,-37.70
5736,-0.82,4.19,-10.98,2.03,-1.51,-1.12,-19.87,3.66,-37.70
5839,-2.66,-2.02,-6.38,0.86,-2.74,-1.74,-25.90,-6.30,-35.88
5850,-2.66,-2.02,-6.38,0.86,-2.74,-1.74,-25.90,-6.30,-35.88
5861,-3.70,-2.23,-6.50,-0.50,-2.45,-1.79,-25.90,-6.30,-35.88
5872,-3.70,-2.23,-6.50,-0.50,-2.45,-1.79,-25.90,-6.30,-35.88
5883,-3.76,-3.12,-7.18,-0.61,-1.99,-1.80,-34.75,-21.40,-25.30
5894,-3.76,-3.12,-7.18,-0.61,-1.99,-1.80,-34.75,-21.40,-25.30
5905,-3.22,-4.38,-6.66,0.19,-1.54,-1.64,-34.75,-21.40,-25.30
5916,-3.22,-4.38,-6.66,0.19,-1.54,-1.64,-34.75,-21.40,-25.30
5927,-3.51,-4.59,-6.38,0.41,-1.13,-1.33,-34.75,-21.40,-25.30
5938,-4.49,-4.10,-6.11,0.59,-0.77,-0.94,-34.75,-21.40,-25.30
5949,-4.49,-4.10,-6.11,0.59,-0.77,-0.94,-34.75,-21.40,-25.30
5960,-4.73,-3.49,-7.27,0.46,-0.39,-0.67,-34.75,-21.40,-25.30
6064,-4.81,-4.06,-8.17,-0.09,-0.51,-0.01,-35.55,-25.32,-22.02
6074,-4.81,-4.06,-8.17,-0.09,-0.51,-0.01,-35.55,-25.32,-22.02
6085,-4.91,-3.34,-8.21,-0.17,-0.49,0.15,-35.55,-25.32,-22.02
6096,-4.91,-3.34,-8.21,-0.17,-0.49,0.15,-35.55,-25.32,-22.02
6107,-5.07,-2.79,-8.14,-0.16,-0.50,0.14,-35.55,-25.32,-22.02
6118,-5.09,-2.90,-7.81,0.00,-0.52,0.01,-35.95,-26.23,-20.20
6129,-5.09,-2.90,-7.81,0.00,-0.52,0.01,-35.95,-26.23,-20.20
6140,-5.19,-3.50,-7.08,0.12,-0.48,-0.10,-35.95,-26.23,-20.20
6151,-5.19,-3.50,-7.08,0.12,-0.48,-0.10,-35.95,-26.23,-20.20
6162,-5.03,-3.84,-6.68,0.05,-0.33,-0.09,-35.95,-26.23,-20.20
6173,-5.03,-3.84,-6.68,0.05,-0.33,-0.09,-35.95,-26.23,-20.20
6184,-5.44,-3.49,-6.78,-0.18,-0.13,-0.03,-35.95,-26.23,-20.20
6289,-5.33,-4.28,-7.18,0.02,-0.13,-0.21,-36.55,-26.38,-19.65
6299,-5.40,-4.29,-7.51,-0.03,-0.02,-0.12,-36.55,-26.38,-19.65
6310,-5.40,-4.29,-7.51,-0.03,-0.02,-0.12,-36.55,-26.38,-19.65
6321,-5.52,-4.26,-7.61,-0.05,0.06,-0.08,-36.55,-26.38,-19.65
6332,-5.52,-4.26,-7.61,-0.05,0.06,-0.08,-36.55,-26.38,-19.65
6343,-5.40,-4.14,-8.20,-0.05,0.09,-0.10,-36.55,-26.38,-19.65
6354,-5.40,-4.14,-8.20,-0.05,0.09,-0.10,-36.55,-26.38,-19.65
6365,-5.28,-4.28,-8.16,0.05,0.04,-0.10,-36.55,-26.38,-19.65
6376,-5.28,-4.28,-8.16,0.05,0.04,-0.10,-36.55,-26.38,-19.65
6387,-5.31,-4.55,-7.92,0.10,-0.02,-0.07,-36.76,-27.14,-19.84
6398,-5.30,-4.57,-7.81,0.11,-0.03,0.02,-36.76,-27.14,-19.84
6409,-5.30,-4.57,-7.81,0.11,-0.03,0.02,-36.76,-27.14,-19.84
6420,-5.52,-4.32,-7.95,0.08,-0.03,0.14,-36.76,-27.14,-19.84
6561,-5.46,-4.01,-7.31,0.07,0.02,0.26,-37.76,-26.38,-19.29
6572,-5.46,-4.01,-7.31,0.07,0.02,0.26,-37.76,-26.38,-19.29
6583,-5.83,-3.64,-7.64,0.02,-0.01,0.31,-37.76,-26.38,-19.29
6594,-5.83,-3.64,-7.64,0.02,-0.01,0.31,-37.76,-26.38,-19.29
6605,-5.81,-3.41,-7.71,0.04,-0.03,0.29,-37.76,-26.38,-19.29
6616,-5.81,-3.41,-7.71,0.04,-0.03,0.29,-37.76,-26.38,-19.29
6627,-5.65,-3.60,-7.88,0.07,-0.04,0.22,-37.76,-26.38,-19.29
6638,-5.67,-4.20,-8.09,0.16,-0.01,0.16,-37.76,-26.38,-19.29
6649,-5.67,-4.20,-8.09,0.16,-0.01,0.16,-37.76,-26.38,-19.29
6660,-5.39,-4.49,-8.22,0.21,0.02,0.20,-37.76,-26.38,-19.29
6671,-5.39,-4.49,-8.22,0.21,0.02,0.20,-37.76,-26.38,-19.29
6682,-5.55,-4.39,-8.45,0.21,-0.02,0.30,-37.76,-26.38,-19.29
6693,-5.55,-4.39,-8.45,0.21,-0.02,0.30,-37.76,-26.38,-19.29
6799,-6.25,-3.21,-7.55,0.06,-0.54,0.85,-39.97,-25.63,-18.38
6809,-6.25,-3.21,-7.55,0.06,-0.54,0.85,-39.97,-25.63,-18.38
6820,-6.41,-2.73,-7.32,0.07,-0.61,0.83,-39.97,-25.63,-18.38
6831,-6.41,-2.73,-7.32,0.07,-0.61,0.83,-39.97,-25.63,-18.38
6842,-6.71,-2.79,-7.07,0.29,-0.61,0.71,-39.97,-25.63,-18.38
6853,-6.71,-2.79,-7.07,0.29,-0.61,0.71,-39.97,-25.63,-18.38
6864,-6.69,-3.27,-7.11,0.39,-0.60,0.61,-39.97,-25.63,-18.38
6875,-6.69,-3.27,-7.11,0.39,-0.60,0.61,-39.97,-25.63,-18.38
6886,-6.49,-4.18,-7.47,0.21,-0.69,0.62,-42.79,-22.91,-14.00
6897,-6.49,-4.18,-7.47,0.21,-0.69,0.62,-42.79,-22.91,-14.00
6908,-6.50,-4.74,-6.58,-0.09,-0.81,0.82,-42.79,-22.91,-14.00
6919,-6.61,-4.35,-6.23,-0.76,-0.82,1.11,-42.79,-22.91,-14.00
7024,-6.95,-1.88,-6.09,1.62,-1.69,0.43,-43.59,-17.17,-12.18
7035,-6.95,-1.88,-6.09,1.62,-1.69,0.43,-43.59,-17.17,-12.18
7046,-7.30,-1.30,-4.64,1.14,-2.00,0.56,-43.59,-17.17,-12.18
7057,-7.30,-1.30,-4.64,1.14,-2.00,0.56,-43.59,-17.17,-12.18
7068,-7.68,-0.22,-4.15,0.92,-1.91,0.52,-43.59,-17.17,-12.18
7079,-7.56,-0.94,-4.52,1.31,-1.60,0.12,-43.59,-17.17,-12.18
7090,-7.56,-0.94,-4.52,1.31,-1.60,0.12,-43.59,-17.17,-12.18
7101,-7.21,-1.56,-4.59,1.81,-1.47,-0.16,-43.59,-17.17,-12.18
7117,-7.21,-1.56,-4.59,1.81,-1.47,-0.16,-43.59,-17.17,-12.18
7123,-6.93,-0.91,-4.82,2.05,-1.51,-0.40,-43.59,-17.17,-12.18
7134,-6.93,-0.91,-4.82,2.05,-1.51,-0.40,-43.59,-17.17,-12.18
7145,-6.10,-0.93,-4.13,2.60,-1.70,-0.67,-49.22,-18.68,0.22
7156,-6.10,-0.93,-4.13,2.60,-1.70,-0.67,-49.22,-18.68,0.22
7262,-7.83,0.64,0.43,1.40,-3.82,-0.87,-44.80,-16.57,21.36
7272,-7.83,0.64,0.43,1.40,-3.82,-0.87,-44.80,-16.57,21.36
7283,-7.37,-0.19,1.53,1.27,-3.89,-2.04,-44.80,-16.57,21.36
7294,-7.37,-0.19,1.53,1.27,-3.89,-2.04,-44.80,-16.57,21.36
7305,-6.41,-3.43,2.63,2.31,-3.91,-2.87,-44.80,-16.57,21.36
7316,-6.41,-3.43,2.63,2.31,-3.91,-2.87,-44.80,-16.57,21.36
7327,-4.54,-9.73,7.05,3.81,-3.78,-2.65,-44.80,-16.57,21.36
7338,-6.65,-9.65,16.31,4.51,-2.73,-0.95,-44.80,-16.57,21.36
7349,-6.65,-9.65,16.31,4.51,-2.73,-0.95,-44.80,-16.57,21.36
7360,-7.49,-3.20,9.72,-0.20,-0.78,0.09,-44.80,-16.57,21.36
7371,-7.49,-3.20,9.72,-0.20,-0.78,0.09,-44.80,-16.57,21.36
7382,-7.71,-2.74,7.25,-0.47,0.61,0.07,-34.14,-18.23,36.85
7486,-9.46,-6.21,-0.13,-1.82,2.09,-0.08,-34.14,-18.23,36.85
7496,-9.46,-6.21,-0.13,-1.82,2.09,-0.08,-34.14,-18.23,36.85
7507,-9.37,-5.64,-1.17,-1.09,2.20,-0.00,-34.14,-18.23,36.85
7518,-9.37,-5.64,-1.17,-1.09,2.20,-0.00,-34.14,-18.23,36.85
7529,-7.81,-5.08,-3.45,-0.13,2.05,0.03,-40.37,-23.81,26.46
7540,-9.48,-4.58,-5.97,0.73,1.21,0.14,-40.37,-23.81,26.46
7551,-9.48,-4.58,-5.97,0.73,1.21,0.14,-40.37,-23.81,26.46
7562,-10.15,-5.79,-3.99,1.37,-0.30,0.25,-40.37,-23.81,26.46
7573,-10.15,-5.79,-3.99,1.37,-0.30,0.25,-40.37,-23.81,26.46
7584,-8.47,-3.39,2.17,2.47,-1.32,0.73,-40.37,-23.81,26.46
7595,-8.47,-3.39,2.17,2.47,-1.32,0.73,-40.37,-23.81,26.46
7606,-8.59,-3.80,3.83,2.11,-0.98,0.41,-40.37,-23.81,26.46
7617,-8.59,-3.80,3.83,2.11,-0.98,0.41,-40.37,-23.81,26.46
7721,-8.92,-7.37,9.07,4.14,-1.04,-0.00,-41.78,-18.83,28.47
7731,-8.92,-7.37,9.07,4.14,-1.04,-0.00,-41.78,-18.83,28.47
7742,-6.26,-5.96,7.01,0.57,-0.32,0.44,-41.78,-18.83,28.47
7753,-6.26,-5.96,7.01,0.57,-0.32,0.44,-41.78,-18.83,28.47
7764,-4.34,-3.77,5.83,-1.53,0.25,0.90,-33.14,-7.81,37.76
7775,-4.34,-3.77,5.83,-1.53,0.25,0.90,-33.14,-7.81,37.76
7786,-7.24,-1.35,4.42,-1.82,0.55,1.08,-33.14,-7.81,37.76
7797,-7.24,-1.35,4.42,-1.82,0.55,1.08,-33.14,-7.81,37.76
7808,-9.11,-1.99,7.17,-0.83,0.73,0.91,-33.14,-7.81,37.76
7819,-9.35,-2.49,9.56,-2.23,1.13,0.74,-33.14,-7.81,37.76
7830,-9.35,-2.49,9.56,-2.23,1.13,0.74,-33.14,-7.81,37.76
7841,-7.99,-1.53,7.53,-4.53,1.87,0.77,-33.14,-7.81,37.76
7852,-7.99,-1.53,7.53,-4.53,1.87,0.77,-33.14,-7.81,37.76
7956,-8.02,-6.73,-2.02,0.36,-0.07,-0.16,-42.99,-16.12,26.28
7966,-8.91,-4.96,2.27,0.85,-0.63,0.21,-42.99,-16.12,26.28
7977,-8.91,-4.96,2.27,0.85,-0.63,0.21,-42.99,-16.12,26.28
7988,-8.35,-4.22,1.47,0.69,-0.43,0.28,-42.99,-16.12,26.28
7999,-8.94,-4.13,1.56,0.97,-0.27,0.29,-42.99,-16.12,26.28
8010,-8.94,-4.13,1.56,0.97,-0.27,0.29,-42.99,-16.12,26.28
8021,-9.64,-3.77,1.82,1.00,-0.19,0.24,-41.98,-16.27,24.64
8032,-9.64,-3.77,1.82,1.00,-0.19,0.24,-41.98,-16.27,24.64
8043,-9.42,-3.54,1.80,0.66,-0.14,0.20,-41.98,-16.27,24.64
8054,-9.42,-3.54,1.80,0.66,-0.14,0.20,-41.98,-16.27,24.64
8065,-9.47,-3.13,2.45,0.34,-0.10,0.21,-41.98,-16.27,24.64
8076,-9.47,-3.13,2.45,0.34,-0.10,0.21,-41.98,-16.27,24.64
8087,-9.11,-4.30,2.35,0.11,0.06,0.13,-41.98,-16.27,24.64
8192,-8.99,-3.72,0.84,-0.62,0.23,0.08,-42.58,-17.02,25.19
8203,-8.77,-4.02,0.90,-0.51,0.09,0.02,-42.58,-17.02,25.19
8214,-8.77,-4.02,0.90,-0.51,0.09,0.02,-42.58,-17.02,25.19
8225,-8.59,-4.20,1.08,-0.36,-0.01,-0.00,-42.58,-17.02,25.19
8236,-8.59,-4.20,1.08,-0.36,-0.01,-0.00,-42.58,-17.02,25.19
8247,-8.99,-3.71,1.11,-0.27,-0.06,-0.01,-42.58,-17.02,25.19
8258,-8.99,-3.71,1.11,-0.27,-0.06,-0.01,-42.58,-17.02,25.19
8269,-9.21,-3.59,1.26,-0.23,-0.13,-0.09,-41.58,-16.27,24.28
8280,-8.99,-3.76,1.68,-0.26,-0.18,-0.21,-41.58,-16.27,24.28
8291,-8.99,-3.76,1.68,-0.26,-0.18,-0.21,-41.58,-16.27,24.28
8302,-9.05,-4.04,0.95,-0.43,-0.19,-0.29,-41.58,-16.27,24.28
8313,-9.05,-4.04,0.95,-0.43,-0.19,-0.29,-41.58,-16.27,24.28
8324,-9.10,-4.33,1.00,-0.32,-0.18,-0.27,-41.58,-16.27,24.28
8472,-9.24,-3.95,1.66,0.31,0.38,0.23,-42.38,-17.47,25.37
8482,-8.96,-3.87,1.27,0.19,0.41,0.15,-42.38,-17.47,25.37
8493,-8.96,-3.87,1.27,0.19,0.41,0.15,-42.38,-17.47,25.37
8504,-8.40,-4.52,1.18,0.03,0.33,0.07,-42.38,-17.47,25.37
8617,-8.40,-4.52,1.18,0.03,0.33,0.07,-42.38,-17.47,25.37
8619,-8.81,-4.50,0.41,-0.11,-0.26,-0.30,-43.19,-18.08,22.45
8629,-9.77,-3.50,0.46,-0.16,-0.14,-0.03,-43.19,-18.08,22.45
8640,-10.39,-1.65,1.02,-0.05,-0.07,0.08,-42.99,-18.83,23.00
8651,-10.39,-1.65,1.02,-0.05,-0.07,0.08,-42.99,-18.83,23.00
8662,-8.93,-5.46,2.94,-0.12,0.06,-0.12,-42.99,-18.83,23.00
8673,-8.93,-5.46,2.94,-0.12,0.06,-0.12,-42.99,-18.83,23.00
8684,-8.85,-4.87,0.94,-0.63,0.35,0.18,-42.99,-18.83,23.00
8695,-8.85,-4.87,0.94,-0.63,0.35,0.18,-42.99,-18.83,23.00
8706,-9.09,-5.98,3.64,-0.76,0.40,0.40,-42.99,-18.83,23.00
8717,-9.09,-5.98,3.64,-0.76,0.40,0.40,-42.99,-18.83,23.00
8728,-8.87,-4.20,2.43,-1.64,0.69,0.58,-42.99,-18.83,23.00
8739,-8.87,-4.20,2.43,-1.64,0.69,0.58,-42.99,-18.83,23.00
8844,-9.46,-3.46,0.32,0.02,-0.32,0.06,-44.19,-19.44,20.81
8854,-9.46,-3.46,0.32,0.02,-0.32,0.06,-44.19,-19.44,20.81
8865,-9.57,-3.42,0.74,0.00,-0.35,-0.05,-44.19,-19.44,20.81
8876,-9.57,-3.42,0.74,0.00,-0.35,-0.05,-44.19,-19.44,20.81
8887,-9.49,-3.88,0.47,-0.08,-0.33,-0.15,-44.19,-19.44,20.81
8898,-9.49,-3.88,0.47,-0.08,-0.33,-0.15,-44.19,-19.44,20.81
8909,-8.80,-4.52,0.45,-0.18,-0.35,-0.17,-43.59,-18.38,22.09
8920,-9.23,-4.27,0.62,-0.25,-0.34,-0.11,-43.59,-18.38,22.09
8931,-9.23,-4.27,0.62,-0.25,-0.34,-0.11,-43.59,-18.38,22.09
8942,-8.53,-4.31,0.69,-0.21,-0.30,-0.10,-43.59,-18.38,22.09
8953,-8.53,-4.31,0.69,-0.21,-0.30,-0.10,-43.59,-18.38,22.09
8964,-8.91,-4.34,0.89,-0.21,-0.24,-0.03,-43.59,-18.38,22.09
8975,-8.91,-4.34,0.89,-0.21,-0.24,-0.03,-43.59,-18.38,22.09
9079,-9.39,-3.84,0.89,-0.13,0.00,0.05,-44.59,-19.74,22.64
9090,-9.59,-4.52,0.90,0.10,0.15,0.06,-44.59,-19.74,22.64
9101,-9.81,-4.71,2.59,0.50,0.49,0.31,-44.59,-19.74,22.64
9112,-9.81,-4.71,2.59,0.50,0.49,0.31,-44.59,-19.74,22.64
9123,-9.11,-3.43,2.19,0.55,1.02,0.55,-44.59,-19.74,22.64
9134,-9.11,-3.43,2.19,0.55,1.02,0.55,-44.59,-19.74,22.64
9145,-9.03,-2.92,-1.41,-0.01,1.20,0.35,-44.59,-19.74,22.64
9156,-9.03,-2.92,-1.41,-0.01,1.20,0.35,-44.59,-19.74,22.64
9167,-8.97,-3.23,-2.32,-0.24,0.81,0.20,-47.01,-16.12,20.08
9178,-8.97,-3.23,-2.32,-0.24,0.81,0.20,-47.01,-16.12,20.08
9189,-9.05,-3.65,-1.11,-0.30,0.24,0.18,-47.01,-16.12,20.08
9200,-9.32,-3.47,-2.70,-0.34,-0.33,0.09,-47.01,-16.12,20.08
9211,-9.32,-3.47,-2.70,-0.34,-0.33,0.09,-47.01,-16.12,20.08
9316,-7.65,-5.28,1.43,-0.04,-0.42,-0.24,-42.99,-18.53,23.36
9326,-8.89,-4.79,0.45,-0.03,-0.07,0.18,-42.99,-18.53,23.36
9337,-8.89,-4.79,0.45,-0.03,-0.07,0.18,-42.99,-18.53,23.36
9348,-8.50,-4.71,0.56,0.16,0.07,0.45,-42.99,-18.53,23.36
9359,-8.50,-4.71,0.56,0.16,0.07,0.45,-42.99,-18.53,23.36
9370,-10.54,-2.39,1.26,0.24,0.26,0.54,-42.99,-18.53,23.36
9381,-9.71,-2.34,2.42,0.24,0.59,0.31,-42.99,-18.53,23.36
9392,-9.71,-2.34,2.42,0.24,0.59,0.31,-42.99,-18.53,23.36
9403,-9.25,-2.60,-1.40,-0.07,0.87,0.12,-44.59,-17.93,20.81
9414,-9.25,-2.60,-1.40,-0.07,0.87,0.12,-44.59,-17.93,20.81
9425,-10.29,-2.65,-1.75,-0.01,0.43,-0.08,-44.59,-17.93,20.81
9436,-10.29,-2.65,-1.75,-0.01,0.43,-0.08,-44.59,-17.93,20.81
9447,-11.91,-2.03,0.98,-0.03,-0.09,-0.55,-44.59,-17.93,20.81
9551,-7.18,-7.28,-0.56,0.09,0.37,0.34,-44.59,-20.34,21.54
9561,-9.06,-5.14,-1.19,0.34,0.38,0.60,-44.59,-20.34,21.54
9572,-9.06,-5.14,-1.19,0.34,0.38,0.60,-44.59,-20.34,21.54
9583,-10.30,-2.58,0.75,0.52,0.10,0.66,-44.59,-20.34,21.54
9594,-10.30,-2.58,0.75,0.52,0.10,0.66,-44.59,-20.34,21.54
9605,-10.15,-2.41,0.74,0.37,0.05,0.40,-44.59,-20.34,21.54
9616,-10.15,-2.41,0.74,0.37,0.05,0.40,-44.59,-20.34,21.54
9627,-9.53,-3.59,-0.03,0.21,0.09,0.15,-44.59,-20.34,21.54
9643,-9.53,-3.59,-0.03,0.21,0.09,0.15,-44.59,-20.34,21.54
9649,-9.74,-3.79,-0.39,0.11,0.04,0.08,-44.59,-20.34,21.54
9660,-9.74,-3.79,-0.39,0.11,0.04,0.08,-44.59,-20.34,21.54
9671,-9.47,-3.81,0.12,0.19,0.00,0.09,-44.59,-17.93,20.81
9682,-9.25,-3.56,0.66,0.26,0.02,0.16,-44.59,-17.93,20.81
9786,-9.19,-4.03,0.12,-0.27,-0.23,-0.11,-43.79,-17.02,21.18
9797,-9.19,-4.03,0.12,-0.27,-0.23,-0.11,-43.79,-17.02,21.18
9808,-9.27,-4.02,0.12,-0.28,-0.15,-0.11,-43.79,-17.02,21.18
9819,-9.27,-4.02,0.12,-0.28,-0.15,-0.11,-43.79,-17.02,21.18
9830,-9.43,-3.70,0.16,-0.15,-0.04,-0.05,-43.79,-17.02,21.18
9841,-9.47,-4.15,1.46,0.00,0.11,0.00,-43.79,-17.02,21.18
9852,-9.47,-4.15,1.46,0.00,0.11,0.00,-43.79,-17.02,21.18
9863,-9.33,-4.42,1.06,0.01,0.49,0.11,-43.79,-17.02,21.18
9874,-9.33,-4.42,1.06,0.01,0.49,0.11,-43.79,-17.02,21.18
9885,-9.04,-3.38,-0.23,-0.11,0.66,0.29,-43.79,-17.02,21.18
9896,-9.04,-3.38,-0.23,-0.11,0.66,0.29,-43.79,-17.02,21.18
9907,-9.14,-4.12,0.35,-0.21,0.47,0.22,-45.00,-17.62,20.81
9918,-9.14,-4.12,0.35,-0.21,0.47,0.22,-45.00,-17.62,20.81
10022,-9.46,-3.79,0.68,0.09,0.01,-0.02,-45.00,-17.62,20.81
10032,-9.46,-3.79,0.68,0.09,0.01,-0.02,-45.00,-17.62,20.81
10043,-9.35,-3.73,0.54,0.04,0.21,0.03,-43.99,-18.08,21.00
10054,-9.35,-3.73,0.54,0.04,0.21,0.03,-43.99,-18.08,21.00
10065,-9.24,-3.80,0.02,-0.10,0.27,0.07,-43.99,-18.08,21.00
10076,-9.24,-3.80,0.02,-0.10,0.27,0.07,-43.99,-18.08,21.00
10087,-9.17,-3.82,-0.82,-0.21,0.12,0.10,-43.99,-18.08,21.00
10098,-9.17,-3.82,-0.82,-0.21,0.12,0.10,-43.99,-18.08,21.00
10109,-9.01,-3.73,-0.86,-0.27,-0.16,0.10,-43.99,-18.08,21.00
10120,-9.01,-3.73,-0.86,-0.27,-0.16,0.10,-43.99,-18.08,21.00
10131,-9.23,-3.54,0.85,-0.16,-0.32,0.02,-43.99,-18.08,21.00
10142,-9.12,-3.76,-0.23,-0.28,-0.22,-0.10,-43.99,-18.08,21.00
10286,-9.16,-3.48,-1.08,-0.16,0.44,0.20,-46.60,-17.32,20.81
10296,-9.16,-3.48,-1.08,-0.16,0.44,0.20,-46.60,-17.32,20.81
10307,-9.15,-4.02,-1.23,-0.22,0.14,0.16,-46.60,-17.32,20.81
10318,-9.15,-4.02,-1.23,-0.22,0.14,0.16,-46.60,-17.32,20.81
10329,-9.11,-3.40,-1.19,-0.14,-0.19,0.11,-46.60,-17.32,20.81
10340,-9.11,-3.40,-1.19,-0.14,-0.19,0.11,-46.60,-17.32,20.81
10351,-9.07,-3.75,-0.49,-0.05,-0.30,0.03,-46.60,-17.32,20.81
10362,-9.20,-3.63,-0.28,0.01,-0.28,-0.04,-46.60,-17.32,20.81
10373,-9.20,-3.63,-0.28,0.01,-0.28,-0.04,-46.60,-17.32,20.81
10384,-9.40,-3.65,0.36,0.06,-0.17,-0.05,-46.60,-17.32,20.81
10395,-9.40,-3.65,0.36,0.06,-0.17,-0.05,-46.60,-17.32,20.81
10406,-9.44,-3.69,0.14,0.03,0.03,-0.04,-46.60,-17.32,20.81
10417,-9.44,-3.69,0.14,0.03,0.03,-0.04,-46.60,-17.32,20.81
10523,-9.21,-3.56,0.55,-0.17,-0.26,-0.03,-46.20,-18.83,19.72
10534,-9.21,-3.56,0.55,-0.17,-0.26,-0.03,-46.20,-18.83,19.72
10545,-9.03,-3.76,-1.17,-0.27,-0.26,-0.14,-44.80,-18.38,19.90
10556,-9.03,-3.76,-1.17,-0.27,-0.26,-0.14,-44.80,-18.38,19.90
10567,-9.37,-3.99,-0.24,-0.12,-0.32,-0.14,-44.80,-18.38,19.90
10578,-9.37,-3.99,-0.24,-0.12,-0.32,-0.14,-44.80,-18.38,19.90
10589,-9.50,-3.28,-0.18,-0.01,-0.12,-0.03,-44.80,-18.38,19.90
10600,-9.50,-3.28,-0.18,-0.01,-0.12,-0.03,-44.80,-18.38,19.90
10611,-9.50,-4.20,0.79,0.13,0.06,-0.00,-44.80,-18.38,19.90
10622,-9.35,-3.25,-0.19,0.06,0.38,0.13,-44.80,-18.38,19.90
10633,-9.35,-3.25,-0.19,0.06,0.38,0.13,-44.80,-18.38,19.90
10644,-9.26,-3.63,-0.95,-0.06,0.47,0.13,-44.80,-18.38,19.90
10746,-9.30,-3.50,-0.65,-0.16,-0.28,-0.14,-46.20,-18.23,18.63
10756,-9.30,-3.50,-0.65,-0.16,-0.28,-0.14,-46.20,-18.23,18.63
10767,-9.37,-3.85,-0.13,-0.04,-0.20,-0.11,-46.20,-18.23,18.63
10778,-9.37,-3.85,-0.13,-0.04,-0.20,-0.11,-46.20,-18.23,18.63
10789,-9.39,-3.52,-0.34,0.03,-0.07,-0.04,-45.20,-18.08,19.17
10800,-9.39,-3.52,-0.34,0.03,-0.07,-0.04,-45.20,-18.08,19.17
10811,-9.51,-4.05,0.80,0.14,0.08,0.01,-45.20,-18.08,19.17
10822,-9.39,-3.08,-0.18,0.06,0.35,0.11,-45.20,-18.08,19.17
10833,-9.39,-3.08,-0.18,0.06,0.35,0.11,-45.20,-18.08,19.17
10844,-9.39,-3.22,-1.11,-0.10,0.41,0.06,-45.20,-18.08,19.17
10855,-9.39,-3.22,-1.11,-0.10,0.41,0.06,-45.20,-18.08,19.17
10866,-9.54,-3.31,-2.11,-0.21,0.15,0.03,-45.20,-18.08,19.17
10877,-9.54,-3.31,-2.11,-0.21,0.15,0.03,-45.20,-18.08,19.17
10981,-7.67,-4.45,0.64,-0.03,-0.34,-0.19,-45.20,-18.98,19.90
10991,-8.18,-5.51,-0.59,0.15,0.20,0.01,-45.20,-18.98,19.90
11002,-8.87,-6.65,-2.51,0.23,0.44,0.00,-45.20,-18.98,19.90
11013,-8.87,-6.65,-2.51,0.23,0.44,0.00,-45.20,-18.98,19.90
11024,-8.48,-5.31,-1.08,0.39,0.16,0.17,-45.20,-18.98,19.90
11035,-8.48,-5.31,-1.08,0.39,0.16,0.17,-45.20,-18.98,19.90
11046,-9.77,-2.66,0.95,0.43,-0.02,0.29,-42.99,-19.74,21.18
11057,-9.77,-2.66,0.95,0.43,-0.02,0.29,-42.99,-19.74,21.18
11068,-10.03,-2.18,0.66,0.20,0.01,0.09,-42.99,-19.74,21.18
11079,-10.03,-2.18,0.66,0.20,0.01,0.09,-42.99,-19.74,21.18
11090,-8.85,-4.12,-0.70,0.05,0.03,-0.15,-42.99,-19.74,21.18
11101,-8.85,-4.12,-0.70,0.05,0.03,-0.15,-42.99,-19.74,21.18
11112,-8.92,-4.59,-0.85,0.13,-0.06,-0.13,-42.99,-19.74,21.18
11217,-9.29,-4.13,0.28,0.04,0.01,0.07,-43.79,-18.53,19.35
11227,-9.43,-4.48,1.38,0.15,0.17,0.16,-43.79,-18.53,19.35
11238,-9.43,-4.48,1.38,0.15,0.17,0.16,-43.79,-18.53,19.35
11249,-8.98,-4.38,0.70,0.24,0.47,0.30,-43.79,-18.53,19.35
11260,-8.98,-4.38,0.70,0.24,0.47,0.30,-43.79,-18.53,19.35
11271,-9.16,-2.52,-0.30,-0.01,0.54,0.38,-43.79,-18.53,19.35
11282,-9.01,-4.21,-0.75,-0.24,0.36,0.11,-43.79,-18.53,19.35
11293,-9.01,-4.21,-0.75,-0.24,0.36,0.11,-43.79,-18.53,19.35
11304,-9.06,-3.81,-1.45,-0.37,0.09,0.08,-42.99,-18.23,20.08
11315,-9.06,-3.81,-1.45,-0.37,0.09,0.08,-42.99,-18.23,20.08
11326,-8.95,-3.49,-1.10,-0.27,-0.22,0.03,-42.99,-18.23,20.08
11337,-8.95,-3.49,-1.10,-0.27,-0.22,0.03,-42.99,-18.23,20.08
11441,-9.58,-3.83,-0.47,-0.02,-0.09,-0.03,-42.58,-19.13,21.18
11451,-9.13,-3.54,-0.14,0.07,-0.17,-0.06,-42.58,-19.13,21.18
11462,-8.56,-4.00,0.79,0.16,-0.16,-0.03,-42.58,-19.13,21.18
11473,-8.56,-4.00,0.79,0.16,-0.16,-0.03,-42.58,-19.13,21.18
11484,-9.70,-3.75,0.72,0.13,0.02,0.13,-42.58,-19.13,21.18
11495,-9.70,-3.75,0.72,0.13,0.02,0.13,-42.58,-19.13,21.18
11506,-9.46,-3.07,0.51,0.06,0.18,0.19,-42.58,-19.13,21.18
11517,-9.46,-3.07,0.51,0.06,0.18,0.19,-42.58,-19.13,21.18
11528,-9.46,-3.75,-0.94,-0.06,0.17,0.10,-42.58,-19.13,21.18
11539,-9.46,-3.75,-0.94,-0.06,0.17,0.10,-42.58,-19.13,21.18
11550,-9.00,-3.92,-1.26,-0.11,-0.02,0.04,-42.79,-19.89,21.36
11561,-9.00,-3.92,-1.26,-0.11,-0.02,0.04,-42.79,-19.89,21.36
11572,-9.20,-3.66,-0.13,-0.11,-0.18,0.00,-42.79,-19.89,21.36
11680,-9.22,-3.05,0.15,-0.09,0.65,0.13,-42.79,-19.89,21.36
11690,-9.18,-3.15,-1.30,-0.19,0.73,0.15,-45.00,-19.44,19.72
11701,-9.18,-3.15,-1.30,-0.19,0.73,0.15,-45.00,-19.44,19.72
11712,-9.23,-3.87,-2.03,-0.32,0.44,0.14,-45.00,-19.44,19.72
11723,-9.25,-3.44,-1.57,-0.29,0.01,0.15,-45.00,-19.44,19.72
11734,-9.25,-3.44,-1.57,-0.29,0.01,0.15,-45.00,-19.44,19.72
11745,-9.12,-3.22,-1.08,-0.14,-0.33,0.07,-45.00,-19.44,19.72
11756,-9.12,-3.22,-1.08,-0.14,-0.33,0.07,-45.00,-19.44,19.72
11767,-9.01,-3.45,0.10,0.01,-0.42,-0.02,-45.00,-19.44,19.72
11778,-9.01,-3.45,0.10,0.01,-0.42,-0.02,-45.00,-19.44,19.72
11789,-9.28,-3.67,-0.51,-0.01,-0.32,-0.15,-45.00,-19.44,19.72
11800,-9.28,-3.67,-0.51,-0.01,-0.32,-0.15,-45.00,-19.44,19.72
11905,-9.00,-3.89,-1.41,-0.08,0.26,0.06,-45.20,-18.98,18.81
11915,-9.00,-3.89,-1.41,-0.08,0.26,0.06,-45.20,-18.98,18.81
11926,-9.02,-4.03,-0.84,-0.08,0.01,0.03,-45.60,-17.78,18.44
11937,-9.02,-4.03,-0.84,-0.08,0.01,0.03,-45.60,-17.78,18.44
11948,-9.23,-3.25,-1.06,-0.14,-0.16,0.01,-45.60,-17.78,18.44
11959,-9.23,-3.25,-1.06,-0.14,-0.16,0.01,-45.60,-17.78,18.44
11970,-9.41,-3.16,0.60,-0.16,-0.33,-0.09,-45.60,-17.78,18.44
11981,-9.41,-3.16,0.60,-0.16,-0.33,-0.09,-45.60,-17.78,18.44
11992,-9.37,-3.46,-0.89,-0.35,-0.29,-0.19,-45.60,-17.78,18.44
12003,-9.37,-4.16,0.07,-0.16,-0.26,-0.13,-45.60,-17.78,18.44
12014,-9.37,-4.16,0.07,-0.16,-0.26,-0.13,-45.60,-17.78,18.44
12025,-9.50,-3.72,-0.43,-0.04,-0.08,0.01,-45.60,-17.78,18.44
12036,-9.50,-3.72,-0.43,-0.04,-0.08,0.01,-45.60,-17.78,18.44
12142,-9.37,-3.23,-1.39,-0.10,-0.21,0.07,-43.79,-20.04,19.35
12152,-9.20,-3.27,0.53,-0.03,-0.39,-0.04,-43.79,-20.04,19.35
12163,-9.32,-3.48,-0.20,-0.09,-0.26,-0.20,-43.79,-20.04,19.35
12174,-9.32,-3.48,-0.20,-0.09,-0.26,-0.20,-43.79,-20.04,19.35
12185,-9.20,-3.95,-0.25,-0.00,-0.15,-0.18,-42.79,-19.59,19.90
12196,-9.20,-3.95,-0.25,-0.00,-0.15,-0.18,-42.79,-19.59,19.90
12207,-9.59,-3.74,0.40,0.09,0.02,0.01,-42.79,-19.59,19.90
12218,-9.59,-3.74,0.40,0.09,0.02,0.01,-42.79,-19.59,19.90
12229,-9.32,-3.57,-0.30,0.01,0.20,0.14,-42.79,-19.59,19.90
12240,-9.32,-3.57,-0.30,0.01,0.20,0.14,-42.79,-19.59,19.90
12251,-9.37,-3.80,-0.66,-0.09,0.15,0.13,-42.79,-19.59,19.90
12262,-9.37,-3.80,-0.66,-0.09,0.15,0.13,-42.79,-19.59,19.90
12404,-9.54,-3.92,-0.22,-0.00,0.43,0.00,-45.00,-19.44,19.72
12415,-9.54,-3.92,-0.22,-0.00,0.43,0.00,-45.00,-19.44,19.72
12426,-9.49,-3.19,-0.67,-0.01,0.59,0.22,-45.00,-19.44,19.35
12437,-9.49,-3.19,-0.67,-0.01,0.59,0.22,-45.00,-19.44,19.35
12448,-9.52,-3.24,-1.82,-0.09,0.52,0.26,-45.00,-19.44,19.35
12459,-9.52,-3.24,-1.82,-0.09,0.52,0.26,-45.00,-19.44,19.35
12470,-9.36,-3.60,-1.47,-0.14,0.17,0.25,-45.00,-19.44,19.35
12481,-9.36,-3.60,-1.47,-0.14,0.17,0.25,-45.00,-19.44,19.35
12492,-9.19,-3.44,-1.17,-0.08,-0.20,0.21,-45.00,-19.44,19.35
12503,-9.29,-2.99,-0.48,-0.00,-0.36,0.10,-45.00,-19.44,19.35
12514,-9.29,-2.99,-0.48,-0.00,-0.36,0.10,-45.00,-19.44,19.35
12525,-9.40,-3.11,-0.10,0.05,-0.22,-0.04,-45.00,-19.44,19.35
12536,-9.40,-3.11,-0.10,0.05,-0.22,-0.04,-45.00,-19.44,19.35
12640,-9.38,-3.68,-0.69,-0.20,-0.01,0.06,-45.00,-19.44,19.72
12650,-9.19,-3.28,-0.76,-0.18,-0.14,0.05,-45.00,-19.44,19.72
12661,-9.19,-3.28,-0.76,-0.18,-0.14,0.05,-45.00,-19.44,19.72
12672,-9.26,-3.33,-0.21,-0.13,-0.15,-0.02,-45.00,-19.44,19.72
12683,-9.26,-3.33,-0.21,-0.13,-0.15,-0.02,-45.00,-19.44,19.72
12694,-9.20,-3.39,-0.71,-0.12,-0.15,-0.14,-43.59,-19.59,18.44
12705,-9.44,-3.90,-0.27,-0.06,-0.19,-0.20,-43.59,-19.59,18.44
12716,-9.44,-3.90,-0.27,-0.06,-0.19,-0.20,-43.59,-19.59,18.44
12727,-9.39,-3.65,-0.75,-0.02,-0.06,-0.10,-43.59,-19.59,18.44
12738,-9.39,-3.65,-0.75,-0.02,-0.06,-0.10,-43.59,-19.59,18.44
12749,-9.41,-3.91,-0.28,0.12,0.00,-0.02,-43.59,-19.59,18.44
12760,-9.41,-3.91,-0.28,0.12,0.00,-0.02,-43.59,-19.59,18.44
12867,-9.65,-3.38,0.20,-0.06,-0.39,-0.30,-44.39,-18.98,17.71
12877,-9.65,-3.38,0.20,-0.06,-0.39,-0.30,-44.39,-18.98,17.71
12888,-8.08,-4.61,-1.07,-0.31,-0.35,-0.62,-44.39,-18.98,17.71
12899,-8.08,-4.61,-1.07,-0.31,-0.35,-0.62,-44.39,-18.98,17.71
12910,-8.02,-4.94,0.30,-0.38,-0.35,-0.50,-44.39,-18.98,17.71
12921,-8.02,-4.94,0.30,-0.38,-0.35,-0.50,-44.39,-18.98,17.71
12932,-11.28,-3.85,0.06,-0.16,-0.09,-0.07,-44.39,-18.98,17.71
12943,-11.28,-3.85,0.06,-0.16,-0.09,-0.07,-44.39,-18.98,17.71
12954,-9.86,-2.98,0.46,-0.06,0.15,0.01,-44.39,-18.98,17.71
12965,-9.63,-3.04,-1.28,-0.13,0.24,-0.04,-44.39,-18.98,17.71
12976,-9.63,-3.04,-1.28,-0.13,0.24,-0.04,-44.39,-18.98,17.71
12987,-9.66,-4.28,-2.27,-0.07,0.00,-0.16,-44.39,-18.98,17.71
12998,-9.66,-4.28,-2.27,-0.07,0.00,-0.16,-44.39,-18.98,17.71
13100,-10.69,-3.04,-0.26,-0.05,0.09,0.17,-44.19,-21.25,19.72
13110,-9.78,-3.54,-0.13,-0.01,0.21,0.13,-44.19,-21.25,19.72
13121,-9.78,-3.54,-0.13,-0.01,0.21,0.13,-44.19,-21.25,19.72
13132,-9.55,-4.39,1.83,0.23,0.53,0.38,-44.19,-21.25,19.72
13143,-9.55,-4.39,1.83,0.23,0.53,0.38,-44.19,-21.25,19.72
13154,-9.10,-3.70,-0.24,0.07,0.80,0.40,-44.19,-21.25,19.72
13165,-9.04,-3.63,-2.89,-0.09,0.57,0.26,-44.19,-21.25,19.72
13176,-9.04,-3.63,-2.89,-0.09,0.57,0.26,-44.19,-21.25,19.72
13187,-9.17,-3.23,-1.74,-0.06,0.02,0.18,-44.59,-18.83,19.72
13198,-9.17,-3.23,-1.74,-0.06,0.02,0.18,-44.59,-18.83,19.72
13209,-9.56,-2.92,-0.51,-0.07,-0.33,-0.02,-44.59,-18.83,19.72
13220,-9.56,-2.92,-0.51,-0.07,-0.33,-0.02,-44.59,-18.83,19.72
13325,-9.54,-3.24,-0.54,-0.18,0.24,0.10,-44.19,-20.34,19.72
13335,-9.54,-3.24,-0.54,-0.18,0.24,0.10,-44.19,-20.34,19.72
13346,-9.97,-2.37,-2.31,-0.32,0.02,-0.02,-44.19,-20.34,19.72
13357,-9.97,-2.37,-2.31,-0.32,0.02,-0.02,-44.19,-20.34,19.72
13368,-10.34,-2.08,0.77,-0.10,-0.42,-0.13,-44.19,-20.34,19.72
13379,-10.34,-2.08,0.77,-0.10,-0.42,-0.13,-44.19,-20.34,19.72
13390,-10.81,-2.62,0.19,-0.07,-0.31,-0.45,-44.19,-20.34,19.72
13401,-10.81,-2.62,0.19,-0.07,-0.31,-0.45,-44.19,-20.34,19.72
13412,-7.83,-3.89,-0.27,0.09,-0.25,-0.54,-44.19,-20.34,19.72
13423,-7.83,-3.89,-0.27,0.09,-0.25,-0.54,-44.19,-20.34,19.72
13434,-8.44,-3.59,1.15,0.12,-0.16,-0.24,-44.19,-20.34,19.72
13445,-7.25,-6.40,-1.78,0.13,0.32,-0.32,-43.39,-21.55,19.72
13456,-7.25,-6.40,-1.78,0.13,0.32,-0.32,-43.39,-21.55,19.72
13560,-8.80,-3.87,-0.23,0.16,0.33,0.28,-43.39,-21.55,19.72
13570,-9.19,-3.95,-1.06,-0.02,0.29,0.25,-44.80,-20.79,18.81
13581,-9.19,-3.95,-1.06,-0.02,0.29,0.25,-44.80,-20.79,18.81
13592,-9.17,-3.79,-1.12,-0.15,0.13,0.15,-44.80,-20.79,18.81
13603,-9.17,-3.79,-1.12,-0.15,0.13,0.15,-44.80,-20.79,18.81
13614,-9.41,-3.70,-1.36,-0.23,-0.00,0.08,-44.80,-20.79,18.81
13625,-9.25,-3.31,-1.34,-0.22,-0.13,0.03,-44.80,-20.79,18.81
13636,-9.25,-3.31,-1.34,-0.22,-0.13,0.03,-44.80,-20.79,18.81
13647,-9.26,-3.62,-0.20,-0.12,-0.29,-0.07,-44.80,-20.79,18.81
13658,-9.26,-3.62,-0.20,-0.12,-0.29,-0.07,-44.80,-20.79,18.81
13669,-8.87,-3.30,-1.80,-0.18,-0.29,-0.17,-44.80,-20.79,18.81
13680,-8.87,-3.30,-1.80,-0.18,-0.29,-0.17,-44.80,-20.79,18.81
13784,-9.27,-4.34,0.19,-0.13,0.18,0.21,-44.19,-19.74,19.35
13795,-9.05,-3.73,-1.01,-0.22,0.37,0.35,-44.19,-19.74,19.35
13806,-9.03,-3.80,-1.14,-0.04,0.29,0.22,-44.19,-19.74,19.35
13817,-9.03,-3.80,-1.14,-0.04,0.29,0.22,-44.19,-19.74,19.35
13828,-9.09,-3.60,-0.46,0.18,0.25,0.07,-45.60,-19.59,17.71
13839,-9.09,-3.60,-0.46,0.18,0.25,0.07,-45.60,-19.59,17.71
13850,-9.36,-3.57,-0.91,0.17,0.21,-0.06,-45.60,-19.59,17.71
13861,-9.36,-3.57,-0.91,0.17,0.21,-0.06,-45.60,-19.59,17.71
13872,-9.24,-3.50,-1.12,0.06,0.05,-0.11,-45.60,-19.59,17.71
13883,-9.24,-3.50,-1.12,0.06,0.05,-0.11,-45.60,-19.59,17.71
13894,-9.44,-3.51,-1.55,0.00,-0.13,-0.14,-45.60,-19.59,17.71
13905,-9.34,-3.57,-0.98,-0.04,-0.47,-0.14,-45.60,-19.59,17.71
13916,-9.34,-3.57,-0.98,-0.04,-0.47,-0.14,-45.60,-19.59,17.71
14021,-9.21,-3.77,0.16,0.02,0.36,0.24,-43.19,-21.70,19.17
14031,-9.18,-3.58,-1.00,-0.07,0.41,0.17,-43.19,-21.70,19.17
14042,-9.18,-3.58,-1.00,-0.07,0.41,0.17,-43.19,-21.70,19.17
14053,-9.13,-3.70,-1.53,-0.10,0.20,0.10,-43.19,-21.70,19.17
14064,-9.13,-3.70,-1.53,-0.10,0.20,0.10,-43.19,-21.70,19.17
14075,-9.29,-3.69,-1.19,-0.11,-0.09,0.06,-44.19,-20.64,18.99
14086,-9.14,-3.18,-0.59,-0.08,-0.29,0.04,-44.19,-20.64,18.99
14097,-9.14,-3.18,-0.59,-0.08,-0.29,0.04,-44.19,-20.64,18.99
14108,-9.28,-3.51,-0.21,-0.07,-0.29,-0.09,-44.19,-20.64,18.99
14119,-9.28,-3.51,-0.21,-0.07,-0.29,-0.09,-44.19,-20.64,18.99
14130,-9.30,-3.76,-0.87,-0.10,-0.24,-0.17,-44.19,-20.64,18.99
14141,-9.30,-3.76,-0.87,-0.10,-0.24,-0.17,-44.19,-20.64,18.99
14247,-9.34,-3.19,-1.85,-0.23,0.03,0.15,-43.59,-21.40,19.17
14258,-9.34,-3.19,-1.85,-0.23,0.03,0.15,-43.59,-21.40,19.17
14269,-9.20,-3.42,-0.74,-0.16,-0.30,0.06,-43.59,-21.40,19.17
14280,-9.20,-3.42,-0.74,-0.16,-0.30,0.06,-43.59,-21.40,19.17
14291,-9.16,-3.20,-0.54,-0.12,-0.34,-0.05,-43.59,-21.40,19.17
14302,-9.16,-3.20,-0.54,-0.12,-0.34,-0.05,-43.59,-21.40,19.17
14313,-9.10,-3.44,-0.97,-0.21,-0.31,-0.25,-43.59,-21.40,19.17
14324,-9.10,-3.44,-0.97,-0.21,-0.31,-0.25,-43.59,-21.40,19.17
14335,-9.36,-4.08,-0.82,-0.20,-0.30,-0.30,-42.99,-20.34,18.99
14346,-9.52,-3.96,-0.01,-0.02,-0.19,-0.11,-42.99,-20.34,18.99
14357,-9.52,-3.96,-0.01,-0.02,-0.19,-0.11,-42.99,-20.34,18.99
14368,-9.47,-3.70,-0.01,0.08,-0.02,0.05,-42.99,-20.34,18.99
14509,-10.04,-2.94,-0.11,-0.18,-0.23,-0.72,-44.39,-20.19,17.71
14520,-10.04,-2.94,-0.11,-0.18,-0.23,-0.72,-44.39,-20.19,17.71
14531,-7.88,-5.27,-0.80,-0.11,-0.14,-0.88,-44.39,-20.19,17.71
14542,-7.88,-5.27,-0.80,-0.11,-0.14,-0.88,-44.39,-20.19,17.71
14553,-8.75,-4.01,-0.66,0.09,-0.26,-0.36,-44.39,-20.19,17.71
14564,-8.75,-4.01,-0.66,0.09,-0.26,-0.36,-44.39,-20.19,17.71
14575,-8.40,-4.25,0.63,0.36,-0.29,-0.07,-43.39,-21.85,20.45
14586,-8.19,-4.37,-0.87,0.46,-0.05,0.11,-43.39,-21.85,20.45
14597,-8.19,-4.37,-0.87,0.46,-0.05,0.11,-43.39,-21.85,20.45
14608,-9.48,-4.13,-0.91,0.47,0.12,0.22,-43.39,-21.85,20.45
14619,-9.48,-4.13,-0.91,0.47,0.12,0.22,-43.39,-21.85,20.45
14630,-8.93,-4.60,-1.55,0.35,0.26,0.13,-43.39,-21.85,20.45
14641,-8.93,-4.60,-1.55,0.35,0.26,0.13,-43.39,-21.85,20.45
14745,-8.58,-4.88,-0.79,-0.08,0.01,-0.11,-43.19,-20.79,18.81
14756,-9.89,-3.93,-0.21,-0.05,-0.04,0.09,-43.19,-20.79,18.81
14767,-9.32,-3.18,-0.41,-0.17,-0.06,0.10,-43.19,-20.79,18.81
14778,-9.32,-3.18,-0.41,-0.17,-0.06,0.10,-43.19,-20.79,18.81
14789,-9.19,-3.67,-0.79,-0.31,-0.12,0.02,-43.19,-20.79,18.81
14800,-9.19,-3.67,-0.79,-0.31,-0.12,0.02,-43.19,-20.79,18.81
14811,-8.97,-3.92,-1.10,-0.37,-0.21,-0.07,-43.19,-20.79,18.81
14822,-8.97,-3.92,-1.10,-0.37,-0.21,-0.07,-43.19,-20.79,18.81
14833,-8.95,-3.80,-0.26,-0.43,-0.44,-0.19,-43.59,-20.79,20.27
14844,-8.95,-3.80,-0.26,-0.43,-0.44,-0.19,-43.59,-20.79,20.27
14855,-8.96,-4.07,0.04,-0.49,-0.47,-0.31,-43.59,-20.79,20.27
14866,-9.57,-3.93,-0.83,-0.39,-0.35,-0.28,-43.59,-20.79,20.27
14971,-8.90,-2.66,-2.43,0.05,1.11,0.57,-43.39,-20.95,19.72
14981,-8.90,-2.66,-2.43,0.05,1.11,0.57,-43.39,-20.95,19.72
14992,-8.99,-3.81,-1.90,-0.01,0.58,0.26,-43.39,-20.95,19.72
15003,-8.99,-3.81,-1.90,-0.01,0.58,0.26,-43.39,-20.95,19.72
15014,-8.99,-3.70,-1.36,-0.09,0.16,0.16,-43.39,-20.95,19.72
15025,-8.99,-3.70,-1.36,-0.09,0.16,0.16,-43.39,-20.95,19.72
15036,-9.22,-3.42,-1.81,-0.14,-0.17,0.05,-43.39,-20.95,19.72
15047,-9.13,-3.55,-0.31,0.03,-0.35,-0.04,-43.39,-20.95,19.72
15058,-9.13,-3.55,-0.31,0.03,-0.35,-0.04,-43.39,-20.95,19.72
15069,-9.25,-3.77,-0.54,0.10,-0.24,-0.08,-43.39,-20.95,19.72
15080,-9.25,-3.77,-0.54,0.10,-0.24,-0.08,-43.39,-20.95,19.72
15091,-9.34,-3.84,-0.41,0.14,-0.10,-0.03,-45.40,-22.46,18.63
15102,-9.34,-3.84,-0.41,0.14,-0.10,-0.03,-45.40,-22.46,18.63
15207,-9.40,-3.67,-0.63,-0.10,-0.13,-0.13,-44.19,-20.95,19.35
15217,-9.40,-3.67,-0.63,-0.10,-0.13,-0.13,-44.19,-20.95,19.35
15228,-9.52,-3.69,-0.09,-0.08,-0.03,-0.08,-44.19,-20.95,19.35
15239,-9.52,-3.69,-0.09,-0.08,-0.03,-0.08,-44.19,-20.95,19.35
15250,-9.47,-3.87,0.35,-0.00,0.13,-0.02,-44.19,-20.95,19.35
15261,-9.47,-3.87,0.35,-0.00,0.13,-0.02,-44.19,-20.95,19.35
15272,-9.33,-4.16,0.27,-0.01,0.55,0.09,-44.19,-20.95,19.35
15283,-9.33,-4.16,0.27,-0.01,0.55,0.09,-44.19,-20.95,19.35
15294,-9.32,-3.16,-0.81,-0.12,0.70,0.25,-44.19,-20.95,19.35
15305,-9.32,-3.16,-0.81,-0.12,0.70,0.25,-44.19,-20.95,19.35
15316,-9.19,-3.38,-1.95,-0.12,0.50,0.22,-44.19,-20.95,19.35
15327,-9.37,-3.40,-1.02,-0.21,0.13,0.18,-43.59,-21.10,17.71
15438,-9.34,-4.14,0.45,0.01,-0.38,-0.21,-43.59,-21.10,17.71
15449,-9.43,-3.61,-0.47,-0.09,-0.09,-0.04,-44.80,-20.49,19.17
15460,-9.43,-3.61,-0.47,-0.09,-0.09,-0.04,-44.80,-20.49,19.17
15471,-9.54,-3.75,-0.54,-0.08,0.04,0.04,-44.80,-20.49,19.17
15482,-9.54,-3.75,-0.54,-0.08,0.04,0.04,-44.80,-20.49,19.17
15493,-9.50,-3.22,-0.42,-0.11,0.12,0.20,-44.80,-20.49,19.17
15504,-9.50,-3.22,-0.42,-0.11,0.12,0.20,-44.80,-20.49,19.17
15515,-9.02,-4.09,-0.22,-0.06,0.29,0.25,-44.80,-20.49,19.17
15526,-9.10,-2.95,-2.17,0.08,0.32,0.19,-44.80,-20.49,19.17
15537,-9.10,-2.95,-2.17,0.08,0.32,0.19,-44.80,-20.49,19.17
15548,-9.27,-2.48,0.28,0.32,0.23,-0.04,-44.80,-20.49,19.17
15559,-9.27,-2.48,0.28,0.32,0.23,-0.04,-44.80,-20.49,19.17
15570,-10.01,-1.78,0.89,0.25,0.30,-0.35,-44.80,-20.49,19.17
15674,-8.21,-5.26,-1.16,0.34,-0.19,-0.02,-43.39,-19.44,16.80
15684,-8.21,-5.26,-1.16,0.34,-0.19,-0.02,-43.39,-19.44,16.80
15695,-7.08,-6.27,-1.45,0.39,0.10,0.12,-43.39,-19.44,16.80
15706,-7.08,-6.27,-1.45,0.39,0.10,0.12,-43.39,-19.44,16.80
15717,-8.18,-5.81,-2.30,0.40,0.48,0.15,-43.99,-21.40,19.17
15728,-9.12,-5.80,-3.41,0.40,0.51,0.15,-43.99,-21.40,19.17
15739,-9.12,-5.80,-3.41,0.40,0.51,0.15,-43.99,-21.40,19.17
15750,-9.47,-3.05,-0.68,0.45,0.05,0.37,-43.99,-21.40,19.17
15761,-9.47,-3.05,-0.68,0.45,0.05,0.37,-43.99,-21.40,19.17
15772,-10.43,-1.52,0.75,0.34,-0.07,0.27,-43.99,-21.40,19.17
15783,-10.43,-1.52,0.75,0.34,-0.07,0.27,-43.99,-21.40,19.17
15794,-9.95,-2.46,0.35,0.10,-0.02,-0.05,-43.99,-21.40,19.17
15900,-9.86,-3.41,-0.21,-0.24,-0.26,0.08,-45.00,-21.25,18.26
15911,-9.21,-3.64,-0.52,-0.34,-0.24,-0.01,-45.00,-21.25,18.26
15922,-9.21,-3.64,-0.52,-0.34,-0.24,-0.01,-45.00,-21.25,18.26
15933,-9.43,-4.04,-0.25,-0.22,-0.16,-0.05,-45.00,-21.25,18.26
15944,-9.43,-4.04,-0.25,-0.22,-0.16,-0.05,-45.00,-21.25,18.26
15955,-9.25,-4.04,-0.24,-0.07,-0.00,-0.01,-45.00,-21.25,18.26
15966,-9.25,-4.04,-0.24,-0.07,-0.00,-0.01,-45.00,-21.25,18.26
15977,-9.43,-4.75,0.62,0.05,0.22,0.06,-42.58,-21.55,21.18
15988,-9.20,-4.17,0.96,0.08,0.59,0.33,-42.58,-21.55,21.18
15999,-9.20,-4.17,0.96,0.08,0.59,0.33,-42.58,-21.55,21.18
16010,-9.23,-2.96,-1.13,-0.11,0.69,0.34,-42.58,-21.55,21.18
16021,-9.23,-2.96,-1.13,-0.11,0.69,0.34,-42.58,-21.55,21.18
16032,-9.24,-3.71,-1.49,-0.20,0.41,0.19,-42.58,-21.55,21.18
16136,-9.34,-3.66,-0.88,0.13,-0.07,-0.05,-43.39,-20.34,18.99
16147,-9.35,-4.27,0.35,0.18,0.03,0.00,-43.39,-20.34,18.99
16158,-9.35,-4.27,0.35,0.18,0.03,0.00,-43.39,-20.34,18.99
16169,-9.31,-3.36,-0.63,0.02,0.16,0.10,-43.39,-20.34,18.99
16180,-9.31,-3.36,-0.63,0.02,0.16,0.10,-43.39,-20.34,18.99
16191,-9.19,-3.71,-0.80,-0.14,0.08,0.07,-43.39,-20.34,18.99
16202,-9.19,-3.71,-0.80,-0.14,0.08,0.07,-43.39,-20.34,18.99
16213,-9.32,-3.29,-1.17,-0.26,-0.09,0.08,-43.59,-20.49,18.44
16224,-9.32,-3.29,-1.17,-0.26,-0.09,0.08,-43.59,-20.49,18.44
16235,-9.10,-3.55,-0.88,-0.20,-0.24,0.01,-43.59,-20.49,18.44
16246,-9.10,-3.55,-0.88,-0.20,-0.24,0.01,-43.59,-20.49,18.44
16257,-9.08,-3.38,-0.51,-0.12,-0.22,-0.06,-43.59,-20.49,18.44
16364,-9.31,-3.47,-0.38,-0.00,0.59,0.08,-42.58,-21.55,18.99
16374,-9.39,-3.31,-1.49,-0.05,0.61,0.16,-42.58,-21.55,18.99
16385,-9.39,-3.31,-1.49,-0.05,0.61,0.16,-42.58,-21.55,18.99
16396,-9.22,-3.73,-1.90,-0.13,0.31,0.16,-42.58,-21.55,18.99
16407,-9.56,-1.93,-3.38,-0.24,-0.14,0.18,-42.58,-21.55,18.99
16418,-9.56,-1.93,-3.38,-0.24,-0.14,0.18,-42.58,-21.55,18.99
16429,-10.20,-2.95,0.07,-0.05,-0.60,-0.13,-42.58,-21.55,18.99
16440,-10.20,-2.95,0.07,-0.05,-0.60,-0.13,-42.58,-21.55,18.99
16451,-9.42,-3.12,-0.52,-0.04,-0.44,-0.45,-42.58,-21.55,18.99
16593,-9.76,-2.35,0.35,-0.05,0.14,0.25,-43.19,-21.70,19.54
16604,-9.76,-2.35,0.35,-0.05,0.14,0.25,-43.19,-21.70,19.54
16615,-9.66,-4.13,-0.97,-0.27,0.17,0.03,-43.19,-21.70,19.54
16626,-9.66,-4.13,-0.97,-0.27,0.17,0.03,-43.19,-21.70,19.54
16637,-9.04,-3.42,-3.59,-0.43,-0.08,0.08,-43.19,-21.70,19.54
16648,-10.10,-3.46,-0.57,0.01,-0.43,0.03,-43.19,-21.70,19.54
16659,-10.10,-3.46,-0.57,0.01,-0.43,0.03,-43.19,-21.70,19.54
16670,-10.76,-2.60,1.39,0.03,-0.34,-0.14,-43.19,-21.70,19.54
16681,-10.76,-2.60,1.39,0.03,-0.34,-0.14,-43.19,-21.70,19.54
16692,-8.74,-3.82,0.64,-0.22,-0.02,-0.42,-43.19,-21.70,19.54
16703,-8.74,-3.82,0.64,-0.22,-0.02,-0.42,-43.19,-21.70,19.54
16714,-7.76,-5.20,-0.99,-0.33,0.13,-0.41,-41.18,-22.61,18.81
16821,-9.11,-4.23,0.16,-0.21,-0.32,0.05,-41.18,-22.61,18.81
16831,-9.74,-3.47,-0.49,-0.17,-0.07,0.16,-41.18,-22.61,18.81
16842,-9.74,-3.47,-0.49,-0.17,-0.07,0.16,-41.18,-22.61,18.81
16853,-9.82,-4.16,-0.87,0.02,0.05,0.13,-44.59,-23.06,18.99
16864,-9.82,-4.16,-0.87,0.02,0.05,0.13,-44.59,-23.06,18.99
16875,-9.81,-4.02,0.14,0.61,0.36,0.43,-44.59,-23.06,18.99
16886,-9.81,-4.02,0.14,0.61,0.36,0.43,-44.59,-23.06,18.99
16897,-9.43,-2.67,0.68,0.59,0.75,0.66,-44.59,-23.06,18.99
16908,-9.06,-3.06,-1.91,-0.01,0.84,0.46,-44.59,-23.06,18.99
16919,-9.06,-3.06,-1.91,-0.01,0.84,0.46,-44.59,-23.06,18.99
16930,-8.76,-4.06,-1.53,-0.12,0.39,0.25,-44.59,-23.06,18.99
16941,-8.76,-4.06,-1.53,-0.12,0.39,0.25,-44.59,-23.06,18.99
16952,-9.00,-3.87,-1.08,-0.19,0.00,0.11,-44.59,-23.06,18.99
17057,-9.17,-4.12,-0.79,0.07,-0.04,0.02,-42.99,-22.15,17.53
17067,-9.17,-4.12,-0.79,0.07,-0.04,0.02,-42.99,-22.15,17.53
17078,-9.35,-3.68,-0.28,-0.03,-0.10,0.06,-42.99,-22.15,17.53
17089,-9.32,-3.36,-0.19,-0.15,-0.13,0.03,-43.19,-21.10,18.44
17100,-9.32,-3.36,-0.19,-0.15,-0.13,0.03,-43.19,-21.10,18.44
17111,-9.15,-3.76,-0.21,-0.13,-0.15,-0.05,-43.19,-21.10,18.44
17122,-9.15,-3.76,-0.21,-0.13,-0.15,-0.05,-43.19,-21.10,18.44
17133,-9.12,-3.79,-1.23,-0.14,-0.12,-0.11,-43.19,-21.10,18.44
17144,-9.12,-3.79,-1.23,-0.14,-0.12,-0.11,-43.19,-21.10,18.44
17155,-9.31,-3.82,-0.73,-0.06,-0.07,-0.09,-43.19,-21.10,18.44
17166,-9.31,-3.82,-0.73,-0.06,-0.07,-0.09,-43.19,-21.10,18.44
17177,-9.41,-3.57,-0.58,0.04,0.06,-0.02,-43.19,-21.10,18.44
17281,-9.63,-2.95,-0.96,-0.16,-0.39,0.07,-43.79,-20.95,19.35
17291,-9.24,-3.03,-0.64,-0.07,-0.48,-0.22,-43.79,-20.95,19.35
17302,-9.24,-3.03,-0.64,-0.07,-0.48,-0.22,-43.79,-20.95,19.35
17313,-9.49,-3.42,-0.13,-0.20,-0.44,-0.56,-43.79,-20.95,19.35
17324,-9.49,-3.42,-0.13,-0.20,-0.44,-0.56,-43.79,-20.95,19.35
17335,-7.82,-4.65,-0.85,-0.52,-0.47,-0.79,-43.79,-20.95,19.35
17346,-7.82,-4.65,-0.85,-0.52,-0.47,-0.79,-43.79,-20.95,19.35
17357,-8.12,-5.10,-0.50,-0.49,-0.45,-0.53,-42.18,-23.06,19.72
17368,-8.45,-4.86,-0.65,-0.21,-0.29,-0.10,-42.18,-23.06,19.72
17379,-8.45,-4.86,-0.65,-0.21,-0.29,-0.10,-42.18,-23.06,19.72
17390,-11.66,-3.49,1.02,0.07,-0.09,0.24,-42.18,-23.06,19.72
17401,-11.66,-3.49,1.02,0.07,-0.09,0.24,-42.18,-23.06,19.72
17505,-8.19,-4.96,-0.57,0.33,0.15,-0.49,-42.79,-22.30,19.17
17516,-7.73,-5.42,-0.50,0.35,0.20,-0.35,-42.79,-22.30,19.17
17527,-7.73,-5.42,-0.50,0.35,0.20,-0.35,-42.79,-22.30,19.17
17538,-7.33,-5.73,-0.97,0.43,0.24,-0.01,-42.79,-22.30,19.17
17549,-8.27,-4.71,-0.42,0.50,0.16,0.44,-42.79,-22.30,19.17
17560,-8.27,-4.71,-0.42,0.50,0.16,0.44,-42.79,-22.30,19.17
17571,-11.69,-2.01,1.99,0.35,0.18,0.68,-42.79,-22.30,19.17
17582,-11.69,-2.01,1.99,0.35,0.18,0.68,-42.79,-22.30,19.17
17593,-9.76,-1.85,0.43,-0.12,0.31,0.33,-42.79,-22.30,19.17
17604,-9.76,-1.85,0.43,-0.12,0.31,0.33,-42.79,-22.30,19.17
17615,-9.23,-3.68,-4.39,-0.49,0.22,0.02,-41.98,-21.70,17.35
17626,-9.23,-3.68,-4.39,-0.49,0.22,0.02,-41.98,-21.70,17.35
17637,-9.68,-2.76,-2.08,-0.32,-0.56,0.06,-41.98,-21.70,17.35
17743,-8.14,-5.00,-0.47,-0.19,0.10,0.12,-44.39,-21.70,20.63
17753,-9.49,-4.29,-0.95,-0.14,0.14,0.26,-44.39,-21.70,20.63
17764,-9.49,-4.29,-0.95,-0.14,0.14,0.26,-44.39,-21.70,20.63
17775,-10.58,-3.15,-0.85,-0.04,0.15,0.25,-44.39,-21.70,20.63
17786,-10.58,-3.15,-0.85,-0.04,0.15,0.25,-44.39,-21.70,20.63
17797,-9.65,-3.25,-0.14,0.09,0.23,0.15,-44.39,-21.70,20.63
17808,-9.65,-3.25,-0.14,0.09,0.23,0.15,-44.39,-21.70,20.63
17819,-9.54,-3.67,-0.42,0.19,0.35,0.12,-44.39,-21.70,20.63
17835,-9.33,-3.98,-1.36,0.11,0.38,0.19,-44.39,-21.70,20.63
17841,-9.33,-3.98,-1.36,0.11,0.38,0.19,-44.39,-21.70,20.63
17852,-9.45,-2.89,-1.86,-0.00,0.24,0.29,-45.00,-21.25,18.26
17863,-9.45,-2.89,-1.86,-0.00,0.24,0.29,-45.00,-21.25,18.26
17874,-9.35,-3.08,-1.13,-0.07,0.05,0.24,-45.00,-21.25,18.26
17978,-10.37,-2.32,-1.36,0.12,0.24,-0.64,-43.99,-21.40,17.35
17989,-9.44,-4.92,0.09,0.08,0.06,-0.88,-43.99,-21.40,17.35
18000,-9.44,-4.92,0.09,0.08,0.06,-0.88,-43.99,-21.40,17.35
18011,-8.69,-5.07,-0.59,0.09,0.04,-0.63,-43.99,-21.40,17.35
18022,-8.69,-5.07,-0.59,0.09,0.04,-0.63,-43.99,-21.40,17.35
18033,-9.10,-4.52,-0.16,0.41,-0.10,-0.23,-43.99,-21.40,17.35
18044,-9.10,-4.52,-0.16,0.41,-0.10,-0.23,-43.99,-21.40,17.35
18055,-9.64,-3.49,1.53,0.67,-0.23,0.09,-43.99,-21.40,17.35
18066,-9.64,-3.49,1.53,0.67,-0.23,0.09,-43.99,-21.40,17.35
18077,-8.21,-4.79,-1.66,0.67,-0.04,0.11,-43.99,-21.40,17.35
18088,-8.21,-4.79,-1.66,0.67,-0.04,0.11,-43.99,-21.40,17.35
18099,-7.58,-4.36,-2.26,1.06,0.09,0.14,-43.99,-21.40,17.35
18205,-9.84,-2.72,-0.53,0.28,0.11,0.14,-43.19,-22.61,19.54
18215,-9.32,-3.22,0.55,0.13,0.00,0.03,-43.19,-22.61,19.54
18226,-9.32,-3.22,0.55,0.13,0.00,0.03,-43.19,-22.61,19.54
18237,-9.39,-3.38,-0.39,0.02,0.02,-0.05,-45.40,-20.95,17.90
18248,-9.39,-3.38,-0.39,0.02,0.02,-0.05,-45.40,-20.95,17.90
18259,-8.63,-4.72,-0.77,0.03,0.02,-0.13,-45.40,-20.95,17.90
18270,-8.36,-5.09,-0.52,0.15,0.04,0.00,-45.40,-20.95,17.90
18281,-8.36,-5.09,-0.52,0.15,0.04,0.00,-45.40,-20.95,17.90
18292,-8.53,-4.99,-0.12,0.22,0.15,0.23,-45.40,-20.95,17.90
18398,-9.13,-4.20,-0.46,-0.27,-0.26,-0.02,-44.59,-20.34,17.53
18408,-9.13,-4.20,-0.46,-0.27,-0.26,-0.02,-44.59,-20.34,17.53
18419,-9.03,-3.58,-0.72,-0.21,-0.23,-0.06,-44.59,-20.34,17.53
18430,-9.14,-3.90,-1.21,-0.19,-0.28,-0.18,-44.59,-20.34,17.53
18441,-9.14,-3.90,-1.21,-0.19,-0.28,-0.18,-44.59,-20.34,17.53
18452,-9.32,-4.18,-0.32,-0.20,-0.21,-0.17,-44.59,-20.34,17.53
18463,-9.32,-4.18,-0.32,-0.20,-0.21,-0.17,-44.59,-20.34,17.53
18474,-9.30,-3.71,-0.27,-0.12,0.00,-0.06,-44.59,-20.34,17.53
18485,-9.30,-3.71,-0.27,-0.12,0.00,-0.06,-44.59,-20.34,17.53
18496,-9.47,-4.67,0.46,-0.04,0.31,0.01,-43.79,-20.04,18.63
18507,-9.47,-4.67,0.46,-0.04,0.31,0.01,-43.79,-20.04,18.63
18518,-9.22,-3.55,-0.70,-0.05,0.60,0.25,-43.79,-20.04,18.63
18660,-9.31,-4.04,0.18,0.14,-0.02,-0.02,-43.59,-19.29,16.62
18671,-9.29,-3.94,-1.03,-0.02,0.08,0.03,-43.59,-19.29,16.62
18682,-9.29,-3.94,-1.03,-0.02,0.08,0.03,-43.59,-19.29,16.62
18693,-9.46,-3.16,-1.70,-0.14,-0.06,0.06,-43.59,-19.29,16.62
18704,-9.46,-3.16,-1.70,-0.14,-0.06,0.06,-43.59,-19.29,16.62
18715,-9.43,-3.12,-1.10,-0.11,-0.35,0.02,-43.59,-19.29,16.62
18726,-9.43,-3.12,-1.10,-0.11,-0.35,0.02,-43.59,-19.29,16.62
18737,-9.03,-3.64,-0.26,-0.01,-0.42,-0.08,-44.19,-20.64,18.99
18748,-9.03,-3.64,-0.26,-0.01,-0.42,-0.08,-44.19,-20.64,18.99
18759,-9.04,-3.75,-0.40,-0.04,-0.38,-0.19,-44.19,-20.64,18.99
18770,-9.10,-4.74,-0.20,-0.17,-0.45,-0.30,-44.19,-20.64,18.99
18781,-9.10,-4.74,-0.20,-0.17,-0.45,-0.30,-44.19,-20.64,18.99
18792,-9.40,-3.83,0.08,-0.20,-0.23,-0.08,-44.19,-20.64,18.99
18896,-9.07,-3.89,-2.11,-0.27,-0.01,0.13,-45.40,-20.95,17.17
18907,-9.07,-3.89,-2.11,-0.27,-0.01,0.13,-45.40,-20.95,17.17
18918,-9.13,-3.71,-0.35,-0.17,-0.35,0.08,-45.40,-20.95,17.17
18929,-9.13,-3.71,-0.35,-0.17,-0.35,0.08,-45.40,-20.95,17.17
18940,-9.18,-3.20,-0.81,-0.12,-0.33,-0.02,-45.40,-20.95,17.17
18951,-9.37,-3.25,-0.85,-0.13,-0.28,-0.18,-45.40,-20.95,17.17
18962,-9.37,-3.25,-0.85,-0.13,-0.28,-0.18,-45.40,-20.95,17.17
18973,-9.46,-3.63,-0.80,-0.04,-0.18,-0.18,-45.40,-20.95,17.17
18984,-9.46,-3.63,-0.80,-0.04,-0.18,-0.18,-45.40,-20.95,17.17
18995,-9.35,-4.14,-0.34,0.11,-0.06,-0.05,-42.99,-19.74,18.63
19006,-9.35,-4.14,-0.34,0.11,-0.06,-0.05,-42.99,-19.74,18.63
19017,-9.35,-3.84,0.06,0.05,0.01,0.08,-42.99,-19.74,18.63
19123,-9.30,-3.73,-1.04,-0.15,-0.06,-0.12,-42.99,-20.64,17.90
19133,-9.35,-3.65,-1.07,-0.06,-0.01,-0.08,-42.99,-20.64,17.90
19144,-9.35,-3.65,-1.07,-0.06,-0.01,-0.08,-42.99,-20.64,17.90
19155,-9.29,-4.11,0.59,0.10,0.08,-0.04,-42.99,-20.64,17.90
19166,-9.29,-4.11,0.59,0.10,0.08,-0.04,-42.99,-20.64,17.90
19177,-9.26,-3.61,-0.28,0.06,0.51,0.06,-42.99,-20.64,17.90
19188,-9.26,-3.61,-0.28,0.06,0.51,0.06,-42.99,-20.64,17.90
19199,-9.52,-3.12,0.23,0.04,0.66,0.17,-42.99,-20.64,17.90
19210,-9.24,-3.05,-2.49,-0.16,0.59,0.19,-42.99,-20.64,17.90
19221,-9.24,-3.05,-2.49,-0.16,0.59,0.19,-42.99,-20.64,17.90
19232,-9.30,-3.16,-2.81,-0.33,0.14,0.19,-44.80,-20.49,15.16
19243,-9.30,-3.16,-2.81,-0.33,0.14,0.19,-44.80,-20.49,15.16
19254,-9.45,-2.67,-0.94,-0.23,-0.46,0.08,-44.80,-20.49,15.16
19361,-8.45,-5.30,-1.26,-0.02,0.02,0.07,-44.80,-20.49,15.16
19371,-9.36,-3.54,-0.31,0.11,-0.05,0.25,-43.99,-21.10,18.08
19382,-9.36,-3.54,-0.31,0.11,-0.05,0.25,-43.99,-21.10,18.08
19393,-11.32,-2.78,-0.05,0.08,-0.08,0.21,-43.99,-21.10,18.08
19404,-11.32,-2.78,-0.05,0.08,-0.08,0.21,-43.99,-21.10,18.08
19415,-9.23,-3.12,-0.60,-0.01,-0.09,0.00,-43.99,-21.10,18.08
19426,-9.23,-3.12,-0.60,-0.01,-0.09,0.00,-43.99,-21.10,18.08
19437,-9.41,-4.13,-0.56,-0.04,-0.08,-0.08,-43.99,-21.10,18.08
19448,-9.41,-4.13,-0.56,-0.04,-0.08,-0.08,-43.99,-21.10,18.08
19459,-9.23,-4.09,-0.96,-0.04,0.02,-0.05,-43.99,-21.10,18.08
19470,-9.48,-3.94,-0.09,0.06,0.11,0.06,-43.99,-21.10,18.08
19481,-9.48,-3.94,-0.09,0.06,0.11,0.06,-43.99,-21.10,18.08
19588,-9.21,-2.44,-1.89,-0.37,-0.28,0.11,-44.19,-20.95,18.63
19598,-10.30,-1.73,0.49,-0.13,-0.49,-0.20,-44.19,-20.95,18.63
19609,-10.30,-1.73,0.49,-0.13,-0.49,-0.20,-44.19,-20.95,18.63
19620,-11.28,-1.26,1.15,-0.17,-0.33,-0.75,-43.19,-19.89,18.08
19631,-8.10,-5.14,0.26,-0.20,-0.25,-1.22,-43.19,-19.89,18.08
19642,-8.10,-5.14,0.26,-0.20,-0.25,-1.22,-43.19,-19.89,18.08
19653,-7.16,-5.90,-0.59,-0.10,-0.19,-0.80,-43.19,-19.89,18.08
19664,-7.16,-5.90,-0.59,-0.10,-0.19,-0.80,-43.19,-19.89,18.08
19675,-7.81,-5.79,-1.20,0.07,-0.06,-0.25,-43.19,-19.89,18.08
19686,-7.81,-5.79,-1.20,0.07,-0.06,-0.25,-43.19,-19.89,18.08
19697,-7.20,-6.51,-1.96,0.24,0.14,0.05,-43.19,-19.89,18.08
19708,-7.20,-6.51,-1.96,0.24,0.14,0.05,-43.19,-19.89,18.08
19814,-9.50,-3.52,-0.68,0.02,0.17,-0.00,-43.79,-21.55,16.80
19824,-9.50,-3.52,-0.68,0.02,0.17,-0.00,-43.79,-21.55,16.80
19835,-9.42,-3.75,-0.86,-0.01,0.16,-0.09,-43.79,-21.55,16.80
19846,-9.42,-3.75,-0.86,-0.01,0.16,-0.09,-43.79,-21.55,16.80
19857,-9.25,-3.64,-1.00,-0.02,0.13,-0.17,-43.79,-21.55,16.80
19868,-9.25,-3.64,-1.00,-0.02,0.13,-0.17,-43.79,-21.55,16.80
19879,-8.72,-4.37,-1.08,-0.07,0.10,-0.22,-43.39,-21.55,16.44
19890,-8.72,-4.37,-1.08,-0.07,0.10,-0.22,-43.39,-21.55,16.44
19901,-8.66,-4.53,-1.22,-0.08,0.10,-0.13,-43.39,-21.55,16.44
19912,-9.35,-3.72,-1.18,-0.06,0.08,0.01,-43.39,-21.55,16.44
19923,-9.35,-3.72,-1.18,-0.06,0.08,0.01,-43.39,-21.55,16.44
19934,-9.02,-3.85,-0.97,-0.05,0.03,-0.01,-43.39,-21.55,16.44
19945,-9.02,-3.85,-0.97,-0.05,0.03,-0.01,-43.39,-21.55,16.44
20087,-8.70,-4.56,-0.63,-0.00,-0.31,-0.11,-44.39,-21.70,15.89
20097,-8.73,-4.67,-0.47,-0.07,-0.26,0.05,-44.39,-21.70,15.89
20108,-8.73,-4.67,-0.47,-0.07,-0.26,0.05,-44.39,-21.70,15.89
20119,-10.45,-3.36,-0.19,-0.08,-0.15,0.24,-44.39,-21.70,15.89
20130,-10.45,-3.36,-0.19,-0.08,-0.15,0.24,-44.39,-21.70,15.89
20141,-9.78,-3.15,0.33,-0.04,0.02,0.23,-43.79,-22.15,19.72
20152,-9.21,-4.40,-0.37,0.01,0.34,0.25,-43.79,-22.15,19.72
20163,-9.21,-4.40,-0.37,0.01,0.34,0.25,-43.79,-22.15,19.72
20174,-9.20,-3.84,-0.65,0.06,0.53,0.40,-43.79,-22.15,19.72
20185,-9.20,-3.84,-0.65,0.06,0.53,0.40,-43.79,-22.15,19.72
20196,-9.19,-2.79,-1.87,-0.11,0.45,0.36,-43.79,-22.15,19.72
20207,-9.19,-2.79,-1.87,-0.11,0.45,0.36,-43.79,-22.15,19.72
20312,-9.40,-3.66,-0.20,0.05,-0.23,-0.10,-45.00,-21.55,16.80
20322,-9.40,-3.66,-0.20,0.05,-0.23,-0.10,-45.00,-21.55,16.80
20333,-9.45,-3.82,0.03,0.09,0.03,-0.02,-45.00,-21.55,16.80
20344,-9.45,-3.82,0.03,0.09,0.03,-0.02,-45.00,-21.55,16.80
20355,-9.42,-3.48,0.58,0.05,0.33,0.10,-45.00,-21.55,16.80
20366,-9.42,-3.48,0.58,0.05,0.33,0.10,-45.00,-21.55,16.80
20377,-9.29,-3.23,-2.11,-0.13,0.52,0.10,-42.79,-19.89,16.26
20388,-9.29,-3.23,-2.11,-0.13,0.52,0.10,-42.79,-19.89,16.26
20399,-9.38,-3.61,-1.53,-0.20,0.22,0.10,-42.79,-19.89,16.26
20410,-9.38,-3.61,-1.53,-0.20,0.22,0.10,-42.79,-19.89,16.26
20421,-9.25,-3.25,-2.62,-0.25,-0.07,0.11,-42.79,-19.89,16.26
20432,-9.53,-3.31,-0.25,-0.08,-0.37,0.03,-42.79,-19.89,16.26
20443,-9.53,-3.31,-0.25,-0.08,-0.37,0.03,-42.79,-19.89,16.26
20548,-9.71,-3.98,-0.05,0.03,0.09,0.09,-42.79,-21.10,18.08
20559,-9.60,-3.48,-0.30,0.05,0.36,0.22,-42.79,-21.10,18.08
20570,-9.60,-3.48,-0.30,0.05,0.36,0.22,-42.79,-21.10,18.08
20581,-9.44,-3.45,-0.50,-0.07,0.56,0.28,-42.79,-21.10,18.08
20592,-9.05,-3.92,-2.10,-0.15,0.37,0.15,-42.79,-21.10,18.08
20603,-9.05,-3.92,-2.10,-0.15,0.37,0.15,-42.79,-21.10,18.08
20614,-9.09,-3.50,-1.53,-0.11,0.03,0.08,-42.79,-21.10,18.08
20625,-9.09,-3.50,-1.53,-0.11,0.03,0.08,-42.79,-21.10,18.08
20636,-9.39,-3.20,-1.23,-0.18,-0.14,0.03,-43.59,-21.10,14.07
20647,-9.39,-3.20,-1.23,-0.18,-0.14,0.03,-43.59,-21.10,14.07
20658,-9.32,-3.22,-0.52,-0.14,-0.28,-0.07,-43.59,-21.10,14.07
20669,-9.32,-3.22,-0.52,-0.14,-0.28,-0.07,-43.59,-21.10,14.07
20781,-9.36,-3.40,-1.47,-0.16,-0.33,-0.19,-43.59,-21.10,14.07
20782,-9.25,-3.41,-1.37,-0.03,0.37,0.16,-44.80,-20.19,17.71
20793,-9.29,-3.64,-1.68,-0.10,0.12,0.10,-44.80,-20.19,17.71
20804,-9.29,-3.64,-1.68,-0.10,0.12,0.10,-44.80,-20.19,17.71
20815,-9.33,-3.06,-1.73,-0.17,-0.15,0.10,-44.80,-20.19,17.71
20826,-9.33,-3.06,-1.73,-0.17,-0.15,0.10,-44.80,-20.19,17.71
20837,-9.42,-3.54,-0.54,-0.11,-0.33,0.01,-44.80,-20.19,17.71
20848,-9.42,-3.54,-0.54,-0.11,-0.33,0.01,-44.80,-20.19,17.71
20859,-9.34,-3.28,-0.95,-0.08,-0.33,-0.10,-44.80,-20.19,17.71
20870,-9.34,-3.28,-0.95,-0.08,-0.33,-0.10,-44.80,-20.19,17.71
20881,-9.31,-3.48,-0.66,0.01,-0.31,-0.16,-43.19,-20.49,19.17
20892,-9.36,-3.61,-0.74,0.11,-0.18,-0.09,-43.19,-20.49,19.17
20903,-9.36,-3.61,-0.74,0.11,-0.18,-0.09,-43.19,-20.49,19.17
21008,-9.28,-3.56,-0.50,-0.08,-0.12,-0.07,-43.19,-20.49,19.17
21018,-9.31,-3.61,-1.07,-0.08,-0.03,-0.07,-42.38,-20.49,17.71
21029,-9.31,-3.61,-1.07,-0.08,-0.03,-0.07,-42.38,-20.49,17.71
21040,-9.51,-3.77,-0.45,0.01,0.02,-0.02,-42.38,-20.49,17.71
21051,-9.51,-3.77,-0.45,0.01,0.02,-0.02,-42.38,-20.49,17.71
21062,-9.54,-4.40,1.11,0.11,0.20,-0.02,-42.38,-20.49,17.71
21073,-9.46,-3.26,-1.07,0.04,0.58,0.12,-42.38,-20.49,17.71
21084,-9.46,-3.26,-1.07,0.04,0.58,0.12,-42.38,-20.49,17.71
21095,-9.42,-3.34,-0.70,0.02,0.50,0.17,-42.38,-20.49,17.71
21106,-9.42,-3.34,-0.70,0.02,0.50,0.17,-42.38,-20.49,17.71
21117,-9.49,-3.63,-1.23,-0.16,0.29,0.18,-42.38,-20.49,17.71
21128,-9.49,-3.63,-1.23,-0.16,0.29,0.18,-42.38,-20.49,17.71
21275,-7.99,-5.56,-1.64,0.70,0.28,-0.25,-42.18,-21.85,17.90
21286,-7.99,-5.56,-1.64,0.70,0.28,-0.25,-42.18,-21.85,17.90
21297,-8.87,-5.36,-2.55,0.63,0.60,-0.23,-42.18,-21.85,17.90
21308,-8.87,-5.36,-2.55,0.63,0.60,-0.23,-42.18,-21.85,17.90
21319,-8.00,-6.22,-2.46,0.58,0.60,-0.18,-42.18,-21.85,17.90
21430,-8.76,-4.52,-1.02,0.13,0.12,0.12,-43.79,-20.04,17.17
21440,-9.81,-2.83,-0.52,0.14,0.17,0.25,-43.79,-20.04,17.17
21451,-9.81,-2.83,-0.52,0.14,0.17,0.25,-43.79,-20.04,17.17
21462,-9.43,-3.17,-0.70,0.01,0.12,0.15,-43.79,-20.04,17.17
21473,-9.57,-3.84,-0.81,-0.15,-0.01,0.08,-43.79,-20.04,17.17
21484,-9.57,-3.84,-0.81,-0.15,-0.01,0.08,-43.79,-20.04,17.17
21495,-9.31,-3.33,-1.49,-0.26,-0.16,0.03,-43.79,-20.04,17.17
21506,-9.31,-3.33,-1.49,-0.26,-0.16,0.03,-43.79,-20.04,17.17
21655,-9.32,-3.45,-1.41,-0.15,0.22,0.36,-45.40,-19.13,16.44
21665,-9.32,-3.45,-1.41,-0.15,0.22,0.36,-45.40,-19.13,16.44
21676,-8.88,-3.11,-1.94,-0.18,0.09,0.33,-45.40,-19.13,16.44
21687,-8.88,-3.11,-1.94,-0.18,0.09,0.33,-45.40,-19.13,16.44
21800,-9.12,-3.23,-1.77,-0.26,-0.39,-0.17,-44.19,-20.64,15.71
21810,-9.12,-3.23,-1.77,-0.26,-0.39,-0.17,-44.19,-20.64,15.71
21821,-9.12,-3.70,-0.97,-0.24,-0.70,-0.29,-44.19,-20.64,15.71
21832,-9.12,-3.70,-0.97,-0.24,-0.70,-0.29,-44.19,-20.64,15.71
21944,-9.21,-3.49,-0.52,0.13,0.50,0.29,-42.58,-21.55,18.63
21954,-9.22,-3.40,-1.34,-0.03,0.42,0.22,-42.58,-21.55,18.63
21965,-9.22,-3.40,-1.34,-0.03,0.42,0.22,-42.58,-21.55,18.63
21976,-9.16,-3.60,-1.53,-0.12,0.16,0.13,-42.58,-21.55,18.63
21987,-9.16,-3.60,-1.53,-0.12,0.16,0.13,-42.58,-21.55,18.63
22176,-9.19,-3.55,-0.74,-0.18,-0.18,0.00,-44.19,-20.34,17.90
22186,-9.19,-3.55,-0.74,-0.18,-0.18,0.00,-44.19,-20.34,17.90
22197,-9.18,-3.39,-0.40,-0.09,-0.19,-0.08,-44.19,-20.34,17.90
22208,-9.18,-3.39,-0.40,-0.09,-0.19,-0.08,-44.19,-20.34,17.90
22357,-9.34,-2.26,-2.27,-0.24,0.03,0.25,-42.18,-23.06,18.63
22368,-9.34,-2.26,-2.27,-0.24,0.03,0.25,-42.18,-23.06,18.63
22379,-9.20,-3.52,-0.95,-0.11,-0.22,0.06,-42.18,-23.06,18.63
22390,-9.20,-3.52,-0.95,-0.11,-0.22,0.06,-42.18,-23.06,18.63
22541,-9.22,-3.51,-0.61,-0.07,-0.27,-0.19,-44.59,-20.64,17.17
22552,-9.22,-3.51,-0.61,-0.07,-0.27,-0.19,-44.59,-20.64,17.17
22563,-9.35,-4.01,-0.78,-0.14,-0.37,-0.26,-44.59,-20.64,17.17
22574,-9.49,-3.76,0.10,-0.17,-0.25,-0.13,-44.59,-20.64,17.17
22683,-9.11,-3.51,-1.22,-0.11,0.11,0.11,-44.59,-21.85,18.26
22693,-9.11,-3.51,-1.22,-0.11,0.11,0.11,-44.59,-21.85,18.26
22704,-9.36,-3.18,-1.21,-0.16,-0.02,0.05,-44.59,-21.85,18.26
22715,-9.27,-2.78,-1.64,-0.11,-0.18,-0.03,-44.59,-21.85,18.26
22864,-9.45,-2.97,-1.78,-0.14,-0.07,0.07,-42.79,-21.70,19.90
22874,-9.80,-2.67,-0.17,-0.08,-0.31,-0.06,-42.79,-21.70,19.90
22885,-9.80,-2.67,-0.17,-0.08,-0.31,-0.06,-42.79,-21.70,19.90
22896,-9.79,-3.43,-0.16,-0.06,-0.27,-0.35,-44.59,-21.55,18.63
22907,-9.79,-3.43,-0.16,-0.06,-0.27,-0.35,-44.59,-21.55,18.63
22918,-8.64,-3.85,-1.33,-0.11,-0.23,-0.42,-44.59,-21.55,18.63
22929,-8.64,-3.85,-1.33,-0.11,-0.23,-0.42,-44.59,-21.55,18.63
22940,-8.49,-4.29,-0.91,-0.33,-0.42,-0.49,-44.59,-21.55,18.63
23051,-9.80,-3.59,0.01,0.19,0.00,0.22,-41.98,-22.00,19.54
23061,-9.91,-3.12,0.78,0.35,0.26,0.36,-41.98,-22.00,19.54
23072,-9.91,-3.12,0.78,0.35,0.26,0.36,-41.98,-22.00,19.54
23083,-9.15,-3.91,-0.20,0.21,0.50,0.37,-41.98,-22.00,19.54
23236,-9.29,-4.56,-0.23,0.03,0.33,0.01,-43.39,-21.85,17.90
23246,-9.29,-4.56,-0.23,0.03,0.33,0.01,-43.39,-21.85,17.90
23257,-9.48,-3.75,-1.01,0.01,0.54,0.26,-43.39,-21.85,17.90
23268,-9.48,-3.75,-1.01,0.01,0.54,0.26,-43.39,-21.85,17.90
23279,-9.46,-3.06,-0.87,0.01,0.38,0.31,-44.39,-22.30,18.08
23391,-9.33,-3.56,-0.70,0.10,-0.23,-0.09,-44.39,-22.30,18.08
23402,-9.43,-3.40,-0.97,0.14,-0.14,-0.08,-44.59,-20.95,17.90
23413,-9.43,-3.40,-0.97,0.14,-0.14,-0.08,-44.59,-20.95,17.90
23424,-9.40,-3.66,-0.69,0.15,-0.15,-0.04,-44.59,-20.95,17.90
23571,-9.51,-4.36,0.57,0.08,0.32,-0.01,-43.59,-20.79,18.08
23581,-9.44,-3.90,-0.18,0.10,0.60,0.17,-43.59,-20.79,18.08
23592,-9.44,-3.90,-0.18,0.10,0.60,0.17,-43.59,-20.79,18.08
23603,-9.45,-3.48,-0.23,0.08,0.53,0.24,-43.59,-20.79,18.08
23614,-9.45,-3.48,-0.23,0.08,0.53,0.24,-43.59,-20.79,18.08
23625,-9.44,-3.50,-1.45,-0.10,0.28,0.22,-43.59,-20.79,18.08
23636,-9.60,-1.54,-1.19,-0.26,-0.09,0.16,-43.59,-20.79,18.08
23647,-9.60,-1.54,-1.19,-0.26,-0.09,0.16,-43.59,-20.79,18.08
23764,-7.82,-5.79,-2.44,0.49,0.17,-0.31,-41.98,-20.49,17.71
23774,-7.82,-5.79,-2.44,0.49,0.17,-0.31,-41.98,-20.49,17.71
23785,-6.72,-7.11,-3.13,0.91,0.29,-0.10,-43.19,-23.51,16.98
23796,-8.94,-4.98,-3.71,1.06,0.28,0.36,-43.19,-23.51,16.98
23807,-8.94,-4.98,-3.71,1.06,0.28,0.36,-43.19,-23.51,16.98
23997,-9.37,-3.79,0.18,0.20,-0.22,-0.02,-43.79,-20.34,18.63
24008,-9.37,-3.79,0.18,0.20,-0.22,-0.02,-43.79,-20.34,18.63
24019,-9.06,-4.01,-0.41,0.20,-0.09,-0.00,-43.79,-20.34,18.63
24030,-9.06,-4.01,-0.41,0.20,-0.09,-0.00,-43.79,-20.34,18.63
24141,-8.78,-4.19,-0.20,-0.34,-0.30,-0.09,-43.79,-21.55,19.35
24151,-8.78,-4.19,-0.20,-0.34,-0.30,-0.09,-43.79,-21.55,19.35
24162,-8.63,-4.36,0.11,-0.51,-0.35,-0.23,-43.19,-21.70,19.54
24173,-8.63,-4.36,0.11,-0.51,-0.35,-0.23,-43.19,-21.70,19.54
24327,-8.71,-4.22,-0.58,0.08,0.29,0.22,-43.59,-19.29,19.90
24337,-8.97,-4.08,-0.37,-0.02,0.02,0.06,-43.59,-19.29,19.90
24348,-8.97,-4.08,-0.37,-0.02,0.02,0.06,-43.59,-19.29,19.90
24359,-9.32,-3.59,-0.69,-0.03,-0.10,-0.04,-43.59,-19.29,19.90
24473,-9.10,-3.61,-0.25,-0.22,-0.19,0.05,-43.59,-19.29,19.54
24483,-9.13,-4.04,0.19,-0.22,-0.24,-0.02,-43.59,-19.29,19.54
24494,-9.13,-4.04,0.19,-0.22,-0.24,-0.02,-43.59,-19.29,19.54
24505,-9.10,-3.70,-0.30,-0.16,-0.18,-0.07,-43.59,-19.29,19.54
24654,-9.31,-3.94,-0.71,-0.09,0.30,0.18,-42.99,-20.64,19.35
24664,-9.32,-3.24,-1.39,-0.29,0.05,0.20,-43.19,-19.29,18.44
24675,-9.32,-3.24,-1.39,-0.29,0.05,0.20,-43.19,-19.29,18.44
24686,-9.14,-3.20,-1.24,-0.24,-0.29,0.12,-43.19,-19.29,18.44
24697,-9.26,-3.74,0.25,-0.10,-0.42,-0.02,-43.19,-19.29,18.44
24708,-9.26,-3.74,0.25,-0.10,-0.42,-0.02,-43.19,-19.29,18.44
24719,-9.30,-3.53,-0.69,-0.23,-0.37,-0.10,-43.19,-19.29,18.44
24730,-9.30,-3.53,-0.69,-0.23,-0.37,-0.10,-43.19,-19.29,18.44
24881,-10.05,-2.84,0.70,-0.04,-0.49,-0.04,-43.59,-20.79,18.44
24891,-10.05,-2.84,0.70,-0.04,-0.49,-0.04,-43.59,-20.79,18.44
24902,-10.21,-3.11,-0.58,-0.21,-0.36,-0.36,-43.59,-20.79,18.44
24913,-10.21,-3.11,-0.58,-0.21,-0.36,-0.36,-43.59,-20.79,18.44
25062,-9.45,-3.69,-0.71,-0.19,-0.00,-0.02,-43.99,-21.70,19.17
25072,-9.45,-3.69,-0.71,-0.19,-0.00,-0.02,-43.99,-21.70,19.17
25083,-9.28,-3.67,-0.14,-0.06,0.04,-0.00,-43.99,-21.70,19.17
25094,-9.28,-3.67,-0.14,-0.06,0.04,-0.00,-43.99,-21.70,19.17
25105,-9.57,-3.86,0.74,0.08,0.20,0.04,-43.99,-21.70,19.17
25220,-9.34,-3.08,-0.12,-0.04,-0.45,0.00,-43.39,-21.25,18.26
25230,-9.34,-3.08,-0.12,-0.04,-0.45,0.00,-43.39,-21.25,18.26
25241,-9.16,-3.33,-0.83,-0.04,-0.30,-0.15,-43.39,-21.25,18.26
25252,-9.16,-3.33,-0.83,-0.04,-0.30,-0.15,-43.39,-21.25,18.26
25440,-9.51,-3.93,0.75,0.16,0.08,-0.01,-42.18,-20.95,17.90
25450,-9.51,-3.93,0.75,0.16,0.08,-0.01,-42.18,-20.95,17.90
25461,-9.36,-3.86,0.90,0.18,0.39,0.07,-42.18,-20.95,17.90
25472,-9.36,-3.86,0.90,0.18,0.39,0.07,-42.18,-20.95,17.90
25586,-9.42,-3.46,-0.17,-0.17,-0.11,0.04,-41.78,-20.64,18.63
25596,-9.42,-3.46,-0.17,-0.17,-0.11,0.04,-41.78,-20.64,18.63
25607,-9.97,-3.35,-1.38,-0.14,-0.07,-0.03,-41.78,-20.64,18.63
25618,-9.91,-3.18,-1.00,-0.08,-0.26,-0.15,-41.78,-20.64,18.63
25629,-9.91,-3.18,-1.00,-0.08,-0.26,-0.15,-41.78,-20.64,18.63
25640,-9.44,-3.60,-0.64,-0.09,-0.32,-0.24,-41.78,-20.64,18.63
25651,-9.44,-3.60,-0.64,-0.09,-0.32,-0.24,-41.78,-20.64,18.63
25662,-8.60,-3.81,0.18,-0.13,-0.31,-0.19,-41.78,-20.64,18.63
25813,-9.81,-0.96,-0.06,0.07,-0.25,0.14,-44.19,-20.34,19.72
25823,-9.99,-1.04,1.40,0.23,-0.11,-0.26,-44.19,-20.34,19.72
25834,-9.99,-1.04,1.40,0.23,-0.11,-0.26,-44.19,-20.34,19.72
25845,-12.34,-2.01,-1.18,0.11,0.16,-0.68,-44.19,-20.34,19.72
25957,-6.40,-6.84,-1.91,-0.43,-0.49,-2.53,-40.57,-25.47,19.72
25968,-6.40,-6.84,-1.91,-0.43,-0.49,-2.53,-40.57,-25.47,19.72
25979,-6.34,-8.25,-1.99,-0.30,-0.68,-2.18,-40.57,-25.47,19.72
25990,-6.34,-8.25,-1.99,-0.30,-0.68,-2.18,-40.57,-25.47,19.72
26139,-7.51,-6.48,0.16,0.65,-0.88,0.03,-30.93,-32.42,21.18
26149,-7.51,-6.48,0.16,0.65,-0.88,0.03,-30.93,-32.42,21.18
26160,-7.40,-5.55,0.63,0.51,-0.90,0.13,-30.93,-32.42,21.18
26171,-7.40,-5.55,0.63,0.51,-0.90,0.13,-30.93,-32.42,21.18
26182,-7.23,-5.26,1.67,0.31,-0.88,0.08,-29.52,-30.76,27.92
26292,-6.57,-5.20,1.42,-0.22,-0.60,0.15,-29.52,-30.76,27.92
26302,-6.27,-5.49,1.55,-0.21,-0.59,0.15,-28.51,-30.91,30.29
26313,-6.27,-5.49,1.55,-0.21,-0.59,0.15,-28.51,-30.91,30.29
26324,-6.12,-5.74,1.68,-0.15,-0.57,0.22,-28.51,-30.91,30.29
26335,-6.12,-5.74,1.68,-0.15,-0.57,0.22,-28.51,-30.91,30.29
26346,-6.82,-5.70,1.95,-0.11,-0.54,0.34,-28.51,-30.91,30.29
26357,-7.65,-5.16,2.41,-0.21,-0.50,0.36,-28.51,-30.91,30.29
26368,-7.65,-5.16,2.41,-0.21,-0.50,0.36,-28.51,-30.91,30.29
26521,-7.78,-5.08,2.19,-0.76,-0.60,-0.24,-26.91,-31.81,29.93
26532,-7.78,-5.08,2.19,-0.76,-0.60,-0.24,-26.91,-31.81,29.93
26543,-6.75,-5.44,2.05,-0.77,-0.58,-0.45,-26.91,-31.81,29.93
26554,-6.75,-5.44,2.05,-0.77,-0.58,-0.45,-26.91,-31.81,29.93
26703,-5.23,-7.72,1.75,-0.75,-0.22,-0.40,-20.88,-37.25,28.83
26713,-5.23,-7.72,1.75,-0.75,-0.22,-0.40,-20.88,-37.25,28.83
26724,-5.61,-7.29,1.94,-0.70,-0.23,-0.23,-20.88,-37.25,28.83
26735,-5.61,-7.29,1.94,-0.70,-0.23,-0.23,-20.88,-37.25,28.83
26887,-5.58,-7.54,1.53,-0.06,0.01,-0.03,-19.67,-40.87,26.65
26897,-5.58,-7.54,1.53,-0.06,0.01,-0.03,-19.67,-40.87,26.65
26908,-5.47,-7.60,1.61,-0.06,0.07,-0.03,-19.67,-40.87,26.65
26919,-5.69,-7.55,1.56,-0.05,0.14,0.02,-19.67,-40.87,26.65
26930,-5.69,-7.55,1.56,-0.05,0.14,0.02,-19.67,-40.87,26.65
27042,-6.01,-7.52,0.87,0.07,0.22,0.03,-18.67,-40.42,26.83
27052,-6.01,-7.52,0.87,0.07,0.22,0.03,-18.67,-40.42,26.83
27063,-5.70,-7.78,1.08,0.09,0.22,0.04,-22.08,-40.87,24.82
27074,-5.70,-7.78,1.08,0.09,0.22,0.04,-22.08,-40.87,24.82
27221,-7.91,-7.36,0.32,0.04,0.63,0.47,-23.09,-38.31,25.01
27231,-7.91,-7.36,0.32,0.04,0.63,0.47,-23.09,-38.31,25.01
27242,-7.31,-7.72,0.44,0.08,0.55,0.37,-23.09,-38.31,25.01
27253,-7.31,-7.72,0.44,0.08,0.55,0.37,-23.09,-38.31,25.01
27264,-6.74,-7.96,1.17,0.19,0.52,0.45,-23.09,-38.31,25.01
27275,-6.74,-7.96,1.17,0.19,0.52,0.45,-23.09,-38.31,25.01
27286,-6.46,-7.31,1.43,0.12,0.54,0.63,-23.09,-38.31,25.01
27297,-6.46,-7.31,1.43,0.12,0.54,0.63,-23.09,-38.31,25.01
27308,-7.57,-6.66,0.96,0.12,0.64,0.68,-23.09,-38.31,25.01
27463,-7.24,-5.53,1.30,-0.10,0.38,0.40,-33.14,-35.59,22.82
27473,-7.24,-5.53,1.30,-0.10,0.38,0.40,-33.14,-35.59,22.82
27484,-7.08,-4.98,0.27,-0.38,0.46,0.44,-33.14,-35.59,22.82
27495,-7.08,-4.98,0.27,-0.38,0.46,0.44,-33.14,-35.59,22.82
27607,-8.08,-6.01,0.12,-3.58,1.56,0.84,-35.95,-34.08,18.44
27618,-8.08,-6.01,0.12,-3.58,1.56,0.84,-35.95,-34.08,18.44
27629,-7.63,-6.88,0.73,-4.67,1.82,1.25,-35.95,-34.08,18.44
27640,-8.40,-5.67,-2.51,-6.17,2.31,1.89,-35.95,-34.08,18.44
27791,-5.56,6.77,-5.09,-5.70,-0.30,3.10,-42.18,-28.19,-9.81
27801,-5.42,7.97,-5.86,-5.69,-0.50,2.72,-42.18,-28.19,-9.81
27812,-5.42,7.97,-5.86,-5.69,-0.50,2.72,-42.18,-28.19,-9.81
27823,-5.77,9.15,-6.41,-4.94,-0.83,2.31,-43.39,2.00,-21.11
27931,-6.23,9.21,-2.70,-0.93,-0.88,0.29,-43.39,2.00,-21.11
27941,-6.28,9.19,-2.96,-0.84,-0.83,-0.05,-45.00,6.83,-10.54
27952,-6.28,9.19,-2.96,-0.84,-0.83,-0.05,-45.00,6.83,-10.54
27963,-6.19,7.38,-1.55,-0.46,-0.82,-0.36,-45.00,6.83,-10.54
28123,-6.19,7.38,-1.55,-0.46,-0.82,-0.36,-45.00,6.83,-10.54
28125,-6.77,6.21,0.42,-1.91,-1.19,-0.14,-49.42,6.53,-5.44
28135,-6.77,6.21,0.42,-1.91,-1.19,-0.14,-49.42,6.53,-5.44
28146,-6.91,6.09,1.20,-1.62,-1.29,-0.09,-49.42,6.53,-5.44
28157,-6.91,6.09,1.20,-1.62,-1.29,-0.09,-49.42,6.53,-5.44
28306,-6.86,7.02,4.65,-0.10,-1.68,-0.46,-47.61,6.98,6.78
28316,-6.86,7.02,4.65,-0.10,-1.68,-0.46,-47.61,6.98,6.78
28327,-5.83,6.85,5.50,0.22,-1.63,-0.57,-43.79,6.53,20.45
28338,-5.83,6.85,5.50,0.22,-1.63,-0.57,-43.79,6.53,20.45
28488,-6.58,5.39,3.81,0.26,0.49,-0.35,-45.20,3.36,21.00
28498,-6.58,5.39,3.81,0.26,0.49,-0.35,-45.20,3.36,21.00
28509,-7.23,2.44,8.32,0.01,0.65,-0.11,-45.20,3.36,21.00
28520,-7.57,6.21,5.35,0.30,1.53,0.56,-45.20,3.36,21.00
28531,-7.57,6.21,5.35,0.30,1.53,0.56,-45.20,3.36,21.00
28679,-7.10,7.79,5.54,1.78,0.53,0.15,-49.82,3.81,11.70
28689,-7.32,7.00,2.50,1.27,1.07,-0.03,-49.82,3.81,11.70
28700,-6.57,5.10,-1.08,1.56,1.17,-0.08,-46.20,4.41,6.23
28711,-6.57,5.10,-1.08,1.56,1.17,-0.08,-46.20,4.41,6.23
28722,-6.39,6.30,-2.47,1.19,0.69,0.09,-46.20,4.41,6.23
28733,-6.39,6.30,-2.47,1.19,0.69,0.09,-46.20,4.41,6.23
28744,-8.80,7.42,-1.73,-0.58,0.15,0.09,-46.20,4.41,6.23
28755,-8.80,7.42,-1.73,-0.58,0.15,0.09,-46.20,4.41,6.23
28766,-9.79,10.67,-2.47,0.37,-0.20,-0.50,-46.20,4.41,6.23
28918,-4.73,4.73,0.17,3.43,0.13,0.30,-48.41,3.66,4.59
28928,-4.09,3.60,-0.96,3.62,-0.42,1.29,-48.41,3.66,4.59
28939,-4.09,3.60,-0.96,3.62,-0.42,1.29,-48.41,3.66,4.59
28950,-3.95,3.65,-0.31,3.80,-0.42,2.49,-48.41,3.66,4.59
29097,-4.92,9.21,-6.66,0.72,0.01,1.86,-38.36,14.23,-14.37
29107,-2.41,7.99,-5.67,0.97,-0.20,0.70,-38.36,14.23,-14.37
29118,-2.41,7.99,-5.67,0.97,-0.20,0.70,-38.36,14.23,-14.37
29129,-2.18,9.35,-2.29,0.82,0.00,0.48,-38.36,14.23,-14.37
29140,-5.60,9.97,-5.46,-0.19,0.96,1.27,-38.36,14.23,-14.37
29291,-2.10,7.26,-8.78,1.58,-1.22,-0.88,-32.33,18.45,-15.10
29302,0.06,8.67,-5.46,2.52,-1.80,-0.92,-32.33,18.45,-15.10
29313,0.06,8.67,-5.46,2.52,-1.80,-0.92,-32.33,18.45,-15.10
29324,-2.61,7.44,-3.92,5.29,-1.76,-0.35,-32.33,18.45,-15.10
29436,-1.81,7.44,-9.02,0.04,1.71,0.59,-34.95,14.08,-18.20
29446,-1.83,6.82,-9.01,0.36,0.50,0.14,-34.95,14.08,-18.20
29457,-1.83,6.82,-9.01,0.36,0.50,0.14,-34.95,14.08,-18.20
29468,-2.21,6.37,-8.14,0.64,-0.40,-0.22,-29.32,14.38,-24.76
29617,-2.24,9.64,-6.64,3.48,-0.28,1.00,-24.49,19.51,-18.92
29627,-1.54,8.19,-5.23,2.25,0.25,-0.01,-24.49,19.51,-18.92
29638,-1.54,8.19,-5.23,2.25,0.25,-0.01,-24.49,19.51,-18.92
29649,-0.40,6.99,-7.07,0.41,0.86,-0.70,-24.49,19.51,-18.92
29660,-0.40,6.99,-7.07,0.41,0.86,-0.70,-24.49,19.51,-18.92
29671,0.16,5.83,-7.78,0.42,0.91,-0.66,-24.49,19.51,-18.92
29682,-0.53,6.27,-8.31,0.28,0.57,-0.18,-24.49,19.51,-18.92
29693,-0.53,6.27,-8.31,0.28,0.57,-0.18,-24.49,19.51,-18.92
29704,-0.67,6.86,-7.12,0.29,0.30,0.10,-24.49,19.51,-18.92
29814,-0.80,7.50,-6.95,0.57,0.24,-0.04,-24.49,19.51,-18.92
29824,-0.88,7.41,-6.97,0.68,0.78,-0.37,-24.49,19.51,-18.92
29835,-0.88,7.41,-6.97,0.68,0.78,-0.37,-24.49,19.51,-18.92
29846,-0.78,6.97,-7.43,0.56,1.10,-0.72,-22.08,16.19,-26.58
29997,-0.56,6.67,-7.69,0.35,0.26,-0.11,-23.89,15.13,-26.40
30007,0.13,6.24,-8.35,1.03,0.37,0.03,-23.89,15.13,-26.40
30018,0.13,6.24,-8.35,1.03,0.37,0.03,-23.89,15.13,-26.40
30029,0.15,6.51,-8.02,1.01,-0.27,0.24,-23.89,15.13,-26.40
30142,-0.53,6.36,-8.02,0.03,0.01,0.00,-22.89,13.77,-29.13
30153,-0.53,6.36,-8.02,0.03,0.01,0.00,-22.89,13.77,-29.13
30164,-0.52,6.30,-7.97,-0.01,0.01,-0.00,-22.89,13.77,-29.13
30175,-0.52,6.30,-7.97,-0.01,0.01,-0.00,-22.89,13.77,-29.13
30186,-0.54,6.41,-7.99,-0.06,-0.00,-0.01,-22.89,13.77,-29.13
30296,-0.54,6.38,-8.03,0.00,0.00,-0.00,-21.88,14.83,-28.22
30306,-0.54,6.41,-7.99,-0.01,0.00,-0.01,-21.88,14.83,-28.22
30317,-0.54,6.41,-7.99,-0.01,0.00,-0.01,-21.88,14.83,-28.22
30328,-0.53,6.39,-8.00,0.00,0.00,-0.01,-21.88,14.83,-28.22
30339,-0.53,6.39,-8.00,0.00,0.00,-0.01,-21.88,14.83,-28.22
30350,-0.53,6.40,-8.04,-0.00,0.00,-0.00,-23.29,14.98,-29.86
30361,-0.54,6.39,-8.03,-0.00,0.00,-0.01,-23.29,14.98,-29.86
30372,-0.54,6.39,-8.03,-0.00,0.00,-0.01,-23.29,14.98,-29.86
30522,-0.60,6.35,-8.05,-0.01,0.06,-0.01,-22.89,14.68,-28.77
30532,-0.60,6.35,-8.05,-0.01,0.06,-0.01,-22.89,14.68,-28.77
30543,-0.15,6.40,-8.05,-0.04,0.18,0.03,-22.89,14.68,-28.77
30554,-0.15,6.40,-8.05,-0.04,0.18,0.03,-22.89,14.68,-28.77
30705,-0.72,6.18,-8.30,-0.21,-0.44,0.30,-20.47,14.08,-29.13
30716,-0.72,6.18,-8.30,-0.21,-0.44,0.30,-20.47,14.08,-29.13
30727,-0.31,6.57,-8.16,-0.08,-0.16,0.10,-21.68,14.68,-30.23
30738,-0.31,6.57,-8.16,-0.08,-0.16,0.10,-21.68,14.68,-30.23
30887,-0.22,6.35,-8.04,-0.03,-0.02,-0.03,-20.47,13.77,-30.23
30897,-0.22,6.35,-8.04,-0.03,-0.02,-0.03,-20.47,13.77,-30.23
30908,-0.23,6.33,-8.07,-0.02,-0.00,-0.02,-20.47,13.77,-30.23
30919,-0.23,6.33,-8.07,-0.02,-0.00,-0.02,-20.47,13.77,-30.23
30930,-0.21,6.16,-8.20,0.01,0.05,-0.07,-20.47,13.77,-30.23
30941,-0.21,6.16,-8.20,0.01,0.05,-0.07,-20.47,13.77,-30.23
30952,-0.22,6.51,-7.90,0.05,0.10,-0.13,-20.47,13.77,-30.23
30963,-0.23,6.35,-8.05,0.03,0.01,-0.03,-20.47,14.98,-31.32
30974,-0.23,6.35,-8.05,0.03,0.01,-0.03,-20.47,14.98,-31.32
31126,-0.20,6.29,-8.09,-0.00,0.01,0.01,-21.28,13.47,-30.59
31136,-0.20,6.29,-8.09,-0.00,0.01,0.01,-21.28,13.47,-30.59
31147,-0.18,6.31,-8.08,-0.02,-0.00,-0.00,-21.28,13.47,-30.59
31158,-0.18,6.31,-8.08,-0.02,-0.00,-0.00,-21.28,13.47,-30.59
