time,ax,ay,az,gx,gy,gz,mx,my,mz
401,-0.39,6.33,-8.08,0.00,-0.00,-0.01,-28.02,20.94,-26.41
411,-0.39,6.33,-8.08,0.00,-0.00,-0.01,-28.02,20.94,-26.41
422,-0.39,6.35,-8.04,-0.00,-0.00,-0.01,-28.02,20.94,-26.41
433,-0.39,6.35,-8.04,-0.00,-0.00,-0.01,-28.02,20.94,-26.41
444,-0.40,6.34,-8.05,-0.00,0.00,-0.01,-28.02,20.94,-26.41
455,-0.40,6.34,-8.05,-0.00,0.00,-0.01,-28.02,20.94,-26.41
636,-0.40,6.34,-8.08,0.00,-0.00,-0.01,-26.50,21.10,-26.25
646,-0.40,6.33,-8.06,0.00,-0.00,-0.01,-26.50,21.10,-26.25
657,-0.40,6.33,-8.06,0.00,-0.00,-0.01,-26.50,21.10,-26.25
668,-0.39,6.33,-8.05,-0.00,0.00,-0.01,-26.50,21.10,-26.25
679,-0.39,6.32,-8.06,-0.00,0.00,-0.01,-26.50,21.10,-26.25
789,-0.40,6.35,-8.06,-0.00,0.00,-0.01,-28.02,20.94,-27.05
799,-0.41,6.34,-8.05,-0.00,0.00,-0.01,-28.02,20.94,-27.05
810,-0.41,6.34,-8.05,-0.00,0.00,-0.01,-28.02,20.94,-27.05
821,-0.40,6.35,-8.08,0.00,0.00,-0.01,-28.02,20.94,-27.05
832,-0.40,6.35,-8.08,0.00,0.00,-0.01,-28.02,20.94,-27.05
843,-0.41,6.34,-8.08,0.00,0.00,-0.01,-27.15,20.62,-26.73
854,-0.41,6.34,-8.08,0.00,0.00,-0.01,-27.15,20.62,-26.73
865,-0.40,6.34,-8.07,0.00,0.00,-0.01,-27.15,20.62,-26.73
876,-0.40,6.34,-8.07,0.00,0.00,-0.01,-27.15,20.62,-26.73
1026,-0.41,6.33,-8.06,-0.00,0.00,-0.01,-26.07,21.10,-25.93
1036,-0.41,6.33,-8.06,-0.00,0.00,-0.01,-26.07,21.10,-25.93
1047,-0.40,6.32,-8.06,-0.00,0.00,-0.01,-26.07,21.10,-25.93
1058,-0.40,6.32,-8.06,-0.00,0.00,-0.01,-26.07,21.10,-25.93
1169,-0.40,6.34,-8.08,0.00,0.00,-0.01,-27.15,19.67,-27.37
1180,-0.40,6.34,-8.06,-0.00,0.00,-0.01,-27.15,19.67,-27.37
1191,-0.40,6.34,-8.06,-0.00,0.00,-0.01,-27.15,19.67,-27.37
1202,-0.40,6.34,-8.06,-0.00,0.00,-0.01,-27.15,19.67,-27.37
1351,-0.40,6.33,-8.10,0.00,0.00,-0.01,-26.72,20.30,-27.05
1361,-0.39,6.34,-8.04,-0.00,0.00,-0.01,-26.72,20.30,-27.05
1372,-0.39,6.34,-8.04,-0.00,0.00,-0.01,-26.72,20.30,-27.05
1383,-0.40,6.35,-8.04,-0.00,0.00,-0.01,-26.72,20.30,-27.05
1531,-0.39,6.32,-8.08,-0.00,0.00,-0.01,-26.50,20.78,-26.57
1541,-0.40,6.33,-8.06,-0.00,0.00,-0.01,-26.50,20.78,-26.57
1552,-0.40,6.33,-8.06,-0.00,0.00,-0.01,-26.50,20.78,-26.57
1563,-0.41,6.34,-8.05,-0.00,0.00,-0.01,-26.50,20.78,-26.57
1574,-0.41,6.34,-8.05,-0.00,0.00,-0.01,-26.50,20.78,-26.57
1723,-0.39,6.33,-8.08,-0.00,0.00,-0.01,-26.72,20.94,-28.34
1734,-0.39,6.33,-8.08,-0.00,0.00,-0.01,-26.72,20.94,-28.34
1745,-0.40,6.33,-8.06,-0.00,0.00,-0.01,-26.72,20.94,-28.34
1756,-0.40,6.33,-8.06,-0.00,0.00,-0.01,-26.72,20.94,-28.34
1865,-0.42,6.33,-8.06,-0.00,0.00,-0.01,-26.72,19.99,-27.69
1875,-0.42,6.33,-8.06,-0.00,0.00,-0.01,-26.72,19.99,-27.69
1886,-0.42,6.32,-8.06,0.00,0.00,-0.01,-26.72,19.99,-27.69
1897,-0.42,6.32,-8.06,0.00,0.00,-0.01,-26.72,19.99,-27.69
1908,-0.40,6.34,-8.04,-0.00,0.00,-0.01,-26.72,19.99,-27.69
1919,-0.40,6.34,-8.04,-0.00,0.00,-0.01,-26.72,19.99,-27.69
1930,-0.40,6.33,-8.08,-0.00,0.00,-0.01,-26.72,19.99,-27.69
1941,-0.40,6.32,-8.07,-0.00,0.00,-0.01,-26.72,19.99,-27.69
2103,-0.40,6.32,-8.07,-0.00,0.00,-0.01,-26.72,19.99,-27.69
2104,-0.40,6.33,-8.09,0.00,0.00,-0.01,-28.02,20.30,-27.05
2115,-0.40,6.33,-8.09,0.00,0.00,-0.01,-28.02,20.30,-27.05
2126,-0.40,6.32,-8.06,0.00,0.00,-0.01,-28.02,20.30,-27.05
2137,-0.40,6.32,-8.06,0.00,0.00,-0.01,-28.02,20.30,-27.05
2285,-0.39,6.33,-8.07,-0.00,0.00,-0.01,-27.80,21.10,-26.25
2295,-0.39,6.33,-8.07,-0.00,0.00,-0.01,-27.80,21.10,-26.25
2306,-0.40,6.33,-8.06,-0.00,0.00,-0.01,-27.80,21.10,-26.25
2317,-0.40,6.33,-8.06,-0.00,0.00,-0.01,-27.80,21.10,-26.25
2467,-0.41,6.34,-8.05,-0.00,0.00,-0.01,-26.72,19.67,-26.73
2478,-0.41,6.34,-8.05,-0.00,0.00,-0.01,-26.72,19.67,-26.73
2489,-0.41,6.34,-8.07,-0.00,0.00,-0.01,-26.72,21.26,-27.69
2500,-0.41,6.34,-8.07,-0.00,0.00,-0.01,-26.72,21.26,-27.69
2646,-0.41,6.34,-8.08,-0.00,0.00,-0.01,-27.80,19.83,-27.85
2656,-0.41,6.34,-8.08,-0.00,0.00,-0.01,-27.80,19.83,-27.85
2667,-0.41,6.34,-8.05,-0.00,0.00,-0.01,-27.80,19.83,-27.85
2678,-0.41,6.34,-8.05,-0.00,0.00,-0.01,-27.80,19.83,-27.85
2689,-0.41,6.34,-8.05,-0.00,0.00,-0.01,-27.80,19.83,-27.85
2700,-0.41,6.34,-8.05,-0.00,0.00,-0.01,-27.80,19.83,-27.85
2711,-0.40,6.33,-8.04,-0.00,0.00,-0.01,-27.80,19.83,-27.85
2722,-0.42,6.34,-8.09,-0.00,0.00,-0.01,-26.50,19.83,-27.21
2733,-0.42,6.34,-8.09,-0.00,0.00,-0.01,-26.50,19.83,-27.21
2846,-0.40,6.32,-8.08,-0.00,0.00,-0.01,-26.07,19.83,-25.93
2856,-0.40,6.32,-8.08,-0.00,0.00,-0.01,-26.07,19.83,-25.93
2867,-0.42,6.34,-8.08,0.00,0.00,-0.01,-26.07,19.83,-25.93
2878,-0.42,6.34,-8.08,0.00,0.00,-0.01,-26.07,19.83,-25.93
3063,-0.24,6.28,-8.18,-0.00,-0.01,-0.01,-27.80,20.46,-26.57
3073,-0.24,6.28,-8.18,-0.00,-0.01,-0.01,-27.80,20.46,-26.57
3084,-0.42,6.23,-8.14,-0.19,-0.15,-0.10,-27.80,20.46,-26.57
3095,-0.42,6.23,-8.14,-0.19,-0.15,-0.10,-27.80,20.46,-26.57
3246,-0.68,6.75,-7.69,0.02,-0.01,-0.02,-27.15,21.90,-25.77
3256,-0.68,6.75,-7.69,0.02,-0.01,-0.02,-27.15,21.90,-25.77
3267,-0.54,6.41,-7.99,0.12,-0.02,0.04,-27.15,21.90,-25.77
3278,-0.54,6.41,-7.99,0.12,-0.02,0.04,-27.15,21.90,-25.77
3289,-0.51,6.49,-8.00,0.03,-0.14,0.14,-27.15,21.90,-25.77
3434,-0.29,5.79,-8.31,0.03,0.17,-0.16,-28.45,19.67,-27.05
3444,-0.48,6.61,-8.03,-0.13,0.04,0.02,-28.45,19.67,-27.05
3455,-0.48,6.61,-8.03,-0.13,0.04,0.02,-28.45,19.67,-27.05
3466,-0.40,6.45,-8.10,0.13,0.03,0.08,-28.45,19.67,-27.05
3477,-0.40,6.45,-8.10,0.13,0.03,0.08,-28.45,19.67,-27.05
3488,-0.38,6.48,-8.20,0.26,0.03,0.13,-27.80,20.46,-28.82
3499,-0.38,6.48,-8.20,0.26,0.03,0.13,-27.80,20.46,-28.82
3510,-0.56,6.78,-8.24,0.38,0.00,0.13,-27.80,20.46,-28.82
3658,-0.39,5.27,-8.83,1.54,0.08,-0.10,-28.89,19.03,-28.34
3669,-0.40,5.08,-9.01,1.62,0.12,-0.07,-28.89,19.03,-28.34
3680,-0.40,5.08,-9.01,1.62,0.12,-0.07,-28.89,19.03,-28.34
3691,-0.33,4.18,-8.95,1.63,0.12,-0.07,-28.89,19.03,-28.34
3702,-0.37,4.30,-9.20,1.35,0.10,-0.03,-28.89,19.03,-28.34
3853,-0.59,3.76,-9.57,-0.22,-0.03,0.03,-27.59,12.33,-31.55
3863,-0.45,4.20,-9.48,-0.27,-0.02,0.02,-26.29,11.69,-33.80
3874,-0.45,4.20,-9.48,-0.27,-0.02,0.02,-26.29,11.69,-33.80
3885,-0.35,3.72,-9.13,-0.42,0.00,-0.06,-26.29,11.69,-33.80
4019,-0.50,5.79,-9.14,-0.90,-0.04,0.04,-26.50,15.36,-30.43
4030,-0.41,5.28,-8.83,-0.45,-0.03,-0.01,-26.50,15.36,-30.43
4041,-0.41,5.28,-8.83,-0.45,-0.03,-0.01,-26.50,15.36,-30.43
4052,-0.44,5.48,-8.86,-0.39,-0.02,-0.00,-26.50,15.36,-30.43
4217,-0.42,5.64,-8.47,-0.17,-0.01,-0.02,-27.37,16.96,-29.78
4228,-0.46,5.76,-8.47,-0.23,-0.01,0.00,-27.37,16.96,-29.78
4239,-0.46,5.76,-8.47,-0.23,-0.01,0.00,-27.37,16.96,-29.78
4250,-0.45,5.85,-8.44,-0.23,-0.01,0.01,-27.37,19.19,-28.82
4261,-0.45,5.85,-8.44,-0.23,-0.01,0.01,-27.37,19.19,-28.82
4410,-0.45,5.73,-8.41,0.22,0.01,-0.02,-27.37,19.51,-26.89
4420,-0.45,5.73,-8.41,0.22,0.01,-0.02,-27.37,19.51,-26.89
4431,-0.43,5.78,-8.51,0.15,0.00,-0.01,-27.37,19.51,-26.89
4442,-0.43,5.78,-8.51,0.15,0.00,-0.01,-27.37,19.51,-26.89
4453,-0.47,5.66,-8.45,0.16,0.00,0.00,-27.37,19.51,-26.89
4464,-0.50,5.90,-8.54,0.05,0.01,0.01,-27.37,19.51,-26.89
4475,-0.50,5.90,-8.54,0.05,0.01,0.01,-27.37,19.51,-26.89
4486,-0.45,5.73,-8.53,0.10,0.01,-0.00,-28.24,18.55,-29.46
4636,-0.45,5.66,-8.54,0.02,-0.00,0.00,-29.32,17.75,-29.62
4646,-0.49,5.73,-8.54,0.03,-0.00,0.01,-29.32,17.75,-29.62
4657,-0.49,5.73,-8.54,0.03,-0.00,0.01,-29.32,17.75,-29.62
4668,-0.44,5.68,-8.55,0.04,0.00,-0.01,-29.32,17.75,-29.62
4679,-0.44,5.68,-8.55,0.04,0.00,-0.01,-29.32,17.75,-29.62
4825,-0.44,5.13,-8.74,0.14,-0.00,-0.02,-28.02,17.43,-29.62
4835,-0.44,5.13,-8.74,0.14,-0.00,-0.02,-28.02,17.43,-29.62
4846,-0.44,5.25,-8.79,0.04,-0.00,-0.01,-28.02,17.43,-29.62
4857,-0.44,5.25,-8.79,0.04,-0.00,-0.01,-28.02,17.43,-29.62
4971,-0.45,5.26,-8.84,-0.05,-0.01,0.00,-27.37,15.68,-29.78
4981,-0.45,5.26,-8.84,-0.05,-0.01,0.00,-27.37,15.68,-29.78
4992,-0.45,5.32,-8.84,-0.05,-0.01,0.00,-27.37,15.68,-29.78
5003,-0.46,5.34,-8.85,0.00,-0.01,0.00,-27.15,16.48,-29.62
5153,-0.36,3.84,-8.67,0.83,-0.09,0.10,-28.24,15.68,-30.43
5164,-0.75,6.12,-9.38,0.51,-0.07,0.21,-28.24,15.68,-30.43
5175,-0.75,6.12,-9.38,0.51,-0.07,0.21,-28.24,15.68,-30.43
5186,-1.18,5.18,-9.25,1.08,-0.02,0.08,-28.24,15.68,-30.43
5309,-1.18,5.18,-9.25,1.08,-0.02,0.08,-28.24,15.68,-30.43
5311,0.19,3.56,-12.30,1.54,0.50,-0.16,-26.94,12.49,-33.32
5321,0.19,3.56,-12.30,1.54,0.50,-0.16,-26.94,12.49,-33.32
5332,-0.22,3.29,-11.33,1.34,-0.12,-0.19,-26.94,12.49,-33.32
5343,-0.21,2.85,-10.09,1.15,-0.49,-0.28,-26.94,12.49,-33.32
5452,-0.42,0.67,-10.84,1.07,-0.28,-0.04,-26.50,7.39,-35.57
5462,-0.42,0.67,-10.84,1.07,-0.28,-0.04,-26.50,7.39,-35.57
5473,-0.59,0.56,-11.04,1.26,-0.45,0.04,-26.50,7.39,-35.57
5484,-0.84,0.67,-11.68,1.56,-0.67,0.10,-26.50,7.39,-35.57
5597,-2.58,0.64,-10.65,3.53,-1.22,0.16,-28.45,2.13,-37.02
5608,-2.59,-0.57,-10.68,3.77,-1.33,-0.22,-28.45,2.13,-37.02
5619,-2.59,-0.57,-10.68,3.77,-1.33,-0.22,-28.45,2.13,-37.02
5630,-2.84,-1.71,-10.09,4.39,-1.53,-0.31,-33.00,-12.70,-30.11
5743,-2.87,-5.86,-7.45,3.17,-1.19,0.54,-33.00,-12.70,-30.11
5754,-3.77,-5.37,-7.32,3.20,-1.35,0.44,-41.88,-25.30,-20.30
5765,-3.25,-4.89,-7.07,3.42,-1.64,0.07,-41.88,-25.30,-20.30
5776,-3.25,-4.89,-7.07,3.42,-1.64,0.07,-41.88,-25.30,-20.30
5887,-5.02,-7.44,-2.02,1.39,-1.10,0.21,-46.86,-29.29,-4.39
5897,-5.02,-7.44,-2.02,1.39,-1.10,0.21,-46.86,-29.29,-4.39
5908,-4.26,-7.96,-1.89,1.04,-1.04,-0.02,-46.86,-29.29,-4.39
5919,-4.26,-7.96,-1.89,1.04,-1.04,-0.02,-46.86,-29.29,-4.39
5930,-4.64,-8.71,-2.12,1.33,-0.85,-0.18,-46.86,-29.29,-4.39
6044,-6.03,-8.56,4.63,-1.94,-0.80,-0.18,-44.05,-28.81,5.74
6054,-6.03,-8.56,4.63,-1.94,-0.80,-0.18,-44.05,-28.81,5.74
6065,-5.77,-9.77,3.16,-2.24,0.27,-0.43,-44.05,-28.81,5.74
6076,-5.77,-9.77,3.16,-2.24,0.27,-0.43,-44.05,-28.81,5.74
6228,-9.07,-1.90,-0.48,-0.20,-2.75,1.02,-46.21,-28.49,-5.51
6238,-9.07,-1.90,-0.48,-0.20,-2.75,1.02,-46.21,-28.49,-5.51
6249,-8.94,-0.68,-4.35,0.47,-1.64,0.46,-46.21,-28.49,-5.51
6260,-8.94,-0.68,-4.35,0.47,-1.64,0.46,-46.21,-28.49,-5.51
6371,-5.62,-7.38,2.90,-4.38,-0.12,-0.18,-54.66,-17.49,-0.21
6381,-5.62,-7.38,2.90,-4.38,-0.12,-0.18,-54.66,-17.49,-0.21
6392,-5.66,-4.08,-9.08,-3.50,0.64,0.35,-52.49,-21.31,8.47
6403,-5.66,-4.08,-9.08,-3.50,0.64,0.35,-52.49,-21.31,8.47
6523,-6.52,-2.72,-6.76,-0.24,-0.89,0.76,-52.49,-21.31,8.47
6525,-9.22,-3.42,-0.84,3.16,-2.03,-0.00,-53.14,-17.65,16.35
6535,-9.22,-3.42,-0.84,3.16,-2.03,-0.00,-53.14,-17.65,16.35
6546,-8.60,-5.32,2.17,2.83,-2.19,-0.31,-53.14,-17.65,16.35
6557,-8.60,-5.32,2.17,2.83,-2.19,-0.31,-53.14,-17.65,16.35
6670,-8.62,-5.89,4.71,-1.35,0.09,1.02,-44.48,-14.78,26.64
6680,-8.62,-5.89,4.71,-1.35,0.09,1.02,-44.48,-14.78,26.64
6691,-7.33,-5.26,4.60,-1.36,0.53,1.05,-44.48,-14.78,26.64
6702,-7.33,-5.26,4.60,-1.36,0.53,1.05,-44.48,-14.78,26.64
6852,-9.74,-5.19,0.41,1.93,-0.38,-0.43,-46.00,-16.85,24.22
6862,-9.74,-5.19,0.41,1.93,-0.38,-0.43,-46.00,-16.85,24.22
6873,-7.72,-0.85,-0.11,5.51,-0.27,-0.48,-46.00,-16.85,24.22
6884,-7.72,-0.85,-0.11,5.51,-0.27,-0.48,-46.00,-16.85,24.22
6995,-6.79,-4.59,3.68,-1.14,0.71,0.95,-43.18,-9.67,28.89
7005,-6.81,-4.07,3.67,-0.59,0.76,1.07,-44.26,-7.60,29.69
7016,-6.81,-4.07,3.67,-0.59,0.76,1.07,-44.26,-7.60,29.69
7027,-9.16,-3.83,3.47,-0.76,0.71,1.05,-44.26,-7.60,29.69
7038,-9.16,-3.83,3.47,-0.76,0.71,1.05,-44.26,-7.60,29.69
7149,-8.41,-4.06,3.31,0.48,-0.12,0.04,-45.56,-8.88,28.08
7159,-8.41,-4.06,3.31,0.48,-0.12,0.04,-45.56,-8.88,28.08
7170,-8.75,-3.87,3.80,0.55,-0.22,0.04,-45.56,-8.88,28.08
7181,-8.75,-3.87,3.80,0.55,-0.22,0.04,-45.56,-8.88,28.08
7291,-8.57,-4.67,2.17,-0.73,0.44,0.27,-46.21,-10.63,28.24
7301,-8.57,-4.67,2.17,-0.73,0.44,0.27,-46.21,-10.63,28.24
7312,-8.87,-3.79,2.44,-0.69,0.18,0.40,-46.21,-10.63,28.24
7323,-8.87,-3.79,2.44,-0.69,0.18,0.40,-46.21,-10.63,28.24
7472,-8.20,-4.69,1.93,-0.40,-0.05,0.04,-47.95,-12.23,26.31
7482,-8.20,-4.69,1.93,-0.40,-0.05,0.04,-47.95,-12.23,26.31
7493,-8.83,-4.24,1.74,-0.22,-0.14,0.15,-47.95,-12.23,26.31
7504,-8.83,-4.24,1.74,-0.22,-0.14,0.15,-47.95,-12.23,26.31
7515,-9.02,-3.49,2.60,-0.12,-0.31,0.13,-47.73,-12.39,27.12
7629,-8.58,-4.19,2.77,0.12,-0.06,0.02,-47.73,-12.39,27.12
7639,-8.58,-4.19,2.77,0.12,-0.06,0.02,-47.73,-12.39,27.12
7650,-8.60,-4.02,2.62,0.09,-0.04,0.02,-47.51,-13.18,25.67
7661,-8.60,-4.02,2.62,0.09,-0.04,0.02,-47.51,-13.18,25.67
7771,-8.24,-4.58,3.00,0.06,-0.07,0.05,-45.35,-12.23,28.24
7781,-8.24,-4.58,3.00,0.06,-0.07,0.05,-45.35,-12.23,28.24
7792,-7.99,-4.42,2.57,-0.05,-0.07,0.16,-45.35,-12.23,28.24
7803,-7.99,-4.42,2.57,-0.05,-0.07,0.16,-45.35,-12.23,28.24
7917,-9.29,-4.28,2.25,0.12,0.28,-0.15,-45.78,-11.91,28.56
7928,-8.71,-5.58,4.47,0.46,0.57,-0.12,-45.78,-11.91,28.56
7939,-8.71,-5.58,4.47,0.46,0.57,-0.12,-45.78,-11.91,28.56
7950,-8.20,-3.66,1.67,-0.01,1.04,0.01,-45.78,-11.91,28.56
7961,-8.20,-3.66,1.67,-0.01,1.04,0.01,-45.78,-11.91,28.56
8073,-8.94,-3.38,0.26,-1.80,0.36,0.48,-48.59,-13.34,24.22
8084,-8.94,-3.38,0.26,-1.80,0.36,0.48,-48.59,-13.34,24.22
8095,-8.89,-2.63,0.41,-1.41,0.13,0.47,-48.59,-13.34,24.22
8106,-8.99,-4.19,0.58,-0.93,0.02,0.27,-48.59,-13.34,24.22
8216,-8.95,-2.38,-0.94,0.53,-0.29,-0.31,-50.54,-15.10,23.10
8227,-9.89,-4.48,2.40,0.80,-0.74,-0.62,-50.54,-15.10,23.10
8238,-9.89,-4.48,2.40,0.80,-0.74,-0.62,-50.54,-15.10,23.10
8249,-7.95,-4.97,3.30,0.54,-0.88,-0.53,-50.54,-15.10,23.10
8363,-9.76,-2.29,2.58,-0.30,-0.21,0.26,-48.59,-15.57,26.15
8373,-9.30,-4.31,2.62,0.28,0.06,0.01,-48.59,-15.57,26.15
8384,-9.30,-4.31,2.62,0.28,0.06,0.01,-48.59,-15.57,26.15
8395,-8.73,-4.39,4.06,0.69,0.44,0.04,-48.59,-15.57,26.15
8406,-8.73,-4.39,4.06,0.69,0.44,0.04,-48.59,-15.57,26.15
8518,-7.14,-6.61,3.31,-0.73,-0.73,-0.50,-46.00,-15.89,26.15
8528,-6.99,-5.57,2.30,-1.02,-0.32,0.22,-46.00,-16.53,26.47
8539,-6.99,-5.57,2.30,-1.02,-0.32,0.22,-46.00,-16.53,26.47
8550,-7.71,-5.14,1.36,-0.96,0.02,0.52,-46.00,-16.53,26.47
8698,-8.36,-4.66,0.07,-0.06,0.38,0.12,-48.59,-15.57,25.83
8709,-8.47,-4.54,0.55,-0.11,-0.10,0.13,-48.59,-15.57,25.83
8720,-8.47,-4.54,0.55,-0.11,-0.10,0.13,-48.59,-15.57,25.83
8731,-8.91,-3.86,0.80,-0.14,-0.41,0.15,-48.59,-15.57,25.83
8844,-8.97,-4.62,3.15,0.43,0.58,-0.22,-46.65,-14.78,25.99
8854,-8.67,-4.40,1.15,0.16,0.69,-0.08,-46.65,-14.78,25.99
8865,-8.67,-4.40,1.15,0.16,0.69,-0.08,-46.65,-14.78,25.99
8876,-8.70,-4.80,1.31,-0.04,0.44,0.04,-46.65,-14.78,25.99
8887,-8.84,-4.30,1.29,-0.41,0.22,0.23,-46.65,-14.78,25.99
9002,-8.77,-3.53,1.06,-0.22,-0.49,0.27,-47.95,-14.14,24.39
9012,-9.27,-3.24,2.46,0.08,-0.40,0.10,-47.95,-14.14,24.39
9023,-9.27,-3.24,2.46,0.08,-0.40,0.10,-47.95,-14.14,24.39
9034,-8.95,-2.48,1.76,0.44,-0.07,-0.10,-47.51,-14.46,25.03
9145,-8.50,-4.85,0.32,-0.46,0.11,0.23,-47.51,-14.46,25.03
9156,-8.79,-3.48,1.52,-0.54,-0.33,0.30,-48.81,-14.78,24.06
9167,-9.28,-2.79,1.27,-0.48,-0.50,0.14,-48.81,-14.78,24.06
9178,-9.28,-2.79,1.27,-0.48,-0.50,0.14,-48.81,-14.78,24.06
9327,-8.75,-3.67,0.39,-0.56,-0.20,0.29,-49.24,-14.78,24.06
9337,-8.84,-4.00,2.42,-0.49,-0.44,0.20,-49.24,-14.78,24.06
9348,-9.03,-3.00,-0.24,-0.43,-0.37,0.04,-49.24,-14.78,24.06
9359,-9.03,-3.00,-0.24,-0.43,-0.37,0.04,-49.24,-14.78,24.06
9470,-9.07,-3.93,1.18,-0.39,0.28,0.24,-49.03,-13.98,24.55
9481,-9.07,-3.93,1.18,-0.39,0.28,0.24,-49.03,-13.98,24.55
9492,-8.88,-2.81,0.23,-0.58,0.08,0.31,-49.03,-13.98,24.55
9503,-8.88,-2.81,0.23,-0.58,0.08,0.31,-49.03,-13.98,24.55
9514,-8.60,-4.08,1.03,-0.54,-0.22,0.17,-49.03,-13.98,24.55
9627,-9.23,-4.62,3.51,0.19,0.38,-0.10,-48.38,-14.78,24.71
9637,-8.90,-3.53,0.85,-0.29,0.68,0.03,-48.38,-14.78,24.71
9648,-9.20,-3.34,0.25,-0.56,0.51,0.03,-48.38,-14.78,24.71
9659,-9.20,-3.34,0.25,-0.56,0.51,0.03,-48.38,-14.78,24.71
9768,-7.77,-5.03,2.09,-0.17,-0.17,-0.22,-50.33,-15.57,22.62
9778,-7.77,-5.03,2.09,-0.17,-0.17,-0.22,-50.33,-15.57,22.62
9789,-7.35,-5.98,1.05,-0.09,0.29,-0.07,-45.78,-16.69,24.06
9800,-7.35,-5.98,1.05,-0.09,0.29,-0.07,-45.78,-16.69,24.06
9911,-8.33,-4.31,1.73,-0.34,-0.05,0.03,-49.24,-14.78,25.35
9922,-8.33,-4.31,1.73,-0.34,-0.05,0.03,-49.24,-14.78,25.35
9933,-7.99,-4.97,0.53,-0.43,-0.08,0.14,-49.24,-14.78,25.35
9944,-7.99,-4.97,0.53,-0.43,-0.08,0.14,-49.24,-14.78,25.35
9955,-9.23,-4.63,0.43,-0.44,-0.22,0.20,-49.24,-14.78,25.35
10068,-8.79,-4.57,1.73,-0.37,0.54,-0.03,-47.95,-13.50,24.06
10078,-8.90,-4.42,-1.14,-1.04,0.40,0.11,-47.95,-13.50,24.06
10089,-8.26,-4.65,-2.03,-1.01,-0.18,0.14,-47.95,-13.50,24.06
10100,-8.26,-4.65,-2.03,-1.01,-0.18,0.14,-47.95,-13.50,24.06
10249,-9.09,-3.50,1.50,-0.23,-0.37,0.21,-46.65,-14.78,25.35
10259,-9.09,-3.50,1.50,-0.23,-0.37,0.21,-46.65,-14.78,25.35
10270,-9.30,-2.47,1.48,0.05,-0.22,0.06,-46.65,-14.78,25.35
10281,-9.30,-2.47,1.48,0.05,-0.22,0.06,-46.65,-14.78,25.35
10390,-9.00,-3.23,0.01,-0.53,0.43,0.27,-45.35,-15.41,25.03
10400,-9.00,-3.23,0.01,-0.53,0.43,0.27,-45.35,-15.41,25.03
10411,-8.94,-3.61,-0.00,-0.70,0.09,0.22,-48.81,-15.41,24.71
10422,-8.94,-3.61,-0.00,-0.70,0.09,0.22,-48.81,-15.41,24.71
10533,-9.15,-3.98,0.52,0.16,0.06,-0.03,-48.81,-15.41,24.71
10544,-9.15,-3.98,0.52,0.16,0.06,-0.03,-48.81,-15.41,24.71
10555,-9.12,-3.82,1.71,0.22,-0.02,0.06,-48.81,-14.46,24.06
10566,-9.12,-3.82,1.71,0.22,-0.02,0.06,-48.81,-14.46,24.06
10679,-9.16,-3.70,1.23,-0.12,0.11,-0.06,-47.08,-15.73,23.42
10689,-9.12,-3.85,0.99,-0.14,0.11,-0.05,-47.08,-15.73,23.42
10700,-9.12,-3.85,0.99,-0.14,0.11,-0.05,-47.08,-15.73,23.42
10711,-9.08,-3.78,0.98,-0.15,0.08,-0.02,-47.08,-15.73,23.42
10722,-9.08,-3.78,0.98,-0.15,0.08,-0.02,-47.08,-15.73,23.42
10833,-9.28,-2.90,1.92,0.24,-0.12,0.05,-48.16,-15.26,23.90
10843,-9.28,-2.90,1.92,0.24,-0.12,0.05,-48.16,-15.26,23.90
10854,-9.26,-3.07,2.02,0.26,0.00,-0.07,-48.16,-15.26,23.90
10865,-9.26,-3.07,2.02,0.26,0.00,-0.07,-48.16,-15.26,23.90
10978,-9.12,-3.59,0.74,0.12,-0.03,-0.09,-49.24,-16.37,25.03
10988,-9.12,-3.59,0.74,0.12,-0.03,-0.09,-49.24,-16.37,25.03
10999,-9.18,-3.29,0.90,0.34,-0.09,-0.11,-49.24,-16.37,25.03
11010,-9.45,-4.19,2.85,0.52,-0.06,-0.14,-49.24,-16.37,25.03
11159,-8.99,-3.49,1.34,-0.40,0.03,-0.10,-49.24,-15.10,22.14
11169,-9.30,-3.91,-0.00,-0.72,-0.16,-0.24,-47.30,-16.85,22.62
11180,-9.30,-3.91,-0.00,-0.72,-0.16,-0.24,-47.30,-16.85,22.62
11191,-8.91,-4.03,0.79,-0.49,-0.43,-0.10,-47.30,-16.85,22.62
11302,-9.19,-4.07,2.28,0.19,0.14,0.00,-47.30,-16.85,22.62
11312,-9.11,-3.61,1.67,0.00,0.33,0.06,-47.73,-17.81,23.90
11323,-9.11,-3.61,1.67,0.00,0.33,0.06,-47.73,-17.81,23.90
11334,-9.01,-3.95,0.90,-0.24,0.36,0.07,-47.73,-17.81,23.90
11345,-9.01,-3.95,0.90,-0.24,0.36,0.07,-47.73,-17.81,23.90
11458,-9.18,-3.63,1.10,0.18,-0.19,-0.12,-48.81,-16.69,23.10
11469,-9.18,-3.63,1.10,0.18,-0.19,-0.12,-48.81,-16.69,23.10
11480,-9.40,-3.90,1.60,0.26,-0.09,-0.15,-48.81,-16.69,23.10
11491,-9.10,-3.80,0.32,0.10,0.05,-0.13,-48.81,-16.69,23.10
11600,-9.11,-3.70,0.81,-0.07,0.06,0.03,-47.73,-17.49,23.26
11610,-9.19,-3.66,1.16,-0.03,0.04,0.01,-47.73,-17.49,23.26
11621,-9.19,-3.66,1.16,-0.03,0.04,0.01,-47.73,-17.49,23.26
11632,-9.11,-3.94,1.25,-0.07,0.08,-0.00,-47.73,-17.49,23.26
11743,-9.03,-3.70,0.72,-0.36,0.02,0.16,-49.03,-17.81,23.26
11754,-9.04,-4.17,0.38,-0.39,-0.11,0.14,-49.03,-17.81,23.26
11765,-9.04,-4.17,0.38,-0.39,-0.11,0.14,-49.03,-17.81,23.26
11776,-8.69,-3.68,-0.07,-0.25,-0.30,0.15,-49.03,-17.81,23.26
11889,-9.37,-4.73,2.52,0.55,0.45,-0.30,-48.59,-17.81,22.94
11899,-9.69,-3.58,1.02,0.21,0.65,-0.07,-48.59,-17.81,22.94
11910,-9.72,-3.04,-0.04,-0.07,0.46,-0.13,-48.59,-17.81,22.94
11921,-9.72,-3.04,-0.04,-0.07,0.46,-0.13,-48.59,-17.81,22.94
12071,-9.42,-3.74,0.96,0.02,0.13,0.10,-46.65,-17.01,24.06
12082,-9.42,-3.74,0.96,0.02,0.13,0.10,-46.65,-17.01,24.06
12093,-9.16,-4.05,1.83,0.05,0.21,0.09,-46.65,-17.01,24.06
12104,-9.16,-4.05,1.83,0.05,0.21,0.09,-46.65,-17.01,24.06
12115,-9.05,-3.86,1.95,-0.18,0.30,0.17,-46.65,-17.01,24.06
12224,-9.57,-3.62,2.12,-0.08,-0.48,-0.11,-49.46,-17.17,23.26
12234,-9.30,-3.61,1.44,0.24,-0.08,-0.13,-49.46,-17.17,23.26
12245,-9.30,-3.61,1.44,0.24,-0.08,-0.13,-49.46,-17.17,23.26
12256,-9.53,-3.79,1.80,0.33,0.09,-0.12,-49.46,-17.17,23.26
12365,-8.67,-3.93,0.59,-0.44,-0.41,0.11,-47.51,-17.33,22.78
12375,-8.40,-3.75,1.35,-0.46,-0.50,0.06,-47.51,-17.33,22.78
12386,-8.40,-3.75,1.35,-0.46,-0.50,0.06,-47.51,-17.33,22.78
12397,-8.96,-3.02,0.51,-0.66,-0.71,-0.09,-47.51,-17.33,22.78
12508,-9.33,-4.95,2.90,0.46,0.50,0.12,-46.86,-19.40,25.51
12518,-9.34,-2.09,-0.33,0.07,0.88,0.37,-46.86,-19.40,25.51
12529,-9.34,-2.09,-0.33,0.07,0.88,0.37,-46.86,-19.40,25.51
12540,-9.01,-3.81,2.20,-0.15,0.73,0.32,-46.86,-19.40,25.51
12651,-6.43,-7.97,6.63,0.62,-0.65,-0.55,-47.51,-17.33,23.10
12661,-6.43,-7.97,6.63,0.62,-0.65,-0.55,-47.51,-17.33,23.10
12672,-11.19,-2.07,3.57,-0.07,0.27,0.43,-47.51,-17.33,23.10
12683,-11.19,-2.07,3.57,-0.07,0.27,0.43,-47.51,-17.33,23.10
12694,-9.18,-3.34,0.43,-0.59,0.55,0.27,-47.08,-17.65,24.39
12805,-9.77,-2.36,1.32,0.92,-0.92,-0.72,-47.08,-17.65,24.39
12816,-5.73,-5.60,3.15,1.39,-0.78,-1.21,-43.61,-18.92,26.31
12827,-5.73,-5.60,3.15,1.39,-0.78,-1.21,-43.61,-18.92,26.31
12838,-5.62,-6.79,7.38,1.45,-0.15,-0.59,-43.61,-18.92,26.31
12950,-11.10,-3.64,1.28,0.30,0.99,-0.66,-46.21,-17.01,23.42
12960,-11.15,-3.05,-2.80,0.09,0.90,-0.77,-46.21,-17.01,23.42
12971,-7.73,-6.12,-2.37,0.70,0.22,-0.87,-46.21,-17.01,23.42
12982,-7.73,-6.12,-2.37,0.70,0.22,-0.87,-46.21,-17.01,23.42
13091,-8.40,-4.32,2.68,-0.39,0.31,0.33,-45.35,-17.01,25.99
13101,-10.72,-4.20,-0.34,-0.62,0.45,0.21,-45.35,-17.01,25.99
13112,-9.09,-3.61,-0.58,-0.63,0.04,0.12,-45.35,-17.01,25.99
13123,-9.09,-3.61,-0.58,-0.63,0.04,0.12,-45.35,-17.01,25.99
13234,-8.77,-4.30,2.61,-0.12,-0.22,-0.22,-46.65,-17.97,24.71
13244,-8.77,-4.30,2.61,-0.12,-0.22,-0.22,-46.65,-17.97,24.71
13255,-8.86,-3.80,1.66,-0.19,0.02,-0.13,-46.65,-17.97,24.71
13266,-8.86,-3.80,1.66,-0.19,0.02,-0.13,-46.65,-17.97,24.71
13417,-9.39,-2.59,2.08,-0.00,-0.12,0.48,-47.95,-16.69,24.06
13427,-9.39,-2.59,2.08,-0.00,-0.12,0.48,-47.95,-16.69,24.06
13438,-9.58,-2.68,2.41,-0.37,-0.14,0.24,-47.95,-16.69,24.06
13449,-9.58,-2.68,2.41,-0.37,-0.14,0.24,-47.95,-16.69,24.06
13460,-9.01,-3.36,-0.81,-0.53,-0.09,0.04,-47.51,-16.69,22.78
13571,-8.90,-3.06,1.84,0.01,0.15,-0.02,-47.51,-16.69,22.78
13582,-8.90,-3.06,1.84,0.01,0.15,-0.02,-46.43,-16.21,24.22
13593,-9.02,-4.12,1.95,-0.42,0.10,-0.13,-46.43,-16.21,24.22
13604,-9.02,-4.12,1.95,-0.42,0.10,-0.13,-46.43,-16.21,24.22
13715,-9.29,-3.06,0.84,0.30,-0.00,-0.02,-46.21,-18.29,24.71
13725,-9.29,-3.06,0.84,0.30,-0.00,-0.02,-46.21,-18.29,24.71
13736,-9.37,-3.25,1.07,0.66,0.02,-0.11,-46.21,-18.29,24.71
13747,-9.37,-3.25,1.07,0.66,0.02,-0.11,-46.21,-18.29,24.71
13858,-9.44,-2.61,1.42,-0.61,-0.11,0.27,-46.43,-15.57,23.58
13869,-9.44,-2.61,1.42,-0.61,-0.11,0.27,-46.43,-15.57,23.58
13880,-8.93,-2.32,-0.35,-0.58,-0.17,0.13,-46.43,-15.57,23.58
13891,-8.93,-2.32,-0.35,-0.58,-0.17,0.13,-46.43,-15.57,23.58
14000,-9.12,-3.34,0.61,-0.25,0.46,0.17,-46.65,-17.97,23.42
14010,-9.12,-3.34,0.61,-0.25,0.46,0.17,-46.65,-17.97,23.42
14021,-9.07,-3.68,0.26,-0.61,0.22,0.22,-46.65,-17.97,23.42
14032,-9.06,-2.85,-0.09,-0.73,-0.05,0.28,-46.65,-17.97,23.42
14141,-9.78,-3.25,4.78,0.32,0.22,-0.07,-48.38,-17.97,23.74
14151,-9.78,-3.25,4.78,0.32,0.22,-0.07,-48.38,-17.97,23.74
14162,-9.34,-3.02,2.33,-0.27,0.84,-0.03,-48.38,-17.97,23.74
14173,-9.46,-2.18,-1.41,-0.73,0.99,-0.03,-48.38,-17.97,23.74
14184,-9.46,-2.18,-1.41,-0.73,0.99,-0.03,-48.38,-17.97,23.74
14296,-7.59,-4.79,2.16,-0.10,0.43,0.34,-47.73,-19.40,21.97
14306,-7.59,-4.79,2.16,-0.10,0.43,0.34,-47.73,-19.40,21.97
14317,-8.28,-4.65,0.30,0.11,0.88,0.63,-47.73,-19.40,21.97
14328,-8.28,-4.65,0.30,0.11,0.88,0.63,-47.73,-19.40,21.97
14477,-9.93,-3.43,2.59,0.42,-0.37,-0.34,-43.40,-20.36,25.19
14487,-9.93,-3.43,2.59,0.42,-0.37,-0.34,-43.40,-20.36,25.19
14498,-9.70,-2.77,2.15,0.43,0.04,-0.20,-43.40,-20.36,25.19
14509,-9.70,-2.77,2.15,0.43,0.04,-0.20,-43.40,-20.36,25.19
14620,-8.77,-3.64,-0.59,-0.92,0.48,0.25,-45.78,-19.24,24.39
14631,-8.77,-3.64,-0.59,-0.92,0.48,0.25,-45.78,-19.24,24.39
14642,-9.21,-3.02,-1.50,-0.85,0.06,0.19,-45.78,-19.24,24.39
14653,-9.13,-3.33,0.14,-0.48,-0.46,0.09,-45.78,-19.24,24.39
14766,-9.40,-5.45,2.81,0.48,0.62,-0.11,-45.35,-18.92,24.06
14776,-8.84,-3.36,1.08,-0.05,0.86,0.25,-45.35,-18.92,24.06
14787,-8.84,-3.36,1.08,-0.05,0.86,0.25,-45.35,-18.92,24.06
14798,-8.92,-4.24,1.17,-0.50,0.64,0.30,-45.35,-18.92,24.06
14809,-8.92,-4.24,1.17,-0.50,0.64,0.30,-45.35,-18.92,24.06
14957,-9.64,-2.35,2.21,0.74,0.01,0.04,-45.78,-20.52,22.78
14967,-9.64,-2.35,2.21,0.74,0.01,0.04,-45.78,-20.52,22.78
14978,-9.67,-2.43,3.86,0.72,0.41,-0.20,-45.78,-20.52,22.78
14989,-9.67,-2.43,3.86,0.72,0.41,-0.20,-45.78,-20.52,22.78
15102,-8.27,-3.49,2.24,1.07,-0.69,0.01,-43.18,-20.52,23.10
15112,-8.27,-3.49,2.24,1.07,-0.69,0.01,-43.18,-20.52,23.10
15123,-8.65,-4.13,3.40,0.87,-0.42,0.03,-43.18,-20.52,23.10
15134,-8.43,-3.57,1.67,0.31,0.03,0.01,-43.18,-20.52,23.10
15245,-8.89,-4.98,2.41,0.66,-0.73,-0.05,-45.56,-21.31,23.58
15255,-8.17,-3.88,2.04,0.63,-0.48,0.06,-45.56,-21.31,23.58
15266,-8.17,-3.88,2.04,0.63,-0.48,0.06,-45.56,-21.31,23.58
15277,-8.53,-4.56,2.78,0.74,-0.26,0.19,-45.56,-21.31,23.58
15388,-8.67,-4.01,0.56,0.07,0.60,-0.05,-45.35,-20.52,24.71
15398,-9.02,-5.15,1.76,-0.30,0.24,0.00,-45.35,-20.52,24.71
15409,-9.02,-5.15,1.76,-0.30,0.24,0.00,-45.35,-20.52,24.71
15420,-8.59,-2.97,-1.54,-0.77,-0.06,0.24,-45.35,-20.52,24.71
15431,-8.59,-2.97,-1.54,-0.77,-0.06,0.24,-45.35,-20.52,24.71
15544,-9.00,-4.22,1.80,0.01,0.44,0.12,-45.78,-19.24,24.06
15554,-8.94,-3.22,0.37,-0.43,0.39,0.26,-45.78,-19.24,24.06
15565,-8.94,-3.22,0.37,-0.43,0.39,0.26,-45.78,-19.24,24.06
15576,-8.77,-4.01,-0.76,-0.57,0.12,0.19,-45.78,-19.24,24.06
15764,-8.79,-3.63,1.19,-0.27,-0.52,0.19,-46.86,-19.40,24.87
15774,-8.20,-3.52,0.12,-0.04,-0.51,0.03,-46.86,-19.40,24.87
15785,-8.20,-3.52,0.12,-0.04,-0.51,0.03,-46.86,-19.40,24.87
15796,-8.76,-3.18,1.30,0.04,-0.80,-0.24,-46.86,-19.40,24.87
15907,-8.67,-3.46,-0.78,-0.31,1.10,0.30,-43.61,-18.92,26.64
15917,-8.33,-4.53,0.72,-0.32,0.76,0.31,-43.61,-18.92,26.64
15928,-8.33,-4.53,0.72,-0.32,0.76,0.31,-43.61,-18.92,26.64
15939,-8.35,-3.83,1.05,-0.53,0.44,0.35,-43.61,-18.92,26.64
16054,-9.17,-3.59,1.95,0.81,-0.06,-0.18,-45.35,-19.56,24.39
16064,-9.17,-3.59,1.95,0.81,-0.06,-0.18,-45.35,-19.56,24.39
16075,-9.27,-5.75,3.71,0.89,0.24,-0.12,-45.35,-19.56,24.39
16086,-9.27,-5.75,3.71,0.89,0.24,-0.12,-45.35,-19.56,24.39
16097,-8.81,-4.28,2.91,0.32,0.65,0.17,-45.35,-19.24,24.71
16210,-9.50,-3.88,-0.82,-1.15,-0.60,0.08,-45.35,-19.24,24.71
16220,-9.41,-4.27,1.51,-0.38,-0.54,0.16,-45.56,-20.04,22.62
16231,-9.41,-4.27,1.51,-0.38,-0.54,0.16,-45.56,-20.04,22.62
16242,-9.30,-3.21,0.62,0.02,-0.19,0.22,-45.56,-20.04,22.62
16393,-9.73,-5.21,2.47,-0.09,-0.67,-0.48,-43.83,-20.04,24.55
16403,-9.62,-4.20,2.07,-0.26,-0.61,-0.11,-43.83,-20.04,24.55
16414,-9.37,-3.80,1.72,-0.22,-0.43,0.07,-43.83,-20.04,24.55
16425,-9.37,-3.80,1.72,-0.22,-0.43,0.07,-43.83,-20.04,24.55
16538,-7.57,-5.61,2.89,0.77,0.39,-0.76,-44.70,-21.63,24.22
16549,-7.57,-5.61,2.89,0.77,0.39,-0.76,-44.70,-21.63,24.22
16560,-6.45,-6.45,2.61,0.57,0.67,-0.34,-44.70,-21.63,24.22
16571,-6.45,-6.45,2.61,0.57,0.67,-0.34,-44.70,-21.63,24.22
16684,-8.87,-3.36,-1.14,-0.34,-0.31,0.05,-43.18,-20.52,24.71
16695,-10.21,-3.28,0.80,0.18,-0.54,-0.18,-43.18,-20.52,24.71
16706,-10.21,-3.28,0.80,0.18,-0.54,-0.18,-43.18,-20.52,24.71
16717,-9.94,-3.67,2.35,0.50,-0.29,-0.47,-43.18,-20.52,24.71
16828,-8.17,-4.41,1.72,0.61,0.47,0.01,-43.18,-20.84,24.06
16838,-8.33,-4.15,1.89,0.51,0.40,0.13,-43.18,-20.84,24.06
16849,-8.33,-4.15,1.89,0.51,0.40,0.13,-43.18,-20.84,24.06
16860,-8.34,-4.46,1.98,0.29,0.32,0.19,-47.08,-18.60,23.74
16871,-8.34,-4.46,1.98,0.29,0.32,0.19,-47.08,-18.60,23.74
16983,-10.26,-2.91,2.15,0.40,-0.12,0.02,-44.91,-20.20,24.39
16993,-10.26,-2.91,2.15,0.40,-0.12,0.02,-44.91,-20.20,24.39
17004,-10.30,-2.06,1.84,0.34,0.10,-0.35,-44.91,-20.20,24.39
17015,-8.46,-4.60,2.87,0.19,0.12,-0.77,-44.91,-20.20,24.39
17128,-8.46,-4.78,0.89,-0.21,0.53,-0.58,-44.26,-22.91,23.58
17138,-8.57,-4.72,1.46,0.04,0.65,-0.60,-44.26,-22.91,23.58
17149,-8.57,-4.72,1.46,0.04,0.65,-0.60,-44.26,-22.91,23.58
17160,-8.13,-4.78,0.91,0.36,0.88,-0.64,-44.26,-22.91,23.58
17310,-8.78,-5.03,1.66,1.20,-0.18,0.59,-44.91,-23.39,20.53
17320,-8.38,-5.23,0.94,0.81,0.01,0.45,-44.91,-23.39,20.53
17331,-8.38,-5.23,0.94,0.81,0.01,0.45,-44.91,-23.39,20.53
17342,-8.59,-5.11,0.88,0.61,-0.02,0.49,-44.91,-23.39,20.53
17462,-8.59,-5.11,0.88,0.61,-0.02,0.49,-44.91,-23.39,20.53
17464,-8.72,-4.30,1.05,0.08,0.01,0.59,-46.43,-19.40,23.90
17474,-8.72,-4.30,1.05,0.08,0.01,0.59,-46.43,-19.40,23.90
17485,-9.47,-3.35,1.82,0.00,-0.03,0.62,-48.16,-16.21,22.62
17496,-9.40,-2.78,1.72,-0.11,-0.04,0.36,-48.16,-16.21,22.62
17647,-8.15,-4.20,2.16,-0.12,-0.22,-0.07,-46.65,-17.97,23.42
17657,-8.01,-4.85,1.37,-0.17,-0.15,-0.01,-46.65,-17.97,23.42
17668,-8.01,-4.85,1.37,-0.17,-0.15,-0.01,-46.65,-17.97,23.42
17679,-7.83,-5.87,1.51,-0.02,-0.13,0.18,-46.65,-17.97,23.42
17790,-9.08,-3.84,0.91,0.28,0.85,-0.30,-47.30,-14.94,23.58
17801,-9.23,-3.45,-2.08,0.05,0.62,-0.46,-47.30,-14.94,23.58
17812,-9.23,-3.45,-2.08,0.05,0.62,-0.46,-47.30,-14.94,23.58
17823,-9.70,-3.25,-0.93,-0.37,-0.37,-0.65,-47.30,-14.94,23.58
17936,-8.56,-4.41,0.99,0.37,-0.43,0.49,-46.43,-16.85,22.62
17946,-8.56,-4.41,0.99,0.37,-0.43,0.49,-46.43,-16.85,22.62
17957,-8.44,-4.02,2.17,0.56,-0.39,0.46,-46.43,-16.85,22.62
17968,-8.44,-4.02,2.17,0.56,-0.39,0.46,-46.43,-16.85,22.62
18079,-8.51,-4.41,0.28,0.10,1.05,-0.18,-44.26,-15.57,26.80
18089,-8.51,-4.41,0.28,0.10,1.05,-0.18,-44.26,-15.57,26.80
18100,-8.39,-5.46,-0.02,-0.23,0.52,-0.01,-44.26,-15.57,26.80
18111,-8.39,-5.46,-0.02,-0.23,0.52,-0.01,-44.26,-15.57,26.80
18122,-8.46,-4.32,-0.16,-0.57,-0.02,0.23,-45.78,-16.05,24.39
18233,-8.98,-4.77,3.62,0.52,0.41,-0.05,-45.78,-16.05,24.39
18244,-8.68,-3.83,0.78,0.09,0.65,0.06,-45.56,-16.85,24.22
18255,-8.68,-3.83,0.78,0.09,0.65,0.06,-45.56,-16.85,24.22
18266,-8.63,-4.41,0.88,-0.21,0.41,0.10,-45.56,-16.85,24.22
18378,-8.78,-3.57,1.09,0.02,0.21,0.24,-46.00,-16.85,22.94
18388,-8.78,-3.57,1.09,0.02,0.21,0.24,-46.00,-16.85,22.94
18399,-8.82,-4.15,0.87,-0.03,0.08,0.15,-46.00,-16.85,22.94
18410,-8.82,-4.15,0.87,-0.03,0.08,0.15,-46.00,-16.85,22.94
18521,-9.07,-3.46,2.48,-0.11,-0.13,0.24,-43.83,-16.85,24.55
18532,-9.07,-3.46,2.48,-0.11,-0.13,0.24,-43.83,-16.85,24.55
18543,-8.80,-3.93,0.93,-0.13,-0.05,0.20,-43.83,-16.85,24.55
18554,-8.80,-3.93,0.93,-0.13,-0.05,0.20,-43.83,-16.85,24.55
18665,-8.86,-3.91,0.95,-0.01,0.54,-0.01,-45.56,-15.26,25.19
18675,-8.86,-3.91,0.95,-0.01,0.54,-0.01,-45.56,-15.26,25.19
18686,-8.91,-4.12,1.67,-0.24,0.32,0.10,-45.56,-15.26,25.19
18697,-9.07,-3.68,1.10,-0.53,0.18,0.18,-45.56,-15.26,25.19
18708,-9.07,-3.68,1.10,-0.53,0.18,0.18,-45.56,-15.26,25.19
18858,-9.58,-2.34,2.42,0.03,0.12,0.04,-44.70,-17.81,23.90
18868,-9.58,-2.34,2.42,0.03,0.12,0.04,-44.70,-17.81,23.90
18879,-9.43,-2.81,2.90,0.10,0.31,-0.18,-43.40,-17.49,26.15
18890,-9.43,-2.81,2.90,0.10,0.31,-0.18,-43.40,-17.49,26.15
19003,-9.16,-3.17,2.27,-0.43,-1.12,0.25,-44.91,-16.69,23.42
19014,-9.16,-3.17,2.27,-0.43,-1.12,0.25,-44.91,-16.69,23.42
19025,-10.29,-2.04,2.47,-0.47,-0.97,-0.04,-44.91,-16.69,23.42
19036,-10.29,-2.04,2.47,-0.47,-0.97,-0.04,-44.91,-16.69,23.42
19147,-8.94,-3.91,2.10,0.22,-0.06,0.18,-45.13,-18.76,25.83
19157,-9.12,-3.57,2.81,0.20,-0.02,0.21,-45.13,-18.76,25.83
19168,-9.12,-3.57,2.81,0.20,-0.02,0.21,-45.13,-18.76,25.83
19179,-9.18,-3.62,1.89,0.12,0.19,0.10,-45.13,-18.76,25.83
19333,-9.08,-3.43,1.40,-0.06,-0.11,0.16,-43.61,-18.29,24.06
19343,-9.00,-3.44,1.27,-0.33,-0.29,0.12,-43.61,-18.29,24.06
19354,-9.00,-3.44,1.27,-0.33,-0.29,0.12,-43.61,-18.29,24.06
19365,-8.75,-3.66,0.81,-0.36,-0.34,0.07,-43.61,-18.29,24.06
19522,-8.75,-3.66,0.81,-0.36,-0.34,0.07,-43.61,-18.29,24.06
19524,-8.72,-3.98,-0.01,-0.51,0.09,0.16,-45.78,-17.65,24.06
19534,-8.72,-3.98,-0.01,-0.51,0.09,0.16,-45.78,-17.65,24.06
19545,-9.01,-3.32,1.13,-0.48,-0.30,0.13,-45.78,-17.65,24.06
19556,-9.01,-3.32,1.13,-0.48,-0.30,0.13,-45.78,-17.65,24.06
19668,-9.30,-3.63,2.87,0.48,0.41,-0.01,-42.96,-18.13,23.58
19678,-8.86,-3.56,1.05,0.08,0.61,0.04,-42.96,-18.13,23.58
19689,-8.86,-3.56,1.05,0.08,0.61,0.04,-42.96,-18.13,23.58
19700,-8.80,-4.69,1.15,-0.20,0.41,0.05,-42.96,-18.13,23.58
19813,-9.36,-3.52,0.55,-0.28,-0.11,-0.05,-45.13,-18.76,23.90
19823,-9.29,-3.57,0.45,0.19,0.01,-0.02,-45.13,-18.76,23.90
19834,-9.29,-3.57,0.45,0.19,0.01,-0.02,-45.13,-18.76,23.90
19845,-9.39,-4.60,3.09,0.49,0.08,0.01,-45.13,-18.76,23.90
19995,-9.41,-4.06,1.91,-0.47,-0.29,0.01,-46.21,-17.33,21.81
20005,-9.32,-2.90,0.96,-0.23,0.01,0.09,-47.51,-19.24,22.46
20016,-9.32,-2.90,0.96,-0.23,0.01,0.09,-47.51,-19.24,22.46
20027,-9.20,-4.08,0.86,-0.01,0.08,0.02,-47.51,-19.24,22.46
20138,-9.20,-2.79,0.50,-0.38,-0.51,-0.07,-46.00,-19.72,23.90
20149,-9.20,-2.79,0.50,-0.38,-0.51,-0.07,-46.00,-19.72,23.90
20160,-9.47,-3.90,1.78,-0.12,-0.40,-0.20,-46.00,-19.72,23.90
20171,-9.47,-3.90,1.78,-0.12,-0.40,-0.20,-46.00,-19.72,23.90
20182,-9.41,-2.99,2.14,0.26,-0.07,-0.16,-46.00,-19.72,23.90
20293,-9.34,-1.68,-3.67,-0.61,-0.41,0.16,-46.21,-20.52,21.81
20304,-11.64,-1.98,1.33,0.09,-1.18,-0.24,-46.21,-20.52,21.81
20315,-11.64,-1.98,1.33,0.09,-1.18,-0.24,-46.21,-20.52,21.81
20326,-9.44,-1.95,0.83,0.43,-1.16,-0.84,-46.21,-20.52,21.81
20437,-9.00,-3.33,1.75,0.07,0.86,0.31,-41.01,-20.20,26.31
20447,-9.91,-3.11,0.36,-0.04,0.72,0.10,-41.01,-20.20,26.31
20458,-9.91,-3.11,0.36,-0.04,0.72,0.10,-41.01,-20.20,26.31
20469,-9.34,-4.59,-0.20,-0.01,0.48,-0.26,-41.01,-20.20,26.31
20621,-9.52,-2.41,0.38,0.48,-0.02,0.07,-41.88,-20.20,23.10
20631,-9.52,-2.41,0.38,0.48,-0.02,0.07,-41.88,-20.20,23.10
20642,-9.88,-2.86,2.88,0.96,0.10,-0.31,-43.18,-19.56,25.35
20653,-9.88,-2.86,2.88,0.96,0.10,-0.31,-43.18,-19.56,25.35
20764,-8.89,-3.86,0.13,-0.58,-0.21,0.02,-44.48,-19.24,22.78
20775,-8.89,-3.86,0.13,-0.58,-0.21,0.02,-44.48,-19.24,22.78
20786,-9.37,-4.64,1.28,-0.14,-0.22,-0.02,-44.48,-19.24,22.78
20797,-9.37,-4.64,1.28,-0.14,-0.22,-0.02,-44.48,-19.24,22.78
20939,-8.58,-3.79,0.10,-1.00,-1.10,-0.21,-44.48,-19.24,22.78
20949,-8.58,-3.79,0.10,-1.00,-1.10,-0.21,-44.48,-19.24,22.78
20960,-9.09,-4.58,3.01,-0.16,-1.32,-0.01,-44.48,-19.24,22.78
20971,-9.09,-4.58,3.01,-0.16,-1.32,-0.01,-44.48,-19.24,22.78
20982,-9.11,-2.87,2.14,-0.11,-0.97,0.19,-44.48,-19.24,22.78
21142,-8.65,-3.91,0.46,-0.53,-0.48,0.21,-44.91,-18.60,23.42
21153,-8.65,-3.91,0.46,-0.53,-0.48,0.21,-44.91,-18.60,23.42
21164,-8.98,-2.87,2.49,-0.56,-0.77,0.11,-44.91,-18.60,23.42
21175,-8.98,-2.87,2.49,-0.56,-0.77,0.11,-44.91,-18.60,23.42
21325,-8.50,-4.38,0.45,-0.18,0.44,0.00,-41.66,-19.08,24.22
21335,-8.50,-4.38,0.45,-0.18,0.44,0.00,-41.66,-19.08,24.22
21346,-8.70,-5.13,-0.07,-0.39,0.12,0.06,-41.66,-19.08,24.22
21357,-8.70,-5.13,-0.07,-0.39,0.12,0.06,-41.66,-19.08,24.22
21469,-8.99,-3.41,1.83,0.28,0.49,0.08,-43.61,-21.16,23.42
21479,-8.99,-3.41,1.83,0.28,0.49,0.08,-43.61,-21.16,23.42
21490,-8.85,-4.13,2.02,-0.07,0.50,0.07,-43.61,-21.16,23.42
21501,-8.87,-4.20,0.86,-0.40,0.46,0.08,-43.61,-21.16,23.42
21613,-9.20,-4.08,0.96,0.07,-0.08,-0.00,-43.40,-19.72,21.33
21623,-9.22,-4.09,2.60,0.31,0.08,0.07,-43.40,-19.72,21.33
21634,-9.22,-4.09,2.60,0.31,0.08,0.07,-43.40,-19.72,21.33
21645,-8.82,-4.21,0.73,0.15,0.32,0.11,-45.35,-20.20,22.14
21656,-8.82,-4.21,0.73,0.15,0.32,0.11,-45.35,-20.20,22.14
21768,-9.40,-3.57,1.11,-0.23,-0.39,0.04,-45.35,-20.20,22.14
21778,-9.40,-3.57,1.11,-0.23,-0.39,0.04,-45.35,-20.20,22.14
21789,-9.49,-3.36,2.75,0.25,-0.03,-0.00,-42.53,-22.27,23.26
21800,-9.19,-3.67,2.91,0.12,0.34,-0.05,-42.53,-22.27,23.26
21951,-9.49,-2.47,1.90,0.47,0.09,-0.13,-46.43,-22.27,23.90
21961,-9.27,-5.11,2.58,0.54,0.46,-0.22,-46.43,-22.27,23.90
21972,-9.27,-5.11,2.58,0.54,0.46,-0.22,-46.43,-22.27,23.90
21983,-8.96,-3.70,2.37,0.25,0.63,0.00,-46.43,-22.27,23.90
22095,-8.41,-3.14,0.09,-0.37,-0.78,-0.05,-42.31,-23.39,20.21
22105,-9.11,-2.84,-0.45,-0.18,-1.00,-0.35,-42.31,-23.39,20.21
22116,-9.11,-2.84,-0.45,-0.18,-1.00,-0.35,-42.31,-23.39,20.21
22127,-9.06,-4.11,1.37,0.35,-1.08,-0.59,-42.31,-23.39,20.21
22238,-8.54,-4.22,0.66,-0.51,0.86,0.47,-41.66,-22.91,23.90
22248,-8.67,-3.09,-0.45,-0.70,0.58,0.52,-41.66,-22.91,23.90
22259,-8.67,-3.09,-0.45,-0.70,0.58,0.52,-41.66,-22.91,23.90
22270,-8.76,-3.83,0.18,-0.69,0.23,0.41,-41.66,-22.91,23.90
22381,-9.64,-3.16,4.53,0.40,0.11,-0.29,-42.53,-23.87,20.05
22391,-9.64,-3.16,4.53,0.40,0.11,-0.29,-42.53,-23.87,20.05
22402,-9.28,-4.50,4.55,-0.02,0.81,-0.24,-42.96,-22.59,21.97
22413,-9.28,-4.50,4.55,-0.02,0.81,-0.24,-42.96,-22.59,21.97
22424,-8.65,-3.75,0.77,-0.66,1.21,-0.07,-42.96,-22.59,21.97
22536,-10.67,-2.71,2.55,0.89,-1.56,-0.83,-40.58,-24.34,22.46
22546,-9.41,-4.05,2.93,1.24,-1.11,-1.24,-40.58,-24.34,22.46
22557,-9.41,-4.05,2.93,1.24,-1.11,-1.24,-40.58,-24.34,22.46
22568,-9.77,-5.39,0.14,1.38,-0.50,-1.36,-40.58,-24.34,22.46
22680,-7.11,-8.10,-2.38,1.50,1.92,-0.96,-38.20,-23.23,26.47
22690,-6.40,-7.08,-1.32,1.90,1.97,-0.72,-38.20,-23.23,26.47
22701,-6.38,-5.34,0.28,2.22,1.89,-0.40,-38.20,-23.23,26.47
22712,-6.38,-5.34,0.28,2.22,1.89,-0.40,-38.20,-23.23,26.47
22824,-8.52,-0.90,2.57,1.45,0.57,0.59,-45.78,-19.56,25.03
22834,-8.52,-0.90,2.57,1.45,0.57,0.59,-45.78,-19.56,25.03
22845,-8.85,-0.23,4.87,1.51,-0.16,0.80,-45.78,-19.56,25.03
22856,-8.85,-0.23,4.87,1.51,-0.16,0.80,-45.78,-19.56,25.03
22967,-6.61,-2.53,-0.88,0.23,-0.47,0.23,-48.59,-13.98,25.19
22977,-6.61,-2.53,-0.88,0.23,-0.47,0.23,-48.59,-13.98,25.19
22988,-8.08,-5.62,2.53,0.80,-0.61,0.14,-48.59,-13.98,25.19
22999,-8.08,-5.62,2.53,0.80,-0.61,0.14,-48.59,-13.98,25.19
23010,-9.64,-3.88,3.09,0.68,-0.32,0.47,-48.59,-13.98,25.19
23122,-8.33,-3.17,0.43,-0.70,-0.02,0.28,-49.68,-14.14,26.64
23132,-8.33,-3.17,0.43,-0.70,-0.02,0.28,-49.68,-14.14,26.64
23143,-8.37,-4.89,-0.28,-0.69,-0.65,0.19,-49.68,-14.14,26.64
23154,-8.37,-4.89,-0.28,-0.69,-0.65,0.19,-49.68,-14.14,26.64
23307,-7.96,-4.09,-1.78,-0.64,1.42,0.01,-49.46,-13.34,24.22
23317,-7.96,-4.09,-1.78,-0.64,1.42,0.01,-49.46,-13.34,24.22
23328,-8.91,-4.01,1.33,-1.00,0.40,0.02,-49.46,-13.34,24.22
23339,-8.91,-4.01,1.33,-1.00,0.40,0.02,-49.46,-13.34,24.22
23451,-9.66,-2.70,2.43,0.63,-0.33,0.08,-49.68,-15.10,24.39
23461,-9.66,-2.70,2.43,0.63,-0.33,0.08,-49.68,-15.10,24.39
23472,-9.30,-4.26,2.99,0.75,-0.09,0.08,-49.68,-15.10,24.39
23483,-8.72,-3.52,1.30,0.21,0.04,0.26,-49.68,-15.10,24.39
23592,-9.34,-3.26,2.11,0.12,-0.24,0.02,-48.59,-13.66,25.51
23602,-9.46,-2.60,2.21,0.30,0.01,-0.12,-48.59,-13.66,25.51
23613,-9.46,-2.60,2.21,0.30,0.01,-0.12,-48.59,-13.66,25.51
23624,-9.44,-2.84,2.85,0.49,0.18,-0.31,-48.59,-13.66,25.51
23635,-9.44,-2.84,2.85,0.49,0.18,-0.31,-48.59,-13.66,25.51
23786,-9.29,-4.73,1.69,-0.28,-0.61,-0.35,-48.38,-15.73,24.39
23796,-9.29,-4.73,1.69,-0.28,-0.61,-0.35,-48.38,-15.73,24.39
23807,-9.27,-4.72,3.03,0.15,-0.37,-0.14,-48.38,-15.73,24.39
23818,-9.27,-4.72,3.03,0.15,-0.37,-0.14,-48.38,-15.73,24.39
23932,-9.19,-3.43,0.62,-0.25,-0.18,0.17,-48.81,-13.82,25.67
23943,-9.52,-3.32,2.23,0.22,-0.10,0.06,-48.81,-13.82,25.67
23954,-9.52,-3.32,2.23,0.22,-0.10,0.06,-48.81,-13.82,25.67
23965,-9.29,-3.73,4.42,0.42,0.22,-0.00,-48.81,-13.82,25.67
24076,-9.28,-3.71,-0.19,-0.68,-0.83,0.31,-51.41,-13.50,23.42
24086,-9.17,-3.55,2.04,-0.42,-1.03,0.16,-51.41,-13.50,23.42
24097,-9.17,-3.55,2.04,-0.42,-1.03,0.16,-51.41,-13.50,23.42
24108,-7.77,-4.50,2.52,-0.38,-0.97,0.05,-51.41,-13.50,23.42
24219,-9.02,-3.58,0.45,-0.19,1.25,-0.30,-47.08,-14.46,25.67
24229,-9.04,-5.00,-0.76,-0.45,1.02,-0.11,-47.08,-14.46,25.67
24240,-9.04,-5.00,-0.76,-0.45,1.02,-0.11,-47.08,-14.46,25.67
24251,-8.81,-4.22,-2.16,-0.69,0.57,0.21,-47.08,-14.46,25.67
24363,-9.29,-2.22,2.67,0.60,-0.15,-0.16,-49.89,-15.26,23.26
24373,-9.29,-2.22,2.67,0.60,-0.15,-0.16,-49.89,-15.26,23.26
24384,-9.95,-3.25,5.43,0.56,0.27,-0.35,-49.89,-15.26,23.26
24395,-9.95,-3.25,5.43,0.56,0.27,-0.35,-49.89,-15.26,23.26
24406,-9.13,-3.68,2.21,0.00,0.93,-0.22,-49.89,-15.26,23.26
24518,-12.14,-2.17,1.71,-0.29,-1.40,0.37,-49.46,-13.98,24.22
24528,-7.18,-3.11,3.90,-0.18,-1.31,-0.03,-49.46,-13.98,24.22
24539,-7.18,-3.11,3.90,-0.18,-1.31,-0.03,-49.46,-13.98,24.22
24550,-5.43,-5.50,7.46,-0.30,-0.55,0.10,-48.81,-15.10,25.67
24664,-9.79,-1.22,3.65,0.32,-1.53,0.33,-48.81,-15.10,25.67
24674,-9.79,-1.22,3.65,0.32,-1.53,0.33,-48.81,-15.10,25.67
24685,-11.83,-1.30,5.12,0.49,-0.82,-0.27,-50.33,-14.94,24.22
24696,-11.83,-1.30,5.12,0.49,-0.82,-0.27,-50.33,-14.94,24.22
24844,-7.39,-8.50,2.58,1.93,-1.35,-0.42,-42.75,-18.60,28.56
24855,-7.39,-8.50,2.58,1.93,-1.35,-0.42,-42.75,-18.60,28.56
24866,-5.82,-7.19,3.79,3.57,-1.76,1.13,-42.75,-18.60,28.56
24877,-5.82,-7.19,3.79,3.57,-1.76,1.13,-42.75,-18.60,28.56
25028,-3.72,9.81,2.03,1.75,5.15,6.32,-35.82,-2.02,34.35
25038,-3.72,9.81,2.03,1.75,5.15,6.32,-35.82,-2.02,34.35
25049,-5.22,9.51,1.76,1.13,5.60,5.15,-25.64,30.03,18.44
25060,-5.22,9.51,1.76,1.13,5.60,5.15,-25.64,30.03,18.44
25071,-4.90,9.31,2.06,0.27,5.54,4.47,-25.64,30.03,18.44
25182,-4.10,7.87,-3.61,-1.28,3.53,3.51,-25.64,30.03,18.44
25193,-4.11,8.52,-4.49,-1.69,2.33,3.68,-14.59,29.87,16.03
25204,-3.53,10.41,-5.15,-1.95,0.89,3.77,-14.59,29.87,16.03
25215,-3.53,10.41,-5.15,-1.95,0.89,3.77,-14.59,29.87,16.03
25327,-0.95,13.80,0.68,1.15,-0.48,0.46,3.38,32.26,14.58
25337,-0.95,13.80,0.68,1.15,-0.48,0.46,3.38,32.26,14.58
25348,0.26,12.19,0.92,1.20,0.47,-0.23,3.38,32.26,14.58
25359,0.26,12.19,0.92,1.20,0.47,-0.23,3.38,32.26,14.58
25470,0.82,7.32,-3.50,3.05,1.83,-3.14,-6.80,35.29,5.42
25481,0.82,7.32,-3.50,3.05,1.83,-3.14,-6.80,35.29,5.42
25492,0.66,6.72,-2.92,3.51,2.20,-3.12,-6.80,35.29,5.42
25503,0.66,6.72,-2.92,3.51,2.20,-3.12,-6.80,35.29,5.42
25514,0.58,5.46,-2.82,3.80,2.61,-3.06,-6.80,35.29,5.42
25627,-1.65,10.33,-8.40,-0.05,3.03,-0.02,-23.26,32.74,-13.23
25638,-1.65,10.33,-8.40,-0.05,3.03,-0.02,-23.26,32.74,-13.23
25649,-1.47,10.48,-8.23,1.18,2.61,-0.83,-23.26,32.74,-13.23
25660,-1.47,10.48,-8.23,1.18,2.61,-0.83,-23.26,32.74,-13.23
25776,-0.69,3.83,-10.06,0.25,0.56,-0.19,-21.96,26.68,-22.23
25786,-0.71,4.63,-8.31,0.31,0.69,-0.04,-21.96,26.68,-22.23
25797,-0.71,4.63,-8.31,0.31,0.69,-0.04,-21.96,26.68,-22.23
25808,-0.40,5.11,-8.15,0.03,1.01,-0.04,-21.74,24.29,-26.57
25922,0.43,5.67,-7.35,-0.20,-0.05,-0.02,-21.74,24.29,-26.57
25932,-0.22,5.34,-6.54,-0.74,0.11,0.10,-21.74,24.29,-26.57
25943,-0.22,5.34,-6.54,-0.74,0.11,0.10,-21.74,24.29,-26.57
25954,-0.19,9.28,-13.72,-1.37,0.57,0.19,-18.49,25.41,-24.16
25965,-2.85,6.29,-9.39,-0.06,0.36,-0.40,-18.49,25.41,-24.16
26078,1.38,5.50,-8.44,-0.17,0.37,-0.91,-19.57,24.61,-24.32
26088,-0.09,5.59,-8.21,-0.20,0.34,-0.93,-19.57,24.61,-24.32
26099,-0.09,5.59,-8.21,-0.20,0.34,-0.93,-19.57,24.61,-24.32
26110,0.40,5.63,-8.09,-0.32,0.21,-0.96,-19.57,24.61,-24.32
26260,0.13,6.11,-8.27,-0.06,0.66,-1.06,-22.82,24.45,-23.51
26270,-0.21,5.93,-8.45,-0.29,0.49,-1.05,-22.82,24.45,-23.51
26281,-0.21,5.93,-8.45,-0.29,0.49,-1.05,-22.82,24.45,-23.51
26292,-0.79,6.09,-8.22,-0.68,0.33,-0.99,-22.82,24.45,-23.51
26440,-0.40,6.15,-8.35,1.03,0.98,-0.39,-26.72,22.22,-24.48
26450,0.17,6.53,-8.07,0.15,0.64,-0.61,-26.50,19.83,-25.93
26461,0.17,6.53,-8.07,0.15,0.64,-0.61,-26.50,19.83,-25.93
26472,-0.57,6.50,-7.92,-0.10,0.50,-0.73,-26.50,19.83,-25.93
26584,-1.31,6.21,-8.12,-0.07,0.76,-0.97,-26.94,19.19,-27.53
26594,-0.64,6.34,-8.04,-0.03,0.78,-0.95,-26.94,19.19,-27.53
26605,-0.43,6.29,-8.11,-0.02,0.72,-0.87,-26.94,19.19,-27.53
26616,-0.43,6.29,-8.11,-0.02,0.72,-0.87,-26.94,19.19,-27.53
26627,-0.34,6.25,-8.09,-0.03,0.64,-0.80,-26.94,19.19,-27.53
26739,-0.62,6.27,-8.10,-0.02,0.73,-0.88,-27.80,17.59,-27.85
26749,-0.39,6.26,-8.11,-0.04,0.68,-0.85,-27.80,17.59,-27.85
26760,-0.39,6.26,-8.11,-0.04,0.68,-0.85,-27.80,17.59,-27.85
26771,-0.27,6.28,-8.09,-0.02,0.64,-0.78,-27.80,17.59,-27.85
26885,-0.51,6.32,-8.07,0.01,0.06,-0.07,-26.07,16.00,-30.11
26895,-0.51,6.32,-8.07,0.01,0.06,-0.07,-26.07,16.00,-30.11
26906,-0.51,6.35,-8.04,-0.00,0.00,-0.01,-26.07,16.00,-30.11
26917,-0.51,6.35,-8.04,-0.00,0.00,-0.01,-26.07,16.00,-30.11
27029,-0.47,6.34,-8.03,-0.00,0.00,-0.01,-28.24,16.00,-30.75
27039,-0.47,6.34,-8.03,-0.00,0.00,-0.01,-28.24,16.00,-30.75
27050,-0.46,6.33,-8.05,-0.00,0.00,-0.01,-28.24,16.00,-30.75
27061,-0.46,6.33,-8.05,-0.00,0.00,-0.01,-28.24,16.00,-30.75
27173,-0.32,6.67,-7.93,-0.01,-0.00,-0.01,-24.99,16.80,-29.62
27183,-0.32,6.67,-7.93,-0.01,-0.00,-0.01,-24.99,16.80,-29.62
27194,-0.82,6.63,-7.96,0.04,-0.38,0.47,-24.99,16.80,-29.62
27205,-0.55,4.95,-9.23,0.03,-1.01,1.23,-26.94,16.00,-30.75
27356,-0.08,6.62,-7.57,0.11,-0.85,1.08,-28.45,18.39,-27.37
27366,-1.72,7.08,-7.54,0.07,-0.75,0.94,-28.45,18.39,-27.37
27377,-1.72,7.08,-7.54,0.07,-0.75,0.94,-28.45,18.39,-27.37
27388,-1.52,7.43,-7.13,0.02,-0.51,0.63,-28.45,18.39,-27.37
27399,-1.52,7.43,-7.13,0.02,-0.51,0.63,-28.45,18.39,-27.37
27512,-0.47,6.37,-8.03,0.01,0.01,-0.00,-29.10,19.19,-26.57
27522,-0.47,6.37,-8.03,0.01,0.01,-0.00,-29.10,19.19,-26.57
27533,-0.47,6.36,-8.01,-0.00,0.00,-0.01,-29.10,19.19,-26.57
27544,-0.47,6.36,-8.01,-0.00,0.00,-0.01,-29.10,19.19,-26.57
27656,-0.49,6.35,-8.04,0.00,0.00,-0.01,-26.94,18.55,-27.21
27666,-0.50,6.36,-8.01,-0.00,0.00,-0.01,-26.94,18.55,-27.21
27677,-0.50,6.36,-8.01,-0.00,0.00,-0.01,-26.94,18.55,-27.21
27688,-0.48,6.37,-8.04,-0.00,0.00,-0.01,-26.94,18.55,-27.21
27800,-0.49,6.38,-8.03,0.00,0.00,-0.01,-28.24,19.51,-27.53
27810,-0.47,6.36,-8.03,0.00,0.00,-0.00,-28.24,19.51,-27.53
27821,-0.47,6.36,-8.03,0.00,0.00,-0.00,-28.24,19.51,-27.53
27832,-0.22,5.80,-8.60,0.06,0.02,0.02,-27.37,20.14,-26.57
27941,0.91,6.02,-8.36,0.04,0.11,-0.00,-27.37,20.14,-26.57
27951,-2.05,6.49,-7.87,-0.00,-0.03,0.07,-27.80,19.83,-27.53
27962,-2.05,6.49,-7.87,-0.00,-0.03,0.07,-27.80,19.83,-27.53
27973,-0.48,6.35,-8.08,-0.01,0.09,0.14,-27.80,19.83,-27.53
27984,-0.48,6.35,-8.08,-0.01,0.09,0.14,-27.80,19.83,-27.53
28096,-0.25,6.42,-7.99,0.02,0.02,-0.10,-26.50,20.14,-27.53
28106,-0.46,6.55,-8.04,-0.01,-0.06,0.12,-26.50,20.14,-27.53
28117,-0.46,6.55,-8.04,-0.01,-0.06,0.12,-26.50,20.14,-27.53
28128,-0.37,6.41,-8.05,-0.02,0.02,0.09,-26.50,20.14,-27.53
28242,-0.29,6.46,-7.98,0.00,-0.04,0.06,-27.59,18.71,-26.41
28252,-0.23,6.26,-8.14,-0.00,-0.08,0.10,-27.59,18.71,-26.41
28263,-0.23,6.26,-8.14,-0.00,-0.08,0.10,-27.59,18.71,-26.41
28274,-0.19,6.37,-8.05,0.00,-0.03,0.03,-27.59,18.71,-26.41
28386,-0.23,6.35,-8.02,0.00,0.06,-0.07,-25.64,18.55,-27.85
28396,-0.23,6.38,-8.02,-0.00,0.01,-0.01,-25.64,18.55,-27.85
28407,-0.26,6.35,-8.03,0.00,0.01,-0.01,-25.64,18.55,-27.85
28418,-0.26,6.35,-8.03,0.00,0.01,-0.01,-25.64,18.55,-27.85
28530,-0.24,6.33,-8.08,0.03,0.02,-0.03,-28.02,18.39,-27.37
28540,-0.24,6.33,-8.08,0.03,0.02,-0.03,-28.02,18.39,-27.37
28551,0.25,6.10,-8.27,0.01,-0.01,0.00,-28.02,18.39,-27.37
28562,0.25,6.10,-8.27,0.01,-0.01,0.00,-28.02,18.39,-27.37
28573,-0.38,6.40,-8.05,0.06,-0.06,0.07,-28.02,18.39,-27.37
