time,ax,ay,az,gx,gy,gz,mx,my,mz
401,-0.52,6.33,-8.06,0.00,0.00,-0.01,-16.72,28.77,-24.69
411,-0.52,6.33,-8.06,0.00,0.00,-0.01,-16.72,28.77,-24.69
422,-2.56,6.65,-7.77,0.04,0.10,-0.05,-16.72,28.77,-24.69
433,-2.08,6.48,-8.07,0.02,0.33,-0.36,-16.72,28.77,-24.69
444,-2.08,6.48,-8.07,0.02,0.33,-0.36,-16.72,28.77,-24.69
455,0.58,6.70,-7.87,-0.01,0.48,-0.63,-16.72,28.77,-24.69
466,0.58,6.70,-7.87,-0.01,0.48,-0.63,-16.72,28.77,-24.69
477,1.50,6.15,-8.30,0.04,0.56,-0.68,-18.65,26.05,-26.56
488,1.50,6.15,-8.30,0.04,0.56,-0.68,-18.65,26.05,-26.56
499,0.13,6.12,-8.29,-0.09,0.24,-0.44,-18.65,26.05,-26.56
510,0.13,6.12,-8.29,-0.09,0.24,-0.44,-18.65,26.05,-26.56
521,-0.35,6.23,-8.21,0.03,0.01,-0.03,-18.65,26.05,-26.56
532,-0.54,6.47,-8.06,0.01,-0.02,0.04,-18.65,26.05,-26.56
543,-0.54,6.47,-8.06,0.01,-0.02,0.04,-18.65,26.05,-26.56
554,-0.52,6.40,-8.04,0.00,-0.01,-0.01,-18.65,26.05,-26.56
565,-0.52,6.40,-8.04,0.00,-0.01,-0.01,-18.65,26.05,-26.56
576,-0.42,6.31,-8.16,0.04,0.01,-0.00,-18.65,26.05,-26.56
587,-0.42,6.31,-8.16,0.04,0.01,-0.00,-18.65,26.05,-26.56
598,-0.49,6.36,-8.08,-0.01,-0.01,-0.02,-18.47,27.68,-25.03
609,-0.49,6.36,-8.08,-0.01,-0.01,-0.02,-18.47,27.68,-25.03
620,-0.46,6.34,-8.10,0.01,0.00,-0.01,-18.47,27.68,-25.03
631,-0.46,6.34,-8.10,0.01,0.00,-0.01,-18.47,27.68,-25.03
642,-0.47,6.34,-8.10,0.00,-0.00,-0.01,-18.47,27.68,-25.03
653,-0.46,6.36,-8.11,0.00,-0.00,-0.01,-18.47,27.68,-25.03
664,-0.46,6.36,-8.11,0.00,-0.00,-0.01,-18.47,27.68,-25.03
675,-0.47,6.33,-8.10,0.00,0.00,-0.01,-18.47,27.68,-25.03
686,-0.47,6.33,-8.10,0.00,0.00,-0.01,-18.47,27.68,-25.03
697,-0.48,6.36,-8.14,-0.00,0.00,-0.01,-18.47,27.68,-25.03
712,-0.48,6.36,-8.14,-0.00,0.00,-0.01,-18.47,27.68,-25.03
719,-0.48,6.36,-8.12,0.01,0.00,-0.01,-17.94,27.14,-25.88
730,-0.48,6.36,-8.12,0.01,0.00,-0.01,-17.94,27.14,-25.88
741,-0.48,6.35,-8.12,0.00,-0.00,-0.01,-17.94,27.14,-25.88
752,-0.48,6.35,-8.12,0.00,-0.00,-0.01,-17.94,27.14,-25.88
763,-0.46,6.35,-8.12,0.01,0.00,-0.01,-17.94,27.14,-25.88
774,-0.45,6.32,-8.13,0.01,-0.00,-0.01,-17.94,27.14,-25.88
785,-0.45,6.32,-8.13,0.01,-0.00,-0.01,-17.94,27.14,-25.88
796,-0.50,6.34,-8.12,0.00,0.00,-0.01,-17.94,27.14,-25.88
807,-0.50,6.34,-8.12,0.00,0.00,-0.01,-17.94,27.14,-25.88
818,-0.48,6.36,-8.10,0.00,-0.00,-0.01,-17.94,27.14,-25.88
829,-0.48,6.36,-8.10,0.00,-0.00,-0.01,-17.94,27.14,-25.88
840,-0.47,6.33,-8.10,0.00,0.00,-0.01,-17.94,27.14,-25.88
851,-0.47,6.33,-8.10,0.00,0.00,-0.01,-17.94,27.14,-25.88
862,-0.47,6.33,-8.14,0.00,0.00,-0.01,-17.07,27.68,-26.05
873,-0.45,6.32,-8.09,0.00,0.00,-0.01,-17.07,27.68,-26.05
884,-0.45,6.32,-8.09,0.00,0.00,-0.01,-17.07,27.68,-26.05
895,-0.45,6.34,-8.12,0.00,-0.00,-0.01,-17.07,27.68,-26.05
906,-0.45,6.34,-8.12,0.00,-0.00,-0.01,-17.07,27.68,-26.05
917,-0.47,6.34,-8.15,0.00,0.00,-0.01,-17.07,27.68,-26.05
928,-0.47,6.34,-8.15,0.00,0.00,-0.01,-17.07,27.68,-26.05
939,-0.48,6.35,-8.13,0.00,0.00,-0.01,-17.07,27.68,-26.05
950,-0.48,6.35,-8.13,0.00,0.00,-0.01,-17.07,27.68,-26.05
961,-0.48,6.35,-8.12,0.00,0.00,-0.01,-17.07,27.68,-26.05
972,-0.48,6.35,-8.12,0.00,0.00,-0.01,-17.07,27.68,-26.05
983,-0.47,6.33,-8.14,0.00,0.00,-0.01,-18.12,28.41,-26.05
994,-0.46,6.35,-8.12,0.00,0.00,-0.01,-18.12,28.41,-26.05
1005,-0.46,6.35,-8.12,0.00,0.00,-0.01,-18.12,28.41,-26.05
1016,-0.47,6.35,-8.11,0.00,-0.00,-0.01,-18.12,28.41,-26.05
1027,-0.47,6.35,-8.11,0.00,-0.00,-0.01,-18.12,28.41,-26.05
1038,-0.48,6.35,-8.11,0.00,0.00,-0.01,-18.12,28.41,-26.05
1049,-0.48,6.35,-8.11,0.00,0.00,-0.01,-18.12,28.41,-26.05
1060,-0.48,6.33,-8.12,0.00,0.00,-0.01,-18.12,28.41,-26.05
1071,-0.48,6.33,-8.12,0.00,0.00,-0.01,-18.12,28.41,-26.05
1082,-0.46,6.34,-8.12,0.00,0.00,-0.01,-18.12,28.41,-26.05
1093,-0.46,6.34,-8.11,0.00,0.00,-0.01,-17.94,26.41,-25.54
1104,-0.46,6.34,-8.11,0.00,0.00,-0.01,-17.94,26.41,-25.54
1115,-0.46,6.36,-8.13,0.00,0.00,-0.01,-17.94,26.41,-25.54
1126,-0.46,6.36,-8.13,0.00,0.00,-0.01,-17.94,26.41,-25.54
1137,-0.47,6.34,-8.10,0.00,0.00,-0.01,-17.94,26.41,-25.54
1148,-0.47,6.34,-8.10,0.00,0.00,-0.01,-17.94,26.41,-25.54
1159,-0.47,6.34,-8.15,0.00,-0.00,-0.01,-17.94,26.41,-25.54
1170,-0.47,6.34,-8.15,0.00,-0.00,-0.01,-17.94,26.41,-25.54
1181,-0.47,6.34,-8.13,0.00,-0.00,-0.01,-17.94,26.41,-25.54
1192,-0.47,6.34,-8.13,0.00,-0.00,-0.01,-17.94,26.41,-25.54
1203,-0.45,6.36,-8.13,0.00,0.00,-0.01,-17.94,26.41,-25.54
1215,-0.47,6.37,-8.12,0.00,-0.00,-0.01,-17.94,26.41,-25.54
1225,-0.47,6.37,-8.12,0.00,-0.00,-0.01,-17.94,26.41,-25.54
1236,-0.47,6.34,-8.13,0.00,0.00,-0.01,-16.54,27.14,-27.24
1247,-0.47,6.34,-8.13,0.00,0.00,-0.01,-16.54,27.14,-27.24
1258,-0.48,6.33,-8.14,0.00,0.00,-0.01,-16.54,27.14,-27.24
1269,-0.48,6.33,-8.14,0.00,0.00,-0.01,-16.54,27.14,-27.24
1280,-0.46,6.34,-8.13,0.00,0.00,-0.01,-16.54,27.14,-27.24
1291,-0.46,6.34,-8.13,0.00,0.00,-0.01,-16.54,27.14,-27.24
1302,-0.45,6.35,-8.09,0.00,-0.00,-0.01,-16.54,27.14,-27.24
1313,-0.46,6.36,-8.11,0.00,0.00,-0.01,-16.54,27.14,-27.24
1324,-0.46,6.36,-8.11,0.00,0.00,-0.01,-16.54,27.14,-27.24
1335,-0.48,6.34,-8.12,0.00,0.00,-0.01,-16.54,27.14,-27.24
1346,-0.48,6.34,-8.12,0.00,0.00,-0.01,-16.54,27.14,-27.24
1357,-0.48,6.33,-8.16,0.00,0.00,-0.01,-17.24,26.77,-27.24
1368,-0.48,6.33,-8.16,0.00,0.00,-0.01,-17.24,26.77,-27.24
1379,-0.48,6.35,-8.13,0.00,0.00,-0.01,-17.24,26.77,-27.24
1390,-0.48,6.35,-8.13,0.00,0.00,-0.01,-17.24,26.77,-27.24
1401,-0.46,6.36,-8.12,0.00,0.00,-0.01,-17.24,26.77,-27.24
1412,-0.46,6.36,-8.12,0.00,0.00,-0.01,-17.24,26.77,-27.24
1423,-0.47,6.34,-8.12,0.00,0.00,-0.01,-17.24,26.77,-27.24
1434,-0.47,6.34,-8.13,0.00,0.00,-0.01,-17.24,26.77,-27.24
1445,-0.47,6.34,-8.13,0.00,0.00,-0.01,-17.24,26.77,-27.24
1456,-0.47,6.33,-8.13,0.00,0.00,-0.01,-17.24,26.77,-27.24
1467,-0.47,6.33,-8.13,0.00,0.00,-0.01,-17.24,26.77,-27.24
1478,-0.45,6.36,-8.13,0.00,0.00,-0.01,-18.12,25.87,-26.73
1489,-0.45,6.36,-8.13,0.00,0.00,-0.01,-18.12,25.87,-26.73
1500,-0.46,6.35,-8.11,0.00,0.00,-0.01,-18.12,25.87,-26.73
1511,-0.46,6.35,-8.11,0.00,0.00,-0.01,-18.12,25.87,-26.73
1522,-0.48,6.35,-8.10,0.00,0.00,-0.01,-18.12,25.87,-26.73
1533,-0.48,6.34,-8.09,0.00,0.00,-0.01,-18.12,25.87,-26.73
1544,-0.48,6.34,-8.09,0.00,0.00,-0.01,-18.12,25.87,-26.73
1555,-0.46,6.33,-8.10,0.00,0.00,-0.01,-18.12,25.87,-26.73
1566,-0.46,6.33,-8.10,0.00,0.00,-0.01,-18.12,25.87,-26.73
1577,-0.47,6.35,-8.12,0.00,0.00,-0.01,-18.12,25.87,-26.73
1588,-0.47,6.35,-8.12,0.00,0.00,-0.01,-18.12,25.87,-26.73
1599,-0.47,6.36,-8.12,0.00,0.00,-0.01,-17.59,26.77,-25.88
1610,-0.47,6.36,-8.12,0.00,0.00,-0.01,-17.59,26.77,-25.88
1621,-0.46,6.35,-8.11,0.00,0.00,-0.01,-17.59,26.77,-25.88
1632,-0.46,6.35,-8.11,0.00,0.00,-0.01,-17.59,26.77,-25.88
1644,-0.47,6.34,-8.12,0.00,0.00,-0.01,-17.59,26.77,-25.88
1654,-0.48,6.35,-8.11,0.00,0.00,-0.01,-17.59,26.77,-25.88
1665,-0.48,6.35,-8.11,0.00,0.00,-0.01,-17.59,26.77,-25.88
1676,-0.48,6.34,-8.14,0.00,0.00,-0.01,-17.59,26.77,-25.88
1687,-0.48,6.34,-8.14,0.00,0.00,-0.01,-17.59,26.77,-25.88
1698,-0.48,6.35,-8.11,0.00,-0.00,-0.01,-17.59,26.77,-25.88
1709,-0.48,6.35,-8.11,0.00,-0.00,-0.01,-17.59,26.77,-25.88
1720,-0.47,6.34,-8.13,0.00,0.00,-0.01,-17.59,26.77,-25.88
1731,-0.47,6.34,-8.13,0.00,0.00,-0.01,-17.59,26.77,-25.88
1742,-0.46,6.34,-8.13,0.00,0.00,-0.01,-18.30,26.05,-25.54
1753,-0.46,6.34,-8.12,0.00,-0.00,-0.01,-18.30,26.05,-25.54
1764,-0.46,6.34,-8.12,0.00,-0.00,-0.01,-18.30,26.05,-25.54
1775,-0.48,6.34,-8.11,0.00,0.00,-0.01,-18.30,26.05,-25.54
1786,-0.48,6.34,-8.11,0.00,0.00,-0.01,-18.30,26.05,-25.54
1797,-0.47,6.34,-8.12,0.00,0.00,-0.01,-18.30,26.05,-25.54
1808,-0.47,6.34,-8.12,0.00,0.00,-0.01,-18.30,26.05,-25.54
1819,-0.48,6.35,-8.09,0.00,0.00,-0.01,-18.30,26.05,-25.54
1830,-0.48,6.35,-8.09,0.00,0.00,-0.01,-18.30,26.05,-25.54
1841,-0.47,6.33,-8.11,0.00,0.00,-0.01,-18.30,26.05,-25.54
1852,-0.47,6.33,-8.11,0.00,0.00,-0.01,-18.30,26.05,-25.54
1863,-0.48,6.32,-8.15,0.00,0.00,-0.01,-18.65,26.05,-26.22
1874,-0.46,6.34,-8.12,0.00,0.00,-0.01,-18.65,26.05,-26.22
1885,-0.46,6.34,-8.12,0.00,0.00,-0.01,-18.65,26.05,-26.22
1896,-0.48,6.34,-8.10,0.00,0.00,-0.01,-18.65,26.05,-26.22
1907,-0.48,6.34,-8.10,0.00,0.00,-0.01,-18.65,26.05,-26.22
1918,-0.47,6.35,-8.11,0.00,0.00,-0.01,-18.65,26.05,-26.22
1929,-0.47,6.35,-8.11,0.00,0.00,-0.01,-18.65,26.05,-26.22
1940,-0.47,6.34,-8.11,0.00,0.00,-0.01,-18.65,26.05,-26.22
1951,-0.47,6.34,-8.11,0.00,0.00,-0.01,-18.65,26.05,-26.22
1962,-0.46,6.33,-8.13,0.00,0.00,-0.01,-18.65,26.05,-26.22
1973,-0.46,6.33,-8.13,0.00,0.00,-0.01,-18.65,26.05,-26.22
1984,-0.47,6.34,-8.12,0.00,-0.00,-0.01,-17.24,27.86,-27.58
1995,-0.49,6.35,-8.13,0.00,-0.00,-0.01,-17.24,27.86,-27.58
2006,-0.49,6.35,-8.13,0.00,-0.00,-0.01,-17.24,27.86,-27.58
2017,-0.48,6.34,-8.14,0.00,0.00,-0.01,-17.24,27.86,-27.58
2028,-0.48,6.34,-8.14,0.00,0.00,-0.01,-17.24,27.86,-27.58
2039,-0.48,6.32,-8.14,0.00,0.00,-0.01,-17.24,27.86,-27.58
2050,-0.48,6.32,-8.14,0.00,0.00,-0.01,-17.24,27.86,-27.58
2061,-0.46,6.34,-8.11,0.00,0.00,-0.01,-17.24,27.86,-27.58
2072,-0.46,6.34,-8.11,0.00,0.00,-0.01,-17.24,27.86,-27.58
2083,-0.46,6.34,-8.11,0.00,0.00,-0.01,-17.24,27.86,-27.58
2094,-0.47,6.34,-8.10,0.00,0.00,-0.01,-17.24,27.86,-27.58
2105,-0.47,6.34,-8.10,0.00,0.00,-0.01,-17.24,27.86,-27.58
2116,-0.47,6.36,-8.13,0.00,0.00,-0.01,-17.94,27.14,-26.56
2127,-0.47,6.36,-8.13,0.00,0.00,-0.01,-17.94,27.14,-26.56
2138,-0.46,6.34,-8.13,0.00,0.00,-0.01,-17.94,27.14,-26.56
2149,-0.46,6.34,-8.13,0.00,0.00,-0.01,-17.94,27.14,-26.56
2160,-0.46,6.33,-8.12,0.00,0.00,-0.01,-17.94,27.14,-26.56
2171,-0.46,6.33,-8.12,0.00,0.00,-0.01,-17.94,27.14,-26.56
2182,-0.46,6.34,-8.12,0.00,-0.00,-0.01,-17.94,27.14,-26.56
2193,-0.46,6.34,-8.12,0.00,-0.00,-0.01,-17.94,27.14,-26.56
2204,-0.47,6.34,-8.12,0.00,0.00,-0.01,-17.94,27.14,-26.56
2215,-0.46,6.34,-8.11,0.00,0.00,-0.01,-17.94,27.14,-26.56
2226,-0.46,6.34,-8.11,0.00,0.00,-0.01,-17.94,27.14,-26.56
2237,-0.47,6.33,-8.14,0.00,-0.00,-0.01,-16.36,25.51,-27.07
2248,-0.47,6.33,-8.14,0.00,-0.00,-0.01,-16.36,25.51,-27.07
2259,-0.48,6.33,-8.11,0.00,0.00,-0.01,-16.36,25.51,-27.07
2270,-0.48,6.33,-8.11,0.00,0.00,-0.01,-16.36,25.51,-27.07
2281,-0.47,6.34,-8.12,0.00,0.00,-0.01,-16.36,25.51,-27.07
2292,-0.47,6.34,-8.12,0.00,0.00,-0.01,-16.36,25.51,-27.07
2303,-0.47,6.34,-8.12,0.00,-0.00,-0.01,-16.36,25.51,-27.07
2314,-0.46,6.34,-8.13,0.00,-0.00,-0.01,-16.36,25.51,-27.07
2325,-0.46,6.34,-8.13,0.00,-0.00,-0.01,-16.36,25.51,-27.07
2336,-0.46,6.33,-8.12,0.00,0.00,-0.01,-16.36,25.51,-27.07
2347,-0.46,6.33,-8.12,0.00,0.00,-0.01,-16.36,25.51,-27.07
2359,-0.47,6.34,-8.13,0.00,0.00,-0.01,-17.94,27.50,-25.88
2369,-0.47,6.34,-8.13,0.00,0.00,-0.01,-17.94,27.50,-25.88
2380,-0.47,6.35,-8.13,0.00,-0.00,-0.01,-17.94,27.50,-25.88
2391,-0.47,6.35,-8.13,0.00,-0.00,-0.01,-17.94,27.50,-25.88
2402,-0.48,6.35,-8.11,0.00,0.00,-0.01,-17.94,27.50,-25.88
2413,-0.48,6.35,-8.11,0.00,0.00,-0.01,-17.94,27.50,-25.88
2424,-0.46,6.34,-8.10,0.00,0.00,-0.01,-17.94,27.50,-25.88
2435,-0.47,6.34,-8.11,0.00,-0.00,-0.01,-17.94,27.50,-25.88
2446,-0.47,6.34,-8.11,0.00,-0.00,-0.01,-17.94,27.50,-25.88
2457,-0.46,6.34,-8.12,0.00,0.00,-0.01,-17.94,27.50,-25.88
2468,-0.46,6.34,-8.12,0.00,0.00,-0.01,-17.94,27.50,-25.88
2479,-0.47,6.35,-8.12,0.00,-0.00,-0.01,-17.94,27.50,-25.88
2490,-0.47,6.35,-8.12,0.00,-0.00,-0.01,-17.94,27.50,-25.88
2501,-0.48,6.35,-8.11,0.00,0.00,-0.01,-17.94,27.50,-25.88
2512,-0.48,6.35,-8.11,0.00,0.00,-0.01,-17.94,27.50,-25.88
2523,-0.47,6.34,-8.13,0.00,0.00,-0.01,-17.94,27.50,-25.88
2534,-0.47,6.33,-8.09,0.00,0.00,-0.01,-17.94,27.50,-25.88
2545,-0.47,6.33,-8.09,0.00,0.00,-0.01,-17.94,27.50,-25.88
2556,-0.48,6.33,-8.11,0.00,0.00,-0.01,-17.94,27.50,-25.88
2567,-0.48,6.33,-8.11,0.00,0.00,-0.01,-17.94,27.50,-25.88
2578,-0.48,6.35,-8.11,0.00,0.00,-0.01,-17.94,27.50,-25.88
2589,-0.48,6.35,-8.11,0.00,0.00,-0.01,-17.94,27.50,-25.88
2600,-0.47,6.36,-8.10,0.00,0.00,-0.01,-17.94,27.50,-25.88
2611,-0.47,6.36,-8.10,0.00,0.00,-0.01,-17.94,27.50,-25.88
2622,-0.46,6.33,-8.12,0.00,0.00,-0.01,-17.42,26.59,-26.73
2633,-0.46,6.33,-8.12,0.00,0.00,-0.01,-17.42,26.59,-26.73
2644,-0.47,6.34,-8.11,0.00,0.00,-0.01,-17.42,26.59,-26.73
2655,-0.46,6.34,-8.13,0.00,0.00,-0.01,-17.42,26.59,-26.73
2666,-0.46,6.34,-8.13,0.00,0.00,-0.01,-17.42,26.59,-26.73
2677,-0.47,6.33,-8.13,0.00,0.00,-0.01,-17.42,26.59,-26.73
2688,-0.47,6.33,-8.13,0.00,0.00,-0.01,-17.42,26.59,-26.73
2699,-0.47,6.33,-8.09,0.00,0.00,-0.01,-17.42,26.59,-26.73
2710,-0.47,6.33,-8.09,0.00,0.00,-0.01,-17.42,26.59,-26.73
2721,-0.46,6.34,-8.12,0.00,0.00,-0.01,-17.42,26.59,-26.73
2732,-0.46,6.34,-8.12,0.00,0.00,-0.01,-17.42,26.59,-26.73
2743,-0.47,6.35,-8.14,0.00,-0.00,-0.01,-17.24,27.14,-26.22
2754,-0.47,6.33,-8.13,0.00,0.00,-0.01,-17.24,27.14,-26.22
2765,-0.47,6.33,-8.13,0.00,0.00,-0.01,-17.24,27.14,-26.22
2776,-0.46,6.34,-8.12,0.00,-0.00,-0.01,-17.24,27.14,-26.22
2787,-0.46,6.34,-8.12,0.00,-0.00,-0.01,-17.24,27.14,-26.22
2798,-0.47,6.34,-8.13,0.00,0.00,-0.01,-17.24,27.14,-26.22
2809,-0.47,6.34,-8.13,0.00,0.00,-0.01,-17.24,27.14,-26.22
2820,-0.47,6.34,-8.12,0.00,0.00,-0.01,-17.24,27.14,-26.22
2831,-0.47,6.34,-8.12,0.00,0.00,-0.01,-17.24,27.14,-26.22
2842,-0.47,6.32,-8.12,0.00,0.00,-0.01,-17.24,27.14,-26.22
2858,-0.47,6.32,-8.12,0.00,0.00,-0.01,-17.24,27.14,-26.22
2864,-0.47,6.35,-8.14,0.00,0.00,-0.01,-17.42,26.59,-26.39
2875,-0.48,6.34,-8.13,0.00,0.00,-0.01,-17.42,26.59,-26.39
2886,-0.48,6.34,-8.13,0.00,0.00,-0.01,-17.42,26.59,-26.39
2897,-0.46,6.35,-8.13,0.00,0.00,-0.01,-17.42,26.59,-26.39
2908,-0.46,6.35,-8.13,0.00,0.00,-0.01,-17.42,26.59,-26.39
2919,-0.46,6.34,-8.12,0.00,0.00,-0.01,-17.42,26.59,-26.39
2930,-0.46,6.34,-8.12,0.00,0.00,-0.01,-17.42,26.59,-26.39
2941,-0.47,6.34,-8.12,0.00,0.00,-0.01,-17.42,26.59,-26.39
2952,-0.47,6.34,-8.12,0.00,0.00,-0.01,-17.42,26.59,-26.39
2963,-0.48,6.35,-8.10,0.00,0.00,-0.01,-17.42,26.59,-26.39
2974,-0.48,6.35,-8.10,0.00,0.00,-0.01,-17.42,26.59,-26.39
2985,-0.46,6.33,-8.11,0.00,-0.00,-0.01,-17.42,26.59,-26.39
3001,-0.46,6.33,-8.13,0.00,-0.00,-0.01,-16.89,27.14,-24.86
3007,-0.46,6.33,-8.13,0.00,-0.00,-0.01,-16.89,27.14,-24.86
3018,-0.48,6.33,-8.12,0.00,0.00,-0.01,-16.89,27.14,-24.86
3029,-0.48,6.33,-8.12,0.00,0.00,-0.01,-16.89,27.14,-24.86
3040,-0.47,6.34,-8.10,0.00,0.00,-0.01,-16.89,27.14,-24.86
3052,-0.47,6.34,-8.10,0.00,0.00,-0.01,-16.89,27.14,-24.86
3062,-0.48,6.34,-8.11,0.00,0.00,-0.01,-16.89,27.14,-24.86
3073,-0.48,6.34,-8.11,0.00,0.00,-0.01,-16.89,27.14,-24.86
3084,-0.45,6.33,-8.14,0.00,-0.00,-0.01,-16.89,27.14,-24.86
3095,-0.46,6.32,-8.11,0.00,-0.00,-0.01,-16.89,27.14,-24.86
3106,-0.46,6.32,-8.11,0.00,-0.00,-0.01,-16.89,27.14,-24.86
3117,-0.46,6.34,-8.14,0.00,0.00,-0.01,-18.47,25.87,-25.71
3128,-0.46,6.34,-8.14,0.00,0.00,-0.01,-18.47,25.87,-25.71
3139,-0.47,6.33,-8.14,0.00,0.00,-0.01,-18.47,25.87,-25.71
3150,-0.47,6.33,-8.14,0.00,0.00,-0.01,-18.47,25.87,-25.71
3161,-0.48,6.34,-8.12,0.00,-0.00,-0.01,-18.47,25.87,-25.71
3172,-0.48,6.34,-8.12,0.00,-0.00,-0.01,-18.47,25.87,-25.71
3183,-0.47,6.34,-8.11,0.00,-0.00,-0.01,-18.47,25.87,-25.71
3194,-0.47,6.34,-8.11,0.00,-0.00,-0.01,-18.47,25.87,-25.71
3205,-0.47,6.34,-8.10,0.00,0.00,-0.01,-18.47,25.87,-25.71
3216,-0.47,6.34,-8.10,0.00,-0.00,-0.01,-18.47,25.87,-25.71
3227,-0.47,6.34,-8.10,0.00,-0.00,-0.01,-18.47,25.87,-25.71
3238,-0.47,6.34,-8.14,0.00,-0.00,-0.01,-18.47,26.59,-25.37
3249,-0.47,6.34,-8.14,0.00,-0.00,-0.01,-18.47,26.59,-25.37
3260,-0.46,6.34,-8.15,0.00,0.00,-0.01,-18.47,26.59,-25.37
3271,-0.46,6.34,-8.15,0.00,0.00,-0.01,-18.47,26.59,-25.37
3282,-0.47,6.34,-8.12,0.00,-0.00,-0.01,-18.47,26.59,-25.37
3293,-0.47,6.34,-8.12,0.00,-0.00,-0.01,-18.47,26.59,-25.37
3304,-0.48,6.34,-8.14,0.00,0.00,-0.01,-18.47,26.59,-25.37
3315,-0.49,6.35,-8.12,0.00,-0.00,-0.01,-18.47,26.59,-25.37
3326,-0.49,6.35,-8.12,0.00,-0.00,-0.01,-18.47,26.59,-25.37
3337,-0.47,6.34,-8.12,0.00,-0.00,-0.01,-18.47,26.59,-25.37
3348,-0.47,6.34,-8.12,0.00,-0.00,-0.01,-18.47,26.59,-25.37
3359,-0.48,6.35,-8.10,0.00,0.00,-0.01,-18.47,26.59,-25.37
3370,-0.48,6.35,-8.10,0.00,0.00,-0.01,-18.47,26.59,-25.37
3381,-0.48,6.35,-8.12,0.00,0.00,-0.01,-17.24,27.86,-25.88
3392,-0.48,6.35,-8.12,0.00,0.00,-0.01,-17.24,27.86,-25.88
3403,-0.47,6.33,-8.13,0.00,0.00,-0.01,-17.24,27.86,-25.88
3414,-0.47,6.33,-8.13,0.00,0.00,-0.01,-17.24,27.86,-25.88
3425,-0.48,6.32,-8.12,0.00,0.00,-0.01,-17.24,27.86,-25.88
3436,-0.47,6.34,-8.10,0.00,0.00,-0.01,-17.24,27.86,-25.88
3447,-0.47,6.34,-8.10,0.00,0.00,-0.01,-17.24,27.86,-25.88
3458,-0.47,6.34,-8.11,0.00,0.00,-0.01,-17.24,27.86,-25.88
3469,-0.47,6.34,-8.11,0.00,0.00,-0.01,-17.24,27.86,-25.88
3480,-0.46,6.34,-8.11,0.00,0.00,-0.01,-17.24,27.86,-25.88
3491,-0.46,6.34,-8.11,0.00,0.00,-0.01,-17.24,27.86,-25.88
3502,-0.47,6.32,-8.14,0.00,0.00,-0.01,-17.42,25.87,-26.39
3513,-0.47,6.32,-8.14,0.00,0.00,-0.01,-17.42,25.87,-26.39
3524,-0.47,6.33,-8.13,0.00,0.00,-0.01,-17.42,25.87,-26.39
3535,-0.47,6.35,-8.11,0.00,-0.00,-0.01,-17.42,25.87,-26.39
3547,-0.47,6.35,-8.11,0.00,-0.00,-0.01,-17.42,25.87,-26.39
3557,-0.46,6.34,-8.11,0.00,-0.00,-0.01,-17.42,25.87,-26.39
3568,-0.46,6.34,-8.11,0.00,-0.00,-0.01,-17.42,25.87,-26.39
3579,-0.47,6.33,-8.09,0.00,0.00,-0.01,-17.42,25.87,-26.39
3590,-0.47,6.33,-8.09,0.00,0.00,-0.01,-17.42,25.87,-26.39
3601,-0.47,6.34,-8.11,0.00,0.00,-0.01,-17.42,25.87,-26.39
3612,-0.47,6.34,-8.11,0.00,0.00,-0.01,-17.42,25.87,-26.39
3623,-0.47,6.33,-8.12,0.00,0.00,-0.01,-16.01,26.59,-27.75
3634,-0.47,6.33,-8.12,0.00,0.00,-0.01,-16.01,26.59,-27.75
3645,-0.46,6.32,-8.12,0.00,0.00,-0.01,-16.01,26.59,-27.75
3656,-0.45,6.34,-8.11,0.00,-0.00,-0.01,-16.01,26.59,-27.75
3667,-0.45,6.34,-8.11,0.00,-0.00,-0.01,-16.01,26.59,-27.75
3678,-0.48,6.34,-8.10,0.00,0.00,-0.01,-16.01,26.59,-27.75
3689,-0.48,6.34,-8.10,0.00,0.00,-0.01,-16.01,26.59,-27.75
3700,-0.46,6.34,-8.12,0.00,0.00,-0.01,-16.01,26.59,-27.75
3711,-0.46,6.34,-8.12,0.00,0.00,-0.01,-16.01,26.59,-27.75
3722,-0.47,6.33,-8.11,0.00,0.00,-0.01,-16.01,26.59,-27.75
3733,-0.47,6.33,-8.11,0.00,0.00,-0.01,-16.01,26.59,-27.75
3744,-0.47,6.34,-8.10,0.00,0.00,-0.01,-17.77,26.96,-26.73
3760,-0.47,6.34,-8.13,0.00,0.00,-0.01,-17.77,26.96,-26.73
3766,-0.47,6.34,-8.13,0.00,0.00,-0.01,-17.77,26.96,-26.73
3777,-0.46,6.33,-8.15,0.00,0.00,-0.01,-17.77,26.96,-26.73
3788,-0.46,6.33,-8.15,0.00,0.00,-0.01,-17.77,26.96,-26.73
3799,-0.46,6.33,-8.14,0.00,-0.00,-0.01,-17.77,26.96,-26.73
3810,-0.46,6.33,-8.14,0.00,-0.00,-0.01,-17.77,26.96,-26.73
3821,-0.47,6.34,-8.12,0.00,-0.00,-0.01,-17.77,26.96,-26.73
3832,-0.47,6.34,-8.12,0.00,-0.00,-0.01,-17.77,26.96,-26.73
3843,-0.47,6.34,-8.11,0.00,-0.00,-0.01,-17.77,26.96,-26.73
3854,-0.47,6.34,-8.11,0.00,-0.00,-0.01,-17.77,26.96,-26.73
3865,-0.47,6.34,-8.12,0.00,-0.00,-0.01,-17.77,26.96,-26.73
3876,-0.47,6.34,-8.14,0.00,0.00,-0.01,-19.35,26.41,-26.22
3887,-0.47,6.34,-8.14,0.00,0.00,-0.01,-19.35,26.41,-26.22
3898,-0.47,6.34,-8.13,0.00,0.00,-0.01,-19.35,26.41,-26.22
3909,-0.47,6.34,-8.13,0.00,0.00,-0.01,-19.35,26.41,-26.22
3920,-0.47,6.34,-8.14,0.00,0.00,-0.01,-19.35,26.41,-26.22
3931,-0.47,6.34,-8.14,0.00,0.00,-0.01,-19.35,26.41,-26.22
3942,-0.47,6.34,-8.15,0.00,-0.00,-0.01,-19.35,26.41,-26.22
3953,-0.47,6.34,-8.15,0.00,-0.00,-0.01,-19.35,26.41,-26.22
3964,-0.46,6.34,-8.11,0.00,0.00,-0.01,-19.35,26.41,-26.22
3975,-0.46,6.33,-8.11,0.00,-0.00,-0.01,-19.35,26.41,-26.22
3986,-0.46,6.33,-8.11,0.00,-0.00,-0.01,-19.35,26.41,-26.22
3997,-0.48,6.35,-8.12,0.00,0.00,-0.01,-17.59,26.41,-26.22
4008,-0.48,6.35,-8.12,0.00,0.00,-0.01,-17.59,26.41,-26.22
4019,-0.47,6.33,-8.13,0.00,0.00,-0.01,-17.59,26.41,-26.22
4030,-0.47,6.33,-8.13,0.00,0.00,-0.01,-17.59,26.41,-26.22
4042,-0.47,6.34,-8.12,0.00,0.00,-0.01,-17.59,26.41,-26.22
4052,-0.47,6.34,-8.12,0.00,0.00,-0.01,-17.59,26.41,-26.22
4063,-0.48,6.35,-8.11,0.00,0.00,-0.01,-17.59,26.41,-26.22
4074,-0.48,6.35,-8.11,0.00,0.00,-0.01,-17.59,26.41,-26.22
4085,-0.47,6.35,-8.10,0.00,0.00,-0.01,-17.59,26.41,-26.22
4096,-0.47,6.35,-8.10,0.00,0.00,-0.01,-17.59,26.41,-26.22
4107,-0.47,6.35,-8.10,0.00,0.00,-0.01,-17.59,26.41,-26.22
4118,-0.48,6.35,-8.13,0.00,0.00,-0.01,-16.89,27.86,-26.22
4129,-0.48,6.35,-8.13,0.00,0.00,-0.01,-16.89,27.86,-26.22
4140,-0.47,6.34,-8.12,0.00,0.00,-0.01,-16.89,27.86,-26.22
4151,-0.47,6.34,-8.12,0.00,0.00,-0.01,-16.89,27.86,-26.22
4162,-0.47,6.34,-8.15,0.00,0.00,-0.01,-16.89,27.86,-26.22
4173,-0.47,6.34,-8.15,0.00,0.00,-0.01,-16.89,27.86,-26.22
4184,-0.47,6.33,-8.14,0.00,0.00,-0.01,-16.89,27.86,-26.22
4195,-0.47,6.33,-8.14,0.00,0.00,-0.01,-16.89,27.86,-26.22
4206,-0.48,6.33,-8.13,0.00,0.00,-0.01,-16.89,27.86,-26.22
4217,-0.47,6.34,-8.12,0.00,0.00,-0.01,-16.89,27.86,-26.22
4228,-0.47,6.34,-8.12,0.00,0.00,-0.01,-16.89,27.86,-26.22
4239,-0.47,6.35,-8.12,0.00,0.00,-0.01,-16.89,27.86,-26.22
4250,-0.47,6.35,-8.12,0.00,0.00,-0.01,-16.89,27.86,-26.22
4261,-0.46,6.34,-8.14,0.00,0.00,-0.01,-17.07,27.32,-27.07
4272,-0.46,6.34,-8.14,0.00,0.00,-0.01,-17.07,27.32,-27.07
4283,-0.47,6.33,-8.12,0.00,0.00,-0.01,-17.07,27.32,-27.07
4294,-0.47,6.33,-8.12,0.00,0.00,-0.01,-17.07,27.32,-27.07
4305,-0.48,6.34,-8.13,0.00,0.00,-0.01,-17.07,27.32,-27.07
4316,-0.47,6.34,-8.14,0.00,0.00,-0.01,-17.07,27.32,-27.07
4327,-0.47,6.34,-8.14,0.00,0.00,-0.01,-17.07,27.32,-27.07
4338,-0.47,6.33,-8.12,0.00,-0.00,-0.01,-17.07,27.32,-27.07
4349,-0.47,6.33,-8.12,0.00,-0.00,-0.01,-17.07,27.32,-27.07
4360,-0.47,6.34,-8.11,0.00,-0.00,-0.01,-17.07,27.32,-27.07
4371,-0.47,6.34,-8.11,0.00,-0.00,-0.01,-17.07,27.32,-27.07
4382,-0.47,6.34,-8.14,0.00,0.00,-0.01,-17.59,27.50,-25.54
4393,-0.47,6.34,-8.14,0.00,0.00,-0.01,-17.59,27.50,-25.54
4404,-0.48,6.34,-8.13,0.00,-0.00,-0.01,-17.59,27.50,-25.54
4415,-0.48,6.34,-8.13,0.00,-0.00,-0.01,-17.59,27.50,-25.54
4427,-0.47,6.35,-8.12,0.00,-0.00,-0.01,-17.59,27.50,-25.54
4437,-0.47,6.34,-8.11,0.00,-0.00,-0.01,-17.59,27.50,-25.54
4448,-0.47,6.34,-8.11,0.00,-0.00,-0.01,-17.59,27.50,-25.54
4459,-0.47,6.34,-8.11,0.00,0.00,-0.01,-17.59,27.50,-25.54
4470,-0.47,6.34,-8.11,0.00,0.00,-0.01,-17.59,27.50,-25.54
4481,-0.46,6.34,-8.13,0.00,-0.00,-0.01,-17.59,27.50,-25.54
4492,-0.46,6.34,-8.13,0.00,-0.00,-0.01,-17.59,27.50,-25.54
4503,-0.46,6.33,-8.12,0.00,0.00,-0.01,-16.89,26.05,-25.54
4514,-0.46,6.33,-8.12,0.00,0.00,-0.01,-16.89,26.05,-25.54
4525,-0.47,6.34,-8.12,0.00,0.00,-0.01,-16.89,26.05,-25.54
4536,-0.47,6.32,-8.14,0.00,-0.00,-0.01,-16.89,26.05,-25.54
4547,-0.47,6.32,-8.14,0.00,-0.00,-0.01,-16.89,26.05,-25.54
4558,-0.47,6.33,-8.11,0.00,-0.00,-0.01,-16.89,26.05,-25.54
4569,-0.47,6.33,-8.11,0.00,-0.00,-0.01,-16.89,26.05,-25.54
4580,-0.47,6.34,-8.13,0.00,0.00,-0.01,-16.89,26.05,-25.54
4591,-0.47,6.34,-8.13,0.00,0.00,-0.01,-16.89,26.05,-25.54
4602,-0.48,6.33,-8.14,0.00,0.00,-0.01,-16.89,26.05,-25.54
4613,-0.48,6.33,-8.14,0.00,0.00,-0.01,-16.89,26.05,-25.54
4624,-0.48,6.34,-8.12,0.00,0.00,-0.01,-16.89,26.05,-25.54
4635,-0.48,6.34,-8.12,0.00,0.00,-0.01,-16.89,26.05,-25.54
4646,-0.46,6.32,-8.12,0.00,0.00,-0.01,-17.94,26.77,-25.88
4662,-0.48,6.34,-8.10,0.00,0.00,-0.01,-17.94,26.77,-25.88
4668,-0.48,6.34,-8.10,0.00,0.00,-0.01,-17.94,26.77,-25.88
4679,-0.48,6.33,-8.13,0.00,0.00,-0.01,-17.94,26.77,-25.88
4690,-0.48,6.33,-8.13,0.00,0.00,-0.01,-17.94,26.77,-25.88
4701,-0.46,6.33,-8.13,0.00,0.00,-0.01,-17.94,26.77,-25.88
4712,-0.46,6.33,-8.13,0.00,0.00,-0.01,-17.94,26.77,-25.88
4723,-0.47,6.33,-8.11,0.00,0.00,-0.01,-17.94,26.77,-25.88
4734,-0.47,6.33,-8.11,0.00,0.00,-0.01,-17.94,26.77,-25.88
4745,-0.47,6.33,-8.10,0.00,-0.00,-0.01,-17.94,26.77,-25.88
4756,-0.47,6.34,-8.14,0.00,-0.00,-0.01,-17.24,24.96,-26.56
4767,-0.47,6.34,-8.14,0.00,-0.00,-0.01,-17.24,24.96,-26.56
4778,-0.47,6.33,-8.10,0.00,-0.00,-0.01,-17.24,24.96,-26.56
4789,-0.47,6.33,-8.10,0.00,-0.00,-0.01,-17.24,24.96,-26.56
4800,-0.48,6.33,-8.13,0.00,0.00,-0.01,-17.24,24.96,-26.56
4811,-0.48,6.33,-8.13,0.00,0.00,-0.01,-17.24,24.96,-26.56
4822,-0.47,6.34,-8.09,0.00,0.00,-0.01,-17.24,24.96,-26.56
4833,-0.47,6.34,-8.09,0.00,0.00,-0.01,-17.24,24.96,-26.56
4844,-0.48,6.34,-8.11,0.00,0.00,-0.01,-17.24,24.96,-26.56
4855,-0.48,6.34,-8.11,0.00,0.00,-0.01,-17.24,24.96,-26.56
4866,-0.47,6.34,-8.12,0.00,0.00,-0.01,-17.24,24.96,-26.56
4877,-0.47,6.33,-8.13,0.00,0.00,-0.01,-18.30,27.14,-26.56
4888,-0.47,6.33,-8.13,0.00,0.00,-0.01,-18.30,27.14,-26.56
4899,-0.47,6.34,-8.10,0.00,0.00,-0.01,-18.30,27.14,-26.56
4910,-0.47,6.34,-8.10,0.00,0.00,-0.01,-18.30,27.14,-26.56
4921,-0.47,6.34,-8.13,0.00,0.00,-0.01,-18.30,27.14,-26.56
4932,-0.47,6.34,-8.13,0.00,0.00,-0.01,-18.30,27.14,-26.56
4943,-0.46,6.33,-8.13,0.00,0.00,-0.01,-18.30,27.14,-26.56
4954,-0.46,6.33,-8.13,0.00,0.00,-0.01,-18.30,27.14,-26.56
4965,-0.46,6.33,-8.11,0.00,0.00,-0.01,-18.30,27.14,-26.56
4976,-0.46,6.34,-8.11,0.00,0.00,-0.01,-18.30,27.14,-26.56
4987,-0.46,6.34,-8.11,0.00,0.00,-0.01,-18.30,27.14,-26.56
4998,-0.48,6.34,-8.12,0.00,0.00,-0.01,-18.30,27.14,-26.56
5009,-0.48,6.34,-8.12,0.00,0.00,-0.01,-18.30,27.14,-26.56
5020,-0.47,6.34,-8.13,0.00,0.00,-0.01,-18.12,26.96,-26.73
5031,-0.47,6.34,-8.13,0.00,0.00,-0.01,-18.12,26.96,-26.73
5042,-0.48,6.34,-8.12,0.00,0.00,-0.01,-18.12,26.96,-26.73
5053,-0.48,6.34,-8.12,0.00,0.00,-0.01,-18.12,26.96,-26.73
5064,-0.47,6.34,-8.12,0.00,0.00,-0.01,-18.12,26.96,-26.73
5075,-0.47,6.34,-8.12,0.00,0.00,-0.01,-18.12,26.96,-26.73
5086,-0.46,6.33,-8.12,0.00,0.00,-0.01,-18.12,26.96,-26.73
5097,-0.46,6.34,-8.12,0.00,-0.00,-0.01,-18.12,26.96,-26.73
5108,-0.46,6.34,-8.12,0.00,-0.00,-0.01,-18.12,26.96,-26.73
5119,-0.47,6.34,-8.13,0.00,0.00,-0.01,-18.12,26.96,-26.73
5130,-0.47,6.34,-8.13,0.00,0.00,-0.01,-18.12,26.96,-26.73
5141,-0.47,6.35,-8.13,0.00,0.00,-0.01,-17.94,26.77,-26.56
5152,-0.47,6.35,-8.13,0.00,0.00,-0.01,-17.94,26.77,-26.56
5163,-0.47,6.34,-8.11,0.00,0.00,-0.01,-17.94,26.77,-26.56
5174,-0.47,6.34,-8.11,0.00,0.00,-0.01,-17.94,26.77,-26.56
5185,-0.46,6.33,-8.13,0.00,0.00,-0.01,-17.94,26.77,-26.56
5196,-0.45,6.34,-8.12,0.00,-0.00,-0.01,-17.94,26.77,-26.56
5207,-0.45,6.34,-8.12,0.00,-0.00,-0.01,-17.94,26.77,-26.56
5218,-0.47,6.34,-8.10,0.00,0.00,-0.01,-17.94,26.77,-26.56
5229,-0.47,6.34,-8.10,0.00,0.00,-0.01,-17.94,26.77,-26.56
5240,-0.48,6.33,-8.13,0.00,0.00,-0.01,-17.94,26.77,-26.56
5251,-0.48,6.33,-8.13,0.00,0.00,-0.01,-17.94,26.77,-26.56
5262,-0.48,6.33,-8.13,0.00,0.00,-0.01,-16.36,26.96,-27.07
5273,-0.48,6.33,-8.13,0.00,0.00,-0.01,-16.36,26.96,-27.07
5284,-0.47,6.32,-8.14,0.00,-0.00,-0.01,-16.36,26.96,-27.07
5295,-0.47,6.32,-8.14,0.00,-0.00,-0.01,-16.36,26.96,-27.07
5306,-0.48,6.34,-8.11,0.00,0.00,-0.01,-16.36,26.96,-27.07
5317,-0.47,6.34,-8.11,0.00,0.00,-0.01,-16.36,26.96,-27.07
5328,-0.47,6.34,-8.11,0.00,0.00,-0.01,-16.36,26.96,-27.07
5339,-0.48,6.34,-8.13,0.00,0.00,-0.01,-16.36,26.96,-27.07
5350,-0.48,6.34,-8.13,0.00,0.00,-0.01,-16.36,26.96,-27.07
5361,-0.47,6.34,-8.10,0.00,0.00,-0.01,-16.36,26.96,-27.07
5372,-0.47,6.34,-8.10,0.00,0.00,-0.01,-16.36,26.96,-27.07
5383,-0.47,6.34,-8.12,0.00,-0.00,-0.01,-17.07,27.68,-26.39
5394,-0.47,6.34,-8.12,0.00,-0.00,-0.01,-17.07,27.68,-26.39
5405,-0.47,6.34,-8.14,0.00,-0.00,-0.01,-17.07,27.68,-26.39
5416,-0.47,6.34,-8.14,0.00,-0.00,-0.01,-17.07,27.68,-26.39
5427,-0.46,6.33,-8.14,0.00,-0.00,-0.01,-17.07,27.68,-26.39
5438,-0.48,6.34,-8.13,0.00,0.00,-0.01,-17.07,27.68,-26.39
5449,-0.48,6.34,-8.13,0.00,0.00,-0.01,-17.07,27.68,-26.39
5460,-0.48,6.33,-8.14,0.00,0.00,-0.01,-17.07,27.68,-26.39
5471,-0.48,6.33,-8.14,0.00,0.00,-0.01,-17.07,27.68,-26.39
5482,-0.47,6.33,-8.15,0.00,0.00,-0.01,-17.07,27.68,-26.39
5493,-0.47,6.33,-8.15,0.00,0.00,-0.01,-17.07,27.68,-26.39
5504,-0.47,6.33,-8.14,0.00,-0.00,-0.01,-17.07,27.68,-26.39
5515,-0.47,6.33,-8.14,0.00,-0.00,-0.01,-17.07,27.68,-26.39
5526,-0.45,6.35,-8.14,0.00,-0.00,-0.01,-17.42,27.68,-26.39
5537,-0.47,6.34,-8.10,0.00,0.00,-0.01,-17.42,27.68,-26.39
5548,-0.47,6.34,-8.10,0.00,0.00,-0.01,-17.42,27.68,-26.39
5559,-0.46,6.34,-8.12,0.00,0.00,-0.01,-17.42,27.68,-26.39
5570,-0.46,6.34,-8.12,0.00,0.00,-0.01,-17.42,27.68,-26.39
5581,-0.46,6.33,-8.11,0.00,0.00,-0.01,-17.42,27.68,-26.39
5592,-0.46,6.33,-8.11,0.00,0.00,-0.01,-17.42,27.68,-26.39
5603,-0.46,6.34,-8.11,0.00,0.00,-0.01,-17.42,27.68,-26.39
5614,-0.46,6.34,-8.11,0.00,0.00,-0.01,-17.42,27.68,-26.39
5625,-0.46,6.34,-8.11,0.00,0.00,-0.01,-17.42,27.68,-26.39
5637,-0.46,6.34,-8.11,0.00,0.00,-0.01,-17.42,27.68,-26.39
5647,-0.47,6.34,-8.15,0.00,0.00,-0.01,-16.89,26.77,-27.24
5658,-0.47,6.35,-8.13,0.00,0.00,-0.01,-16.89,26.77,-27.24
5669,-0.47,6.35,-8.13,0.00,0.00,-0.01,-16.89,26.77,-27.24
5680,-0.46,6.33,-8.13,0.00,0.00,-0.01,-16.89,26.77,-27.24
5691,-0.46,6.33,-8.13,0.00,0.00,-0.01,-16.89,26.77,-27.24
5702,-0.47,6.35,-8.13,0.00,0.00,-0.01,-16.89,26.77,-27.24
5713,-0.47,6.35,-8.13,0.00,0.00,-0.01,-16.89,26.77,-27.24
5724,-0.46,6.34,-8.13,0.00,0.00,-0.01,-16.89,26.77,-27.24
5735,-0.46,6.34,-8.13,0.00,0.00,-0.01,-16.89,26.77,-27.24
5746,-0.48,6.33,-8.11,0.00,0.00,-0.01,-16.89,26.77,-27.24
5757,-0.46,6.34,-8.14,0.00,0.00,-0.01,-17.42,27.32,-26.73
5768,-0.46,6.34,-8.14,0.00,0.00,-0.01,-17.42,27.32,-26.73
5779,-0.47,6.36,-8.11,0.00,0.00,-0.01,-17.42,27.32,-26.73
5790,-0.47,6.36,-8.11,0.00,0.00,-0.01,-17.42,27.32,-26.73
5801,-0.47,6.35,-8.10,0.00,-0.00,-0.01,-17.42,27.32,-26.73
5812,-0.47,6.35,-8.10,0.00,-0.00,-0.01,-17.42,27.32,-26.73
5823,-0.46,6.34,-8.11,0.00,0.00,-0.01,-17.42,27.32,-26.73
5834,-0.46,6.34,-8.11,0.00,0.00,-0.01,-17.42,27.32,-26.73
5845,-0.46,6.34,-8.11,0.00,-0.00,-0.01,-17.42,27.32,-26.73
5856,-0.46,6.34,-8.11,0.00,-0.00,-0.01,-17.42,27.32,-26.73
5867,-0.48,6.33,-8.09,0.00,0.00,-0.01,-17.42,27.32,-26.73
5878,-0.47,6.34,-8.13,0.00,0.00,-0.01,-17.42,27.32,-26.73
5889,-0.47,6.34,-8.13,0.00,0.00,-0.01,-17.42,27.32,-26.73
5900,-0.47,6.33,-8.12,0.00,-0.00,-0.01,-16.54,26.41,-26.90
5911,-0.47,6.33,-8.12,0.00,-0.00,-0.01,-16.54,26.41,-26.90
5922,-0.47,6.32,-8.13,0.00,0.00,-0.01,-16.54,26.41,-26.90
5933,-0.47,6.32,-8.13,0.00,0.00,-0.01,-16.54,26.41,-26.90
5944,-0.46,6.33,-8.15,0.00,-0.00,-0.01,-16.54,26.41,-26.90
5955,-0.46,6.33,-8.15,0.00,-0.00,-0.01,-16.54,26.41,-26.90
5966,-0.45,6.34,-8.13,0.00,0.00,-0.01,-16.54,26.41,-26.90
5977,-0.45,6.34,-8.11,0.00,-0.00,-0.01,-16.54,26.41,-26.90
5988,-0.45,6.34,-8.11,0.00,-0.00,-0.01,-16.54,26.41,-26.90
5999,-0.47,6.35,-8.12,0.00,-0.00,-0.01,-16.54,26.41,-26.90
6010,-0.47,6.35,-8.12,0.00,-0.00,-0.01,-16.54,26.41,-26.90
6021,-0.47,6.34,-8.15,0.00,0.00,-0.01,-17.94,26.05,-26.22
6032,-0.47,6.34,-8.15,0.00,0.00,-0.01,-17.94,26.05,-26.22
6043,-0.47,6.34,-8.11,0.00,-0.00,-0.01,-17.94,26.05,-26.22
6054,-0.47,6.34,-8.11,0.00,-0.00,-0.01,-17.94,26.05,-26.22
6065,-0.46,6.34,-8.14,0.00,-0.00,-0.01,-17.94,26.05,-26.22
6076,-0.46,6.34,-8.14,0.00,-0.00,-0.01,-17.94,26.05,-26.22
6087,-0.47,6.34,-8.11,0.00,0.00,-0.01,-17.94,26.05,-26.22
6098,-0.46,6.35,-8.11,0.00,0.00,-0.01,-17.94,26.05,-26.22
6109,-0.46,6.35,-8.11,0.00,0.00,-0.01,-17.94,26.05,-26.22
6120,-0.47,6.34,-8.11,0.00,0.00,-0.01,-17.94,26.05,-26.22
6131,-0.47,6.34,-8.11,0.00,0.00,-0.01,-17.94,26.05,-26.22
6142,-0.46,6.34,-8.10,0.00,-0.00,-0.01,-19.35,27.14,-26.56
6153,-0.46,6.34,-8.10,0.00,-0.00,-0.01,-19.35,27.14,-26.56
6164,-0.46,6.34,-8.13,0.00,0.00,-0.01,-19.35,27.14,-26.56
6175,-0.46,6.34,-8.13,0.00,0.00,-0.01,-19.35,27.14,-26.56
6186,-0.48,6.34,-8.11,0.00,0.00,-0.01,-19.35,27.14,-26.56
6197,-0.47,6.35,-8.10,0.00,0.00,-0.01,-19.35,27.14,-26.56
6208,-0.47,6.35,-8.10,0.00,0.00,-0.01,-19.35,27.14,-26.56
6219,-0.47,6.34,-8.12,0.00,0.00,-0.01,-19.35,27.14,-26.56
6230,-0.47,6.34,-8.12,0.00,0.00,-0.01,-19.35,27.14,-26.56
6241,-0.47,6.34,-8.10,0.00,0.00,-0.01,-19.35,27.14,-26.56
6252,-0.47,6.34,-8.10,0.00,0.00,-0.01,-19.35,27.14,-26.56
6263,-0.46,6.34,-8.10,0.00,-0.00,-0.01,-19.35,27.14,-26.56
6274,-0.46,6.34,-8.10,0.00,-0.00,-0.01,-19.35,27.14,-26.56
6285,-0.45,6.34,-8.15,0.00,-0.00,-0.01,-16.72,26.96,-25.71
6296,-0.45,6.34,-8.15,0.00,-0.00,-0.01,-16.72,26.96,-25.71
6307,-0.47,6.35,-8.11,0.00,0.00,-0.01,-16.72,26.96,-25.71
6318,-0.47,6.33,-8.11,0.00,0.00,-0.01,-16.72,26.96,-25.71
6329,-0.47,6.33,-8.11,0.00,0.00,-0.01,-16.72,26.96,-25.71
6340,-0.48,6.35,-8.11,0.00,0.00,-0.01,-16.72,26.96,-25.71
6351,-0.48,6.35,-8.11,0.00,0.00,-0.01,-16.72,26.96,-25.71
6362,-0.48,6.35,-8.13,0.00,0.00,-0.01,-16.72,26.96,-25.71
6373,-0.48,6.35,-8.13,0.00,0.00,-0.01,-16.72,26.96,-25.71
6384,-0.46,6.34,-8.11,0.00,-0.00,-0.01,-16.72,26.96,-25.71
6395,-0.46,6.34,-8.11,0.00,-0.00,-0.01,-16.72,26.96,-25.71
6406,-0.46,6.33,-8.14,0.00,-0.00,-0.01,-17.59,25.69,-26.22
6417,-0.46,6.33,-8.14,0.00,-0.00,-0.01,-17.59,25.69,-26.22
6428,-0.48,6.34,-8.12,0.00,-0.00,-0.01,-17.59,25.69,-26.22
6439,-0.46,6.34,-8.14,0.00,0.00,-0.01,-17.59,25.69,-26.22
6450,-0.46,6.34,-8.14,0.00,0.00,-0.01,-17.59,25.69,-26.22
6461,-0.46,6.34,-8.13,0.00,0.00,-0.01,-17.59,25.69,-26.22
6472,-0.46,6.34,-8.13,0.00,0.00,-0.01,-17.59,25.69,-26.22
6483,-0.47,6.34,-8.10,0.00,0.00,-0.01,-17.59,25.69,-26.22
6494,-0.47,6.34,-8.10,0.00,0.00,-0.01,-17.59,25.69,-26.22
6505,-0.47,6.34,-8.12,0.00,0.00,-0.01,-17.59,25.69,-26.22
6516,-0.47,6.34,-8.12,0.00,0.00,-0.01,-17.59,25.69,-26.22
6527,-0.47,6.34,-8.11,0.00,0.00,-0.01,-17.59,25.33,-26.90
6538,-0.47,6.32,-8.14,0.00,0.00,-0.01,-17.59,25.33,-26.90
6549,-0.47,6.32,-8.14,0.00,0.00,-0.01,-17.59,25.33,-26.90
6560,-0.48,6.34,-8.12,0.00,0.00,-0.01,-17.59,25.33,-26.90
6571,-0.48,6.34,-8.12,0.00,0.00,-0.01,-17.59,25.33,-26.90
6582,-0.47,6.35,-8.11,0.00,0.00,-0.01,-17.59,25.33,-26.90
6593,-0.47,6.35,-8.11,0.00,0.00,-0.01,-17.59,25.33,-26.90
6604,-0.46,6.35,-8.11,0.00,0.00,-0.01,-17.59,25.33,-26.90
6615,-0.46,6.35,-8.11,0.00,0.00,-0.01,-17.59,25.33,-26.90
6626,-0.47,6.34,-8.13,0.00,-0.00,-0.01,-17.59,25.33,-26.90
6637,-0.47,6.34,-8.13,0.00,-0.00,-0.01,-17.59,25.33,-26.90
6648,-0.47,6.34,-8.14,0.00,-0.00,-0.01,-18.47,26.96,-26.39
6659,-0.47,6.34,-8.13,0.00,-0.00,-0.01,-18.47,26.96,-26.39
6670,-0.47,6.34,-8.13,0.00,-0.00,-0.01,-18.47,26.96,-26.39
6681,-0.46,6.35,-8.11,0.00,0.00,-0.01,-18.47,26.96,-26.39
6692,-0.46,6.35,-8.11,0.00,0.00,-0.01,-18.47,26.96,-26.39
6703,-0.48,6.35,-8.10,0.00,0.00,-0.01,-18.47,26.96,-26.39
6714,-0.48,6.35,-8.10,0.00,0.00,-0.01,-18.47,26.96,-26.39
6726,-0.47,6.34,-8.12,0.00,-0.00,-0.01,-18.47,26.96,-26.39
6736,-0.47,6.34,-8.12,0.00,-0.00,-0.01,-18.47,26.96,-26.39
6747,-0.46,6.34,-8.10,0.00,-0.00,-0.01,-18.47,26.96,-26.39
6758,-0.48,6.34,-8.09,0.00,-0.00,-0.01,-18.47,26.96,-26.39
6769,-0.48,6.34,-8.09,0.00,-0.00,-0.01,-18.47,26.96,-26.39
6780,-0.46,6.34,-8.12,0.00,0.00,-0.01,-19.17,27.32,-26.05
6791,-0.46,6.34,-8.12,0.00,0.00,-0.01,-19.17,27.32,-26.05
6802,-0.46,6.34,-8.12,0.00,0.00,-0.01,-19.17,27.32,-26.05
6813,-0.46,6.34,-8.12,0.00,0.00,-0.01,-19.17,27.32,-26.05
6824,0.07,5.54,-9.13,-0.37,-0.16,-0.13,-19.17,27.32,-26.05
6835,0.07,5.54,-9.13,-0.37,-0.16,-0.13,-19.17,27.32,-26.05
6846,0.25,4.15,-6.20,-1.69,-0.89,-0.27,-19.17,27.32,-26.05
6857,0.25,4.15,-6.20,-1.69,-0.89,-0.27,-19.17,27.32,-26.05
6868,-1.41,8.00,-6.58,-0.64,-0.50,0.26,-19.17,27.32,-26.05
6879,-0.77,6.99,-7.67,0.03,-0.02,0.03,-19.17,27.32,-26.05
6890,-0.77,6.99,-7.67,0.03,-0.02,0.03,-19.17,27.32,-26.05
6901,-0.69,6.52,-7.90,0.16,-0.05,0.08,-16.89,27.50,-23.84
6912,-0.69,6.52,-7.90,0.16,-0.05,0.08,-16.89,27.50,-23.84
6923,-0.75,6.85,-7.76,-0.02,-0.40,0.42,-16.89,27.50,-23.84
6934,-0.75,6.85,-7.76,-0.02,-0.40,0.42,-16.89,27.50,-23.84
6945,-1.34,6.83,-7.72,-0.03,-0.22,0.23,-16.89,27.50,-23.84
6956,-1.34,6.83,-7.72,-0.03,-0.22,0.23,-16.89,27.50,-23.84
6967,-1.40,6.70,-7.66,0.28,0.26,-0.14,-16.89,27.50,-23.84
6978,-0.59,6.61,-7.93,0.84,0.52,-0.11,-16.89,27.50,-23.84
6989,-0.59,6.61,-7.93,0.84,0.52,-0.11,-16.89,27.50,-23.84
7000,-1.28,5.73,-6.62,1.47,0.67,0.04,-16.89,27.50,-23.84
7011,-1.28,5.73,-6.62,1.47,0.67,0.04,-16.89,27.50,-23.84
7022,0.23,8.15,-11.58,0.61,0.68,-0.19,-16.54,27.14,-25.54
7033,0.23,8.15,-11.58,0.61,0.68,-0.19,-16.54,27.14,-25.54
7044,-0.68,6.85,-10.82,3.32,0.17,-0.01,-16.54,27.14,-25.54
7055,-0.68,6.85,-10.82,3.32,0.17,-0.01,-16.54,27.14,-25.54
7066,-0.88,5.25,-11.61,6.27,0.05,0.26,-16.54,27.14,-25.54
7077,-0.88,5.25,-11.61,6.27,0.05,0.26,-16.54,27.14,-25.54
7088,-0.76,1.47,-8.07,9.04,0.40,0.88,-16.54,27.14,-25.54
7099,0.44,-0.30,-8.84,6.75,1.67,1.38,-16.54,27.14,-25.54
7110,0.44,-0.30,-8.84,6.75,1.67,1.38,-16.54,27.14,-25.54
7121,1.25,1.37,-14.20,3.03,2.76,1.56,-16.54,27.14,-25.54
7132,1.25,1.37,-14.20,3.03,2.76,1.56,-16.54,27.14,-25.54
7143,1.80,1.59,-17.09,2.60,2.63,1.73,-16.54,27.14,-25.54
7154,1.80,1.59,-17.09,2.60,2.63,1.73,-16.54,27.14,-25.54
7165,2.39,1.78,-19.77,3.12,1.59,1.80,-7.06,5.40,-38.46
7176,2.39,1.78,-19.77,3.12,1.59,1.80,-7.06,5.40,-38.46
7187,2.97,3.94,-19.23,4.32,-0.04,1.47,-7.06,5.40,-38.46
7198,1.53,3.84,-15.85,5.18,-1.95,0.59,-7.06,5.40,-38.46
7209,1.53,3.84,-15.85,5.18,-1.95,0.59,-7.06,5.40,-38.46
7220,0.48,1.49,-11.21,6.12,-3.23,-0.14,-7.06,5.40,-38.46
7231,0.48,1.49,-11.21,6.12,-3.23,-0.14,-7.06,5.40,-38.46
7242,-0.23,-0.26,-8.80,6.52,-3.61,-0.58,-7.06,5.40,-38.46
7253,-0.23,-0.26,-8.80,6.52,-3.61,-0.58,-7.06,5.40,-38.46
7264,-0.17,-1.45,-8.24,7.02,-3.68,-0.78,-7.06,5.40,-38.46
7275,-0.17,-1.45,-8.24,7.02,-3.68,-0.78,-7.06,5.40,-38.46
7286,0.27,-1.97,-7.86,7.91,-3.88,-0.80,-16.01,-27.03,-29.79
7297,0.27,-1.97,-7.86,7.91,-3.88,-0.80,-16.01,-27.03,-29.79
7308,1.17,-3.23,-6.84,8.85,-4.30,-0.72,-16.01,-27.03,-29.79
7319,2.15,-5.32,-5.02,9.36,-4.93,-0.47,-16.01,-27.03,-29.79
7330,2.15,-5.32,-5.02,9.36,-4.93,-0.47,-16.01,-27.03,-29.79
7341,2.59,-5.98,-1.76,10.17,-5.49,0.26,-16.01,-27.03,-29.79
7352,2.59,-5.98,-1.76,10.17,-5.49,0.26,-16.01,-27.03,-29.79
7363,1.05,-4.71,1.49,11.20,-5.64,1.37,-16.01,-27.03,-29.79
7374,1.05,-4.71,1.49,11.20,-5.64,1.37,-16.01,-27.03,-29.79
7385,0.06,-3.18,5.51,12.35,-5.24,2.43,-16.01,-27.03,-29.79
7396,0.06,-3.18,5.51,12.35,-5.24,2.43,-16.01,-27.03,-29.79
7407,-1.04,-3.67,10.65,8.71,-4.33,2.31,-23.91,-31.56,25.12
7418,-2.70,-2.59,10.14,1.12,-3.48,0.97,-23.91,-31.56,25.12
7429,-2.70,-2.59,10.14,1.12,-3.48,0.97,-23.91,-31.56,25.12
7440,-3.23,-5.79,12.48,1.42,-1.85,0.32,-23.91,-31.56,25.12
7451,-3.23,-5.79,12.48,1.42,-1.85,0.32,-23.91,-31.56,25.12
7462,-1.92,-9.02,8.90,1.99,0.22,0.47,-23.91,-31.56,25.12
7473,-1.92,-9.02,8.90,1.99,0.22,0.47,-23.91,-31.56,25.12
7485,0.36,-6.43,0.90,1.46,1.07,0.88,-23.91,-31.56,25.12
7495,0.36,-6.43,0.90,1.46,1.07,0.88,-23.91,-31.56,25.12
7506,-0.30,-4.25,1.11,3.17,0.14,1.12,-23.91,-31.56,25.12
7517,-0.30,-4.25,1.11,3.17,0.14,1.12,-23.91,-31.56,25.12
7528,-3.07,-1.94,4.65,3.46,-1.02,0.81,-23.91,-31.56,25.12
7539,-3.82,-2.02,8.53,3.70,-1.04,0.16,-24.97,-21.77,33.96
7550,-3.82,-2.02,8.53,3.70,-1.04,0.16,-24.97,-21.77,33.96
7561,-1.46,-7.18,11.73,2.24,-0.59,-0.26,-24.97,-21.77,33.96
7572,-1.46,-7.18,11.73,2.24,-0.59,-0.26,-24.97,-21.77,33.96
7583,-0.55,-8.78,9.75,-0.49,0.17,0.28,-24.97,-21.77,33.96
7594,-0.55,-8.78,9.75,-0.49,0.17,0.28,-24.97,-21.77,33.96
7605,-1.79,-4.82,7.64,-1.59,0.78,0.87,-24.97,-21.77,33.96
7616,-1.79,-4.82,7.64,-1.59,0.78,0.87,-24.97,-21.77,33.96
7627,-2.15,-4.09,6.72,-1.72,0.95,0.84,-24.97,-21.77,33.96
7638,-2.15,-4.09,6.72,-1.72,0.95,0.84,-24.97,-21.77,33.96
7649,-4.84,-5.27,5.47,-3.28,0.84,0.59,-24.97,-21.77,33.96
7660,-4.02,-6.56,4.94,-3.96,0.45,0.54,-25.67,-22.50,31.92
7671,-4.02,-6.56,4.94,-3.96,0.45,0.54,-25.67,-22.50,31.92
7682,-3.21,-10.08,8.53,-4.30,0.33,0.69,-25.67,-22.50,31.92
7693,-3.21,-10.08,8.53,-4.30,0.33,0.69,-25.67,-22.50,31.92
7704,-4.63,-9.59,4.68,-8.51,0.40,0.84,-25.67,-22.50,31.92
7715,-4.63,-9.59,4.68,-8.51,0.40,0.84,-25.67,-22.50,31.92
7726,-4.40,-6.80,0.07,-10.24,0.14,1.12,-25.67,-22.50,31.92
7737,-4.40,-6.80,0.07,-10.24,0.14,1.12,-25.67,-22.50,31.92
7748,-3.78,-5.68,-1.65,-9.58,-0.65,1.01,-25.67,-22.50,31.92
7759,-4.95,-7.81,-3.00,-7.04,-1.27,0.75,-25.67,-22.50,31.92
7770,-4.95,-7.81,-3.00,-7.04,-1.27,0.75,-25.67,-22.50,31.92
7781,-4.60,-10.00,-0.90,-3.09,-1.53,1.21,-27.95,-36.45,11.01
7792,-4.60,-10.00,-0.90,-3.09,-1.53,1.21,-27.95,-36.45,11.01
7803,-3.41,-7.78,-0.67,-2.97,-1.57,1.41,-27.95,-36.45,11.01
7814,-3.41,-7.78,-0.67,-2.97,-1.57,1.41,-27.95,-36.45,11.01
7825,-4.78,-6.17,-0.72,-4.72,-1.50,1.03,-27.95,-36.45,11.01
7836,-4.78,-6.17,-0.72,-4.72,-1.50,1.03,-27.95,-36.45,11.01
7847,-6.30,-8.02,-2.16,-4.67,-1.14,0.64,-27.95,-36.45,11.01
7858,-6.30,-8.02,-2.16,-4.67,-1.14,0.64,-27.95,-36.45,11.01
7870,-5.31,-7.95,0.05,-2.72,-0.79,0.78,-27.95,-36.45,11.01
7880,-5.18,-5.69,-3.09,-3.61,-0.44,0.72,-27.95,-36.45,11.01
7891,-5.18,-5.69,-3.09,-3.61,-0.44,0.72,-27.95,-36.45,11.01
7902,-5.09,-6.91,-4.43,-1.88,-0.04,0.36,-30.41,-31.38,1.83
7913,-5.09,-6.91,-4.43,-1.88,-0.04,0.36,-30.41,-31.38,1.83
7924,-5.35,-7.51,-3.17,-0.64,0.05,0.32,-30.41,-31.38,1.83
7935,-5.35,-7.51,-3.17,-0.64,0.05,0.32,-30.41,-31.38,1.83
7946,-5.53,-5.26,-0.72,-5.17,0.20,0.15,-30.41,-31.38,1.83
7957,-5.53,-5.26,-0.72,-5.17,0.20,0.15,-30.41,-31.38,1.83
7968,-5.37,-0.81,-7.07,-11.67,0.33,-0.49,-30.41,-31.38,1.83
7979,-6.03,-2.23,-8.63,-9.10,0.28,-0.95,-30.41,-31.38,1.83
7990,-6.03,-2.23,-8.63,-9.10,0.28,-0.95,-30.41,-31.38,1.83
8001,-6.76,-3.67,-10.66,-4.85,0.39,-1.02,-30.41,-31.38,1.83
8012,-6.76,-3.67,-10.66,-4.85,0.39,-1.02,-30.41,-31.38,1.83
8023,-5.34,-4.98,-7.77,-1.43,0.08,-0.83,-30.41,-31.38,1.83
8034,-5.34,-4.98,-7.77,-1.43,0.08,-0.83,-30.41,-31.38,1.83
8045,-4.71,-5.61,-6.38,-1.16,-0.15,-0.68,-27.95,-27.03,-17.89
8056,-4.71,-5.61,-6.38,-1.16,-0.15,-0.68,-27.95,-27.03,-17.89
8067,-5.22,-5.95,-6.59,-2.36,-0.00,-0.34,-27.95,-27.03,-17.89
8078,-5.22,-5.95,-6.59,-2.36,-0.00,-0.34,-27.95,-27.03,-17.89
8089,-5.54,-4.18,-7.17,-3.99,0.17,0.08,-27.95,-27.03,-17.89
8100,-5.55,-1.32,-7.92,-4.95,0.30,0.40,-27.95,-27.03,-17.89
8111,-5.55,-1.32,-7.92,-4.95,0.30,0.40,-27.95,-27.03,-17.89
8122,-3.64,0.07,-7.84,-4.62,0.34,0.29,-27.95,-27.03,-17.89
8133,-3.64,0.07,-7.84,-4.62,0.34,0.29,-27.95,-27.03,-17.89
8145,-4.49,-0.34,-11.70,-3.30,0.33,-0.02,-27.95,-27.03,-17.89
8155,-4.49,-0.34,-11.70,-3.30,0.33,-0.02,-27.95,-27.03,-17.89
8166,-4.57,-0.88,-10.54,-0.77,0.06,-0.14,-26.90,-18.69,-25.37
8177,-4.57,-0.88,-10.54,-0.77,0.06,-0.14,-26.90,-18.69,-25.37
8188,-5.28,-0.76,-8.35,0.58,-0.19,-0.16,-26.90,-18.69,-25.37
8199,-5.00,-1.44,-9.37,0.13,-0.12,-0.19,-26.90,-18.69,-25.37
8210,-5.00,-1.44,-9.37,0.13,-0.12,-0.19,-26.90,-18.69,-25.37
8221,-4.33,-1.43,-8.54,0.15,-0.10,-0.13,-26.90,-18.69,-25.37
8232,-4.33,-1.43,-8.54,0.15,-0.10,-0.13,-26.90,-18.69,-25.37
8243,-3.84,-0.80,-9.06,-0.27,-0.11,-0.08,-26.90,-18.69,-25.37
8254,-3.84,-0.80,-9.06,-0.27,-0.11,-0.08,-26.90,-18.69,-25.37
8265,-4.70,-0.18,-9.23,-0.16,-0.18,-0.17,-26.90,-18.69,-25.37
8276,-4.70,-0.18,-9.23,-0.16,-0.18,-0.17,-26.90,-18.69,-25.37
8287,-4.81,0.30,-9.39,-0.48,-0.40,-0.59,-27.78,-19.96,-24.86
8298,-4.81,0.30,-9.39,-0.48,-0.40,-0.59,-27.78,-19.96,-24.86
8309,-5.13,1.52,-10.03,-0.55,-0.64,-1.08,-27.78,-19.96,-24.86
8320,-4.75,2.49,-8.97,0.26,-0.81,-1.65,-27.78,-19.96,-24.86
8331,-4.75,2.49,-8.97,0.26,-0.81,-1.65,-27.78,-19.96,-24.86
8342,-4.62,1.72,-8.95,2.95,-0.70,-2.16,-27.78,-19.96,-24.86
8353,-4.62,1.72,-8.95,2.95,-0.70,-2.16,-27.78,-19.96,-24.86
8364,-4.94,0.22,-9.16,6.28,-0.79,-2.62,-27.78,-19.96,-24.86
8376,-4.94,0.22,-9.16,6.28,-0.79,-2.62,-27.78,-19.96,-24.86
8386,-4.54,-1.89,-6.88,8.10,-1.27,-2.86,-27.78,-19.96,-24.86
8397,-4.54,-1.89,-6.88,8.10,-1.27,-2.86,-27.78,-19.96,-24.86
8408,-5.68,-4.37,-3.60,7.78,-1.56,-2.55,-27.78,-19.96,-24.86
8419,-6.03,-5.80,-4.46,4.40,-1.44,-2.42,-25.67,-37.35,-6.84
8430,-6.03,-5.80,-4.46,4.40,-1.44,-2.42,-25.67,-37.35,-6.84
8441,-5.11,-5.37,-6.29,2.44,-1.61,-2.44,-25.67,-37.35,-6.84
8452,-5.11,-5.37,-6.29,2.44,-1.61,-2.44,-25.67,-37.35,-6.84
8463,-6.17,-6.06,-3.87,2.84,-2.07,-2.32,-25.67,-37.35,-6.84
8474,-6.17,-6.06,-3.87,2.84,-2.07,-2.32,-25.67,-37.35,-6.84
8485,-3.30,-12.37,-4.62,1.96,-2.10,-2.16,-25.67,-37.35,-6.84
8496,-3.30,-12.37,-4.62,1.96,-2.10,-2.16,-25.67,-37.35,-6.84
8507,-4.23,-17.28,2.15,2.79,-1.92,-0.62,-25.67,-37.35,-6.84
8518,-4.23,-17.28,2.15,2.79,-1.92,-0.62,-25.67,-37.35,-6.84
8529,-5.67,-14.06,6.79,-0.84,-1.04,1.58,-25.67,-37.35,-6.84
8540,-4.44,-6.39,-0.18,-7.71,0.03,2.44,-21.46,-40.98,4.04
8551,-4.44,-6.39,-0.18,-7.71,0.03,2.44,-21.46,-40.98,4.04
8562,-5.71,-4.13,-4.85,-7.31,0.93,2.53,-21.46,-40.98,4.04
8573,-5.71,-4.13,-4.85,-7.31,0.93,2.53,-21.46,-40.98,4.04
8584,-4.71,-1.84,-7.88,-6.63,1.32,2.43,-21.46,-40.98,4.04
8595,-4.71,-1.84,-7.88,-6.63,1.32,2.43,-21.46,-40.98,4.04
8606,-5.17,0.71,-12.53,-5.65,0.93,2.12,-21.46,-40.98,4.04
8617,-5.17,0.71,-12.53,-5.65,0.93,2.12,-21.46,-40.98,4.04
8628,-5.55,0.26,-12.41,-2.58,-0.05,1.52,-21.46,-40.98,4.04
8639,-7.49,-1.93,-10.74,-0.80,-0.97,0.74,-21.46,-40.98,4.04
8650,-7.49,-1.93,-10.74,-0.80,-0.97,0.74,-21.46,-40.98,4.04
8661,-8.60,-2.64,-7.20,0.14,-1.20,0.02,-28.83,-29.74,-14.66
8672,-8.60,-2.64,-7.20,0.14,-1.20,0.02,-28.83,-29.74,-14.66
8683,-8.63,-4.92,-6.10,0.15,-0.70,-0.38,-28.83,-29.74,-14.66
8694,-8.63,-4.92,-6.10,0.15,-0.70,-0.38,-28.83,-29.74,-14.66
8705,-6.59,-4.27,-6.01,-0.27,-0.32,-0.17,-28.83,-29.74,-14.66
8716,-6.59,-4.27,-6.01,-0.27,-0.32,-0.17,-28.83,-29.74,-14.66
8727,-6.82,-3.34,-6.08,-0.38,-0.22,-0.06,-28.83,-29.74,-14.66
8738,-6.82,-3.34,-6.08,-0.38,-0.22,-0.06,-28.83,-29.74,-14.66
8749,-6.91,-3.73,-5.99,-0.91,-0.05,-0.13,-28.83,-29.74,-14.66
8760,-5.73,-2.21,-9.68,-1.00,0.22,0.15,-28.83,-29.74,-14.66
8771,-5.73,-2.21,-9.68,-1.00,0.22,0.15,-28.83,-29.74,-14.66
8782,-5.50,-3.97,-8.23,0.23,0.33,0.63,-28.83,-29.74,-14.66
8793,-5.50,-3.97,-8.23,0.23,0.33,0.63,-28.83,-29.74,-14.66
8804,-6.08,-3.06,-9.23,-1.39,-0.40,0.69,-29.00,-27.75,-15.85
8815,-6.08,-3.06,-9.23,-1.39,-0.40,0.69,-29.00,-27.75,-15.85
8826,-7.42,-1.60,-7.46,-2.21,-1.13,0.77,-29.00,-27.75,-15.85
8837,-7.42,-1.60,-7.46,-2.21,-1.13,0.77,-29.00,-27.75,-15.85
8848,-6.99,-0.47,-7.65,-2.51,-1.12,0.77,-29.00,-27.75,-15.85
8859,-6.99,-0.47,-7.65,-2.51,-1.12,0.77,-29.00,-27.75,-15.85
8870,-6.82,-0.08,-7.28,-1.65,-0.91,0.75,-29.00,-27.75,-15.85
8881,-6.77,-0.14,-6.23,-0.57,-0.63,0.62,-29.00,-27.75,-15.85
8892,-6.77,-0.14,-6.23,-0.57,-0.63,0.62,-29.00,-27.75,-15.85
8903,-6.53,-0.67,-7.74,-0.20,-0.56,0.36,-29.00,-27.75,-15.85
8914,-6.53,-0.67,-7.74,-0.20,-0.56,0.36,-29.00,-27.75,-15.85
8925,-6.69,-1.96,-7.00,0.08,-1.06,0.34,-31.64,-24.31,-16.70
8936,-6.69,-1.96,-7.00,0.08,-1.06,0.34,-31.64,-24.31,-16.70
8947,-7.96,-1.08,-5.28,0.25,-1.33,0.53,-31.64,-24.31,-16.70
8958,-7.96,-1.08,-5.28,0.25,-1.33,0.53,-31.64,-24.31,-16.70
8969,-9.04,0.29,-5.79,0.20,-1.01,0.39,-31.64,-24.31,-16.70
8980,-8.81,-0.11,-6.95,0.45,-0.58,-0.04,-31.64,-24.31,-16.70
8991,-8.81,-0.11,-6.95,0.45,-0.58,-0.04,-31.64,-24.31,-16.70
9002,-7.99,-1.33,-7.49,0.60,-0.42,-0.20,-31.64,-24.31,-16.70
9013,-7.99,-1.33,-7.49,0.60,-0.42,-0.20,-31.64,-24.31,-16.70
9024,-6.86,-1.07,-6.83,0.53,-0.54,-0.09,-31.64,-24.31,-16.70
9035,-6.86,-1.07,-6.83,0.53,-0.54,-0.09,-31.64,-24.31,-16.70
9046,-7.08,-0.80,-6.30,0.65,-0.67,-0.03,-33.22,-23.77,-11.09
9057,-7.08,-0.80,-6.30,0.65,-0.67,-0.03,-33.22,-23.77,-11.09
9068,-8.03,-1.13,-5.84,0.87,-0.63,-0.04,-33.22,-23.77,-11.09
9079,-8.03,-1.13,-5.84,0.87,-0.63,-0.04,-33.22,-23.77,-11.09
9090,-8.34,-1.54,-6.29,0.89,-0.61,-0.14,-33.22,-23.77,-11.09
9101,-8.55,-1.98,-5.84,0.96,-0.79,-0.23,-33.22,-23.77,-11.09
9112,-8.55,-1.98,-5.84,0.96,-0.79,-0.23,-33.22,-23.77,-11.09
9123,-9.37,-2.50,-3.98,0.84,-0.80,-0.13,-33.22,-23.77,-11.09
9134,-9.37,-2.50,-3.98,0.84,-0.80,-0.13,-33.22,-23.77,-11.09
9145,-9.17,-2.78,-3.82,0.53,-0.39,0.05,-33.22,-23.77,-11.09
9156,-9.17,-2.78,-3.82,0.53,-0.39,0.05,-33.22,-23.77,-11.09
9167,-8.78,-1.81,-5.02,0.22,-0.08,0.18,-36.20,-23.95,-7.52
9179,-8.78,-1.81,-5.02,0.22,-0.08,0.18,-36.20,-23.95,-7.52
9189,-8.90,-1.26,-5.00,0.18,-0.09,0.12,-36.20,-23.95,-7.52
9200,-8.56,-1.60,-5.43,0.28,-0.08,-0.05,-36.20,-23.95,-7.52
9211,-8.56,-1.60,-5.43,0.28,-0.08,-0.05,-36.20,-23.95,-7.52
9222,-8.27,-2.09,-5.45,0.41,-0.07,-0.08,-36.20,-23.95,-7.52
9233,-8.27,-2.09,-5.45,0.41,-0.07,-0.08,-36.20,-23.95,-7.52
9244,-8.41,-2.71,-5.28,0.41,-0.02,0.03,-36.20,-23.95,-7.52
9255,-8.41,-2.71,-5.28,0.41,-0.02,0.03,-36.20,-23.95,-7.52
9266,-8.75,-1.46,-5.67,0.14,-0.01,0.16,-36.20,-23.95,-7.52
9277,-8.75,-1.46,-5.67,0.14,-0.01,0.16,-36.20,-23.95,-7.52
9288,-8.46,-1.26,-5.38,0.15,-0.04,0.05,-36.20,-23.95,-7.52
9299,-8.46,-1.26,-5.38,0.15,-0.04,0.05,-36.20,-23.95,-7.52
9310,-7.92,-2.28,-5.74,0.32,-0.00,-0.06,-35.15,-24.67,-6.50
9321,-8.29,-2.31,-5.39,0.34,-0.10,0.04,-35.15,-24.67,-6.50
9332,-8.29,-2.31,-5.39,0.34,-0.10,0.04,-35.15,-24.67,-6.50
9343,-8.89,-2.05,-4.70,0.27,-0.21,0.06,-35.15,-24.67,-6.50
9354,-8.89,-2.05,-4.70,0.27,-0.21,0.06,-35.15,-24.67,-6.50
9365,-8.89,-2.27,-4.48,0.25,-0.10,0.05,-35.15,-24.67,-6.50
9376,-8.89,-2.27,-4.48,0.25,-0.10,0.05,-35.15,-24.67,-6.50
9387,-8.52,-2.16,-5.01,0.17,0.01,0.02,-35.15,-24.67,-6.50
9398,-8.52,-2.16,-5.01,0.17,0.01,0.02,-35.15,-24.67,-6.50
9409,-8.73,-2.22,-4.84,0.10,-0.04,-0.02,-35.15,-24.67,-6.50
9420,-8.85,-2.03,-4.92,0.02,-0.02,-0.04,-35.15,-25.40,-3.78
9431,-8.85,-2.03,-4.92,0.02,-0.02,-0.04,-35.15,-25.40,-3.78
9442,-8.31,-2.23,-5.21,0.00,0.03,-0.08,-35.15,-25.40,-3.78
9454,-8.31,-2.23,-5.21,0.00,0.03,-0.08,-35.15,-25.40,-3.78
9464,-8.36,-2.09,-5.40,0.02,0.02,-0.00,-35.15,-25.40,-3.78
9475,-8.36,-2.09,-5.40,0.02,0.02,-0.00,-35.15,-25.40,-3.78
9486,-8.50,-1.74,-5.32,0.05,0.01,0.03,-35.15,-25.40,-3.78
9497,-8.50,-1.74,-5.32,0.05,0.01,0.03,-35.15,-25.40,-3.78
9508,-8.18,-2.25,-5.48,0.11,-0.02,-0.03,-35.15,-25.40,-3.78
9519,-8.18,-2.25,-5.48,0.11,-0.02,-0.03,-35.15,-25.40,-3.78
9530,-7.89,-2.32,-5.71,0.11,-0.12,0.07,-35.15,-25.40,-3.78
9541,-8.18,-1.82,-5.56,0.10,-0.27,0.18,-36.55,-25.03,-3.78
9552,-8.18,-1.82,-5.56,0.10,-0.27,0.18,-36.55,-25.03,-3.78
9563,-8.73,-2.04,-5.17,0.13,-0.40,0.19,-36.55,-25.03,-3.78
9574,-8.73,-2.04,-5.17,0.13,-0.40,0.19,-36.55,-25.03,-3.78
9585,-9.62,-2.32,-3.57,-0.04,-0.34,0.09,-36.55,-25.03,-3.78
9596,-9.62,-2.32,-3.57,-0.04,-0.34,0.09,-36.55,-25.03,-3.78
9607,-8.30,-2.94,-4.99,-0.21,-0.10,0.05,-36.55,-25.03,-3.78
9618,-8.30,-2.94,-4.99,-0.21,-0.10,0.05,-36.55,-25.03,-3.78
9629,-8.73,-1.46,-4.58,-0.41,-0.19,0.24,-36.55,-25.03,-3.78
9640,-9.16,-1.65,-4.40,-0.43,-0.21,0.12,-36.55,-25.03,-3.78
9651,-9.16,-1.65,-4.40,-0.43,-0.21,0.12,-36.55,-25.03,-3.78
9662,-8.94,-1.77,-4.63,-0.40,-0.16,0.01,-36.55,-25.03,-3.78
9673,-8.94,-1.77,-4.63,-0.40,-0.16,0.01,-36.55,-25.03,-3.78
9684,-8.74,-1.87,-4.90,-0.44,-0.15,-0.02,-36.03,-24.85,-4.63
9695,-8.74,-1.87,-4.90,-0.44,-0.15,-0.02,-36.03,-24.85,-4.63
9706,-8.79,-1.54,-5.21,-0.48,-0.15,-0.05,-36.03,-24.85,-4.63
9717,-8.79,-1.54,-5.21,-0.48,-0.15,-0.05,-36.03,-24.85,-4.63
9728,-8.90,-1.45,-5.08,-0.38,-0.16,-0.09,-36.03,-24.85,-4.63
9739,-8.90,-1.45,-5.08,-0.38,-0.16,-0.09,-36.03,-24.85,-4.63
9750,-8.56,-1.69,-4.87,-0.25,-0.13,-0.10,-36.03,-24.85,-4.63
9761,-8.90,-1.63,-4.88,-0.21,-0.08,-0.10,-36.03,-24.85,-4.63
9772,-8.90,-1.63,-4.88,-0.21,-0.08,-0.10,-36.03,-24.85,-4.63
9783,-8.73,-1.56,-5.06,-0.14,-0.07,-0.14,-36.03,-24.85,-4.63
9794,-8.73,-1.56,-5.06,-0.14,-0.07,-0.14,-36.03,-24.85,-4.63
9805,-8.70,-1.65,-5.00,-0.12,-0.09,-0.17,-37.26,-25.03,-4.12
9816,-8.70,-1.65,-5.00,-0.12,-0.09,-0.17,-37.26,-25.03,-4.12
9827,-8.63,-1.86,-4.72,-0.14,-0.13,-0.22,-37.26,-25.03,-4.12
9838,-8.63,-1.86,-4.72,-0.14,-0.13,-0.22,-37.26,-25.03,-4.12
9849,-8.84,-2.13,-4.52,-0.16,-0.10,-0.23,-37.26,-25.03,-4.12
9860,-8.84,-2.13,-4.52,-0.16,-0.10,-0.23,-37.26,-25.03,-4.12
9871,-8.92,-1.51,-4.56,-0.23,-0.09,-0.23,-37.26,-25.03,-4.12
9882,-8.77,-1.55,-5.44,-0.16,-0.10,-0.32,-37.26,-25.03,-4.12
9893,-8.77,-1.55,-5.44,-0.16,-0.10,-0.32,-37.26,-25.03,-4.12
9904,-8.60,-1.86,-5.53,-0.12,-0.11,-0.35,-37.26,-25.03,-4.12
9915,-8.60,-1.86,-5.53,-0.12,-0.11,-0.35,-37.26,-25.03,-4.12
9926,-8.69,-1.32,-5.34,-0.12,-0.16,-0.37,-35.32,-25.94,-3.95
9937,-8.69,-1.32,-5.34,-0.12,-0.16,-0.37,-35.32,-25.94,-3.95
9948,-8.35,-2.55,-4.77,0.03,-0.11,-0.40,-35.32,-25.94,-3.95
9959,-8.35,-2.55,-4.77,0.03,-0.11,-0.40,-35.32,-25.94,-3.95
9970,-8.44,-2.35,-4.56,-0.03,-0.09,-0.29,-35.32,-25.94,-3.95
9981,-8.80,-2.04,-4.99,-0.01,-0.07,-0.26,-35.32,-25.94,-3.95
9992,-8.80,-2.04,-4.99,-0.01,-0.07,-0.26,-35.32,-25.94,-3.95
10003,-8.70,-2.20,-5.10,0.03,-0.09,-0.28,-35.32,-25.94,-3.95
10014,-8.70,-2.20,-5.10,0.03,-0.09,-0.28,-35.32,-25.94,-3.95
10025,-8.48,-2.15,-4.81,0.02,-0.18,-0.34,-35.32,-25.94,-3.95
10036,-8.48,-2.15,-4.81,0.02,-0.18,-0.34,-35.32,-25.94,-3.95
10047,-8.59,-2.93,-4.55,0.06,-0.23,-0.40,-35.32,-25.94,-3.95
10058,-8.59,-2.93,-4.55,0.06,-0.23,-0.40,-35.32,-25.94,-3.95
10069,-8.65,-2.82,-4.56,0.02,-0.17,-0.27,-34.10,-27.57,-4.80
10080,-8.65,-2.82,-4.56,0.02,-0.17,-0.27,-34.10,-27.57,-4.80
10091,-8.42,-2.48,-4.03,0.04,-0.09,-0.20,-34.10,-27.57,-4.80
10102,-8.03,-2.33,-4.52,0.09,-0.02,-0.15,-34.10,-27.57,-4.80
10113,-8.03,-2.33,-4.52,0.09,-0.02,-0.15,-34.10,-27.57,-4.80
10124,-8.73,-2.25,-4.68,0.10,0.01,-0.10,-34.10,-27.57,-4.80
10135,-8.73,-2.25,-4.68,0.10,0.01,-0.10,-34.10,-27.57,-4.80
10147,-8.88,-1.17,-5.42,0.07,0.02,-0.11,-34.10,-27.57,-4.80
10157,-8.88,-1.17,-5.42,0.07,0.02,-0.11,-34.10,-27.57,-4.80
10168,-8.78,-2.42,-5.11,0.28,-0.03,-0.20,-34.10,-27.57,-4.80
10179,-8.78,-2.42,-5.11,0.28,-0.03,-0.20,-34.10,-27.57,-4.80
10190,-8.77,-1.99,-4.58,0.33,0.06,-0.09,-33.04,-27.93,-1.40
10201,-8.23,-2.52,-4.37,0.40,0.14,-0.01,-33.04,-27.93,-1.40
10212,-8.23,-2.52,-4.37,0.40,0.14,-0.01,-33.04,-27.93,-1.40
10223,-8.61,-2.05,-4.47,0.43,0.19,0.05,-33.04,-27.93,-1.40
10234,-8.61,-2.05,-4.47,0.43,0.19,0.05,-33.04,-27.93,-1.40
10245,-8.68,-2.73,-4.43,0.44,0.15,0.03,-33.04,-27.93,-1.40
10256,-8.68,-2.73,-4.43,0.44,0.15,0.03,-33.04,-27.93,-1.40
10267,-8.76,-2.70,-4.10,0.29,0.10,0.12,-33.04,-27.93,-1.40
10283,-8.76,-2.70,-4.10,0.29,0.10,0.12,-33.04,-27.93,-1.40
10289,-8.74,-2.65,-3.98,0.14,0.09,0.18,-33.04,-27.93,-1.40
10300,-8.74,-2.65,-3.98,0.14,0.09,0.18,-33.04,-27.93,-1.40
10311,-8.88,-2.67,-4.25,-0.05,0.07,0.23,-33.39,-29.38,-2.42
10322,-8.87,-1.63,-4.97,-0.21,0.07,0.40,-33.39,-29.38,-2.42
10333,-8.87,-1.63,-4.97,-0.21,0.07,0.40,-33.39,-29.38,-2.42
10344,-8.89,-1.60,-4.38,-0.18,0.09,0.42,-33.39,-29.38,-2.42
10355,-8.89,-1.60,-4.38,-0.18,0.09,0.42,-33.39,-29.38,-2.42
10366,-8.91,-1.77,-4.25,-0.05,0.15,0.37,-33.39,-29.38,-2.42
10378,-8.91,-1.77,-4.25,-0.05,0.15,0.37,-33.39,-29.38,-2.42
10388,-8.57,-2.66,-4.75,0.05,0.18,0.32,-33.39,-29.38,-2.42
10399,-8.57,-2.66,-4.75,0.05,0.18,0.32,-33.39,-29.38,-2.42
10410,-8.72,-2.78,-4.77,-0.03,0.17,0.39,-33.39,-29.38,-2.42
10421,-8.44,-2.79,-5.14,-0.12,0.13,0.48,-35.15,-25.40,-4.12
10432,-8.44,-2.79,-5.14,-0.12,0.13,0.48,-35.15,-25.40,-4.12
10443,-8.85,-1.52,-4.52,-0.14,0.06,0.52,-35.15,-25.40,-4.12
10454,-8.85,-1.52,-4.52,-0.14,0.06,0.52,-35.15,-25.40,-4.12
10465,-8.72,-1.94,-4.70,-0.06,0.07,0.37,-35.15,-25.40,-4.12
10476,-8.72,-1.94,-4.70,-0.06,0.07,0.37,-35.15,-25.40,-4.12
10487,-8.98,-1.80,-4.70,-0.05,0.02,0.27,-35.15,-25.40,-4.12
10498,-8.98,-1.80,-4.70,-0.05,0.02,0.27,-35.15,-25.40,-4.12
10509,-8.78,-0.98,-4.58,-0.04,0.01,0.30,-35.15,-25.40,-4.12
10520,-8.78,-0.98,-4.58,-0.04,0.01,0.30,-35.15,-25.40,-4.12
10531,-8.82,-1.73,-4.58,0.06,0.08,0.22,-35.15,-25.40,-4.12
10542,-8.69,-2.03,-5.11,-0.00,0.11,0.25,-35.15,-25.40,-4.12
10553,-8.69,-2.03,-5.11,-0.00,0.11,0.25,-35.15,-25.40,-4.12
10564,-8.77,-1.65,-5.26,-0.11,0.06,0.28,-37.26,-23.59,-2.08
10575,-8.77,-1.65,-5.26,-0.11,0.06,0.28,-37.26,-23.59,-2.08
10586,-8.93,-1.16,-4.86,-0.09,0.02,0.29,-37.26,-23.59,-2.08
10597,-8.93,-1.16,-4.86,-0.09,0.02,0.29,-37.26,-23.59,-2.08
10609,-8.75,-1.80,-4.88,-0.06,0.03,0.24,-37.26,-23.59,-2.08
10619,-8.75,-1.80,-4.88,-0.06,0.03,0.24,-37.26,-23.59,-2.08
10630,-8.85,-1.18,-4.53,-0.09,0.02,0.22,-37.26,-23.59,-2.08
10641,-8.93,-0.90,-5.15,-0.06,0.03,0.17,-37.26,-23.59,-2.08
10652,-8.93,-0.90,-5.15,-0.06,0.03,0.17,-37.26,-23.59,-2.08
10663,-8.64,-2.16,-5.19,-0.01,0.03,0.15,-37.26,-23.59,-2.08
10674,-8.64,-2.16,-5.19,-0.01,0.03,0.15,-37.26,-23.59,-2.08
10685,-8.71,-1.21,-4.88,-0.06,-0.03,0.25,-35.50,-23.59,-3.78
10696,-8.71,-1.21,-4.88,-0.06,-0.03,0.25,-35.50,-23.59,-3.78
10707,-8.88,-1.33,-4.78,-0.04,0.00,0.19,-35.50,-23.59,-3.78
10718,-8.88,-1.33,-4.78,-0.04,0.00,0.19,-35.50,-23.59,-3.78
10729,-8.84,-1.44,-4.84,-0.06,0.02,0.13,-35.50,-23.59,-3.78
10740,-8.84,-1.44,-4.84,-0.06,0.02,0.13,-35.50,-23.59,-3.78
10751,-8.51,-2.07,-4.75,-0.06,0.00,0.15,-35.50,-23.59,-3.78
10762,-8.70,-1.53,-4.63,-0.09,-0.01,0.20,-35.50,-23.59,-3.78
10773,-8.70,-1.53,-4.63,-0.09,-0.01,0.20,-35.50,-23.59,-3.78
10784,-8.76,-1.67,-4.88,-0.11,-0.00,0.17,-35.50,-23.59,-3.78
10795,-8.76,-1.67,-4.88,-0.11,-0.00,0.17,-35.50,-23.59,-3.78
10806,-8.69,-1.45,-4.73,-0.17,-0.03,0.19,-37.26,-21.41,-3.44
10817,-8.69,-1.45,-4.73,-0.17,-0.03,0.19,-37.26,-21.41,-3.44
10828,-8.78,-1.44,-4.87,-0.14,-0.06,0.19,-37.26,-21.41,-3.44
10839,-8.78,-1.44,-4.87,-0.14,-0.06,0.19,-37.26,-21.41,-3.44
10850,-8.91,-1.07,-4.64,-0.14,-0.06,0.18,-37.26,-21.41,-3.44
10861,-9.00,-1.20,-4.69,-0.17,-0.02,0.10,-37.26,-21.41,-3.44
10872,-9.00,-1.20,-4.69,-0.17,-0.02,0.10,-37.26,-21.41,-3.44
10883,-8.91,-1.42,-5.10,-0.20,-0.01,0.08,-37.26,-21.41,-3.44
10894,-8.91,-1.42,-5.10,-0.20,-0.01,0.08,-37.26,-21.41,-3.44
10905,-8.77,-1.24,-4.67,-0.19,-0.06,0.14,-37.26,-21.41,-3.44
10916,-8.77,-1.24,-4.67,-0.19,-0.06,0.14,-37.26,-21.41,-3.44
10927,-8.96,-0.97,-4.82,-0.18,-0.05,0.13,-37.26,-21.41,-3.44
10938,-8.96,-0.97,-4.82,-0.18,-0.05,0.13,-37.26,-21.41,-3.44
10949,-8.61,-0.92,-4.48,-0.17,-0.08,0.05,-36.73,-20.14,-3.95
10960,-8.61,-0.92,-4.48,-0.17,-0.08,0.05,-36.73,-20.14,-3.95
10971,-9.17,-1.10,-4.35,-0.17,-0.03,0.01,-36.73,-20.14,-3.95
10982,-8.88,-0.83,-4.89,-0.20,-0.03,0.05,-36.73,-20.14,-3.95
10993,-8.88,-0.83,-4.89,-0.20,-0.03,0.05,-36.73,-20.14,-3.95
11004,-8.88,-1.01,-4.93,-0.15,-0.06,0.03,-36.73,-20.14,-3.95
11016,-8.88,-1.01,-4.93,-0.15,-0.06,0.03,-36.73,-20.14,-3.95
11026,-8.74,-0.53,-4.99,-0.13,-0.09,-0.02,-36.73,-20.14,-3.95
11037,-8.74,-0.53,-4.99,-0.13,-0.09,-0.02,-36.73,-20.14,-3.95
11048,-9.18,-0.63,-4.70,-0.14,-0.08,-0.07,-36.73,-20.14,-3.95
11059,-9.18,-0.63,-4.70,-0.14,-0.08,-0.07,-36.73,-20.14,-3.95
11070,-9.04,-0.82,-4.94,-0.14,-0.04,-0.12,-36.38,-19.42,-5.31
11081,-9.04,-0.82,-4.94,-0.14,-0.04,-0.12,-36.38,-19.42,-5.31
11092,-8.97,-0.79,-4.68,-0.13,-0.08,-0.21,-36.38,-19.42,-5.31
11108,-9.27,-0.76,-4.85,-0.11,-0.07,-0.22,-36.38,-19.42,-5.31
11114,-9.27,-0.76,-4.85,-0.11,-0.07,-0.22,-36.38,-19.42,-5.31
11125,-8.86,-0.78,-5.13,-0.10,-0.07,-0.25,-36.38,-19.42,-5.31
11136,-8.86,-0.78,-5.13,-0.10,-0.07,-0.25,-36.38,-19.42,-5.31
11147,-8.87,-1.17,-4.34,-0.08,-0.10,-0.33,-36.38,-19.42,-5.31
11158,-8.87,-1.17,-4.34,-0.08,-0.10,-0.33,-36.38,-19.42,-5.31
11169,-8.63,-0.93,-5.07,-0.10,-0.05,-0.34,-36.38,-19.42,-5.31
11180,-8.63,-0.93,-5.07,-0.10,-0.05,-0.34,-36.38,-19.42,-5.31
11191,-8.79,-0.87,-4.69,-0.10,-0.07,-0.38,-36.73,-22.32,-4.29
11202,-8.68,-1.18,-5.46,-0.06,-0.07,-0.41,-36.73,-22.32,-4.29
11213,-8.68,-1.18,-5.46,-0.06,-0.07,-0.41,-36.73,-22.32,-4.29
11224,-8.48,-1.02,-4.86,-0.02,-0.12,-0.41,-36.73,-22.32,-4.29
11235,-8.48,-1.02,-4.86,-0.02,-0.12,-0.41,-36.73,-22.32,-4.29
11246,-8.84,-1.29,-4.81,0.08,-0.14,-0.47,-36.73,-22.32,-4.29
11257,-8.84,-1.29,-4.81,0.08,-0.14,-0.47,-36.73,-22.32,-4.29
11268,-8.81,-1.55,-4.25,0.12,-0.11,-0.49,-36.73,-22.32,-4.29
11279,-8.81,-1.55,-4.25,0.12,-0.11,-0.49,-36.73,-22.32,-4.29
11290,-8.88,-1.26,-4.86,0.12,-0.06,-0.47,-36.73,-22.32,-4.29
11301,-8.88,-1.26,-4.86,0.12,-0.06,-0.47,-36.73,-22.32,-4.29
11312,-8.78,-1.14,-5.78,0.19,-0.05,-0.42,-36.73,-22.32,-4.29
11323,-8.90,-1.77,-4.24,0.25,-0.10,-0.45,-35.85,-22.50,-2.76
11334,-8.90,-1.77,-4.24,0.25,-0.10,-0.45,-35.85,-22.50,-2.76
11345,-8.91,-2.31,-4.10,0.23,-0.08,-0.49,-35.85,-22.50,-2.76
11356,-8.91,-2.31,-4.10,0.23,-0.08,-0.49,-35.85,-22.50,-2.76
11367,-9.42,-1.20,-5.44,0.16,-0.08,-0.49,-35.85,-22.50,-2.76
11378,-9.42,-1.20,-5.44,0.16,-0.08,-0.49,-35.85,-22.50,-2.76
11389,-8.69,-1.88,-4.54,0.21,-0.11,-0.56,-35.85,-22.50,-2.76
11400,-8.69,-1.88,-4.54,0.21,-0.11,-0.56,-35.85,-22.50,-2.76
11411,-9.10,-2.37,-4.70,0.26,-0.13,-0.56,-35.85,-22.50,-2.76
11423,-8.88,-2.31,-4.66,0.31,-0.09,-0.44,-35.85,-22.50,-2.76
11433,-8.88,-2.31,-4.66,0.31,-0.09,-0.44,-35.85,-22.50,-2.76
11444,-8.27,-1.93,-4.53,0.33,-0.04,-0.34,-34.80,-26.85,-2.08
11455,-8.27,-1.93,-4.53,0.33,-0.04,-0.34,-34.80,-26.85,-2.08
11466,-9.16,-1.67,-4.66,0.40,0.00,-0.37,-34.80,-26.85,-2.08
11477,-9.16,-1.67,-4.66,0.40,0.00,-0.37,-34.80,-26.85,-2.08
11488,-8.99,-2.68,-4.41,0.47,0.03,-0.36,-34.80,-26.85,-2.08
11499,-8.99,-2.68,-4.41,0.47,0.03,-0.36,-34.80,-26.85,-2.08
11515,-8.83,-2.17,-4.28,0.33,0.06,-0.12,-34.80,-26.85,-2.08
11521,-8.83,-2.17,-4.28,0.33,0.06,-0.12,-34.80,-26.85,-2.08
11532,-9.05,-1.70,-3.77,0.24,0.06,-0.05,-34.80,-26.85,-2.08
11543,-8.93,-2.36,-3.49,0.31,0.11,-0.11,-34.80,-26.85,-2.08
11554,-8.93,-2.36,-3.49,0.31,0.11,-0.11,-34.80,-26.85,-2.08
11565,-8.78,-2.76,-4.69,0.26,0.19,-0.14,-34.62,-28.84,-1.23
11576,-8.78,-2.76,-4.69,0.26,0.19,-0.14,-34.62,-28.84,-1.23
11587,-8.84,-3.64,-4.67,0.20,0.15,-0.01,-34.62,-28.84,-1.23
11598,-8.84,-3.64,-4.67,0.20,0.15,-0.01,-34.62,-28.84,-1.23
11609,-8.60,-2.47,-4.53,0.04,0.18,0.33,-34.62,-28.84,-1.23
11620,-8.60,-2.47,-4.53,0.04,0.18,0.33,-34.62,-28.84,-1.23
11631,-8.67,-2.26,-4.37,0.02,0.18,0.31,-34.62,-28.84,-1.23
11642,-8.76,-3.26,-4.07,0.01,0.13,0.24,-34.62,-28.84,-1.23
11653,-8.76,-3.26,-4.07,0.01,0.13,0.24,-34.62,-28.84,-1.23
11664,-9.04,-2.06,-4.55,-0.16,0.19,0.45,-34.62,-28.84,-1.23
11675,-9.04,-2.06,-4.55,-0.16,0.19,0.45,-34.62,-28.84,-1.23
11686,-8.76,-2.22,-4.70,-0.14,0.17,0.49,-34.80,-26.85,-2.08
11697,-8.76,-2.22,-4.70,-0.14,0.17,0.49,-34.80,-26.85,-2.08
11708,-8.60,-1.95,-4.19,-0.16,0.18,0.51,-34.80,-26.85,-2.08
11719,-8.60,-1.95,-4.19,-0.16,0.18,0.51,-34.80,-26.85,-2.08
11730,-8.85,-2.03,-4.60,-0.16,0.18,0.43,-34.80,-26.85,-2.08
11741,-8.85,-2.03,-4.60,-0.16,0.18,0.43,-34.80,-26.85,-2.08
11752,-9.18,-1.39,-4.51,-0.15,0.12,0.39,-34.80,-26.85,-2.08
11763,-8.62,-2.00,-4.78,-0.09,0.10,0.36,-34.80,-26.85,-2.08
11774,-8.62,-2.00,-4.78,-0.09,0.10,0.36,-34.80,-26.85,-2.08
11785,-8.90,-1.39,-4.99,-0.19,0.07,0.42,-34.80,-26.85,-2.08
11796,-8.90,-1.39,-4.99,-0.19,0.07,0.42,-34.80,-26.85,-2.08
11807,-9.07,-1.54,-4.06,-0.15,0.06,0.44,-34.80,-26.85,-2.08
11818,-9.07,-1.54,-4.06,-0.15,0.06,0.44,-34.80,-26.85,-2.08
11829,-8.88,-1.79,-4.81,-0.12,0.07,0.34,-36.38,-23.40,-3.95
11840,-8.88,-1.79,-4.81,-0.12,0.07,0.34,-36.38,-23.40,-3.95
11851,-8.81,-1.83,-4.63,-0.13,0.06,0.34,-36.38,-23.40,-3.95
11862,-8.74,-1.91,-4.74,-0.17,0.03,0.33,-36.38,-23.40,-3.95
11873,-8.74,-1.91,-4.74,-0.17,0.03,0.33,-36.38,-23.40,-3.95
11884,-8.97,-1.52,-4.62,-0.16,0.01,0.37,-36.38,-23.40,-3.95
11895,-8.97,-1.52,-4.62,-0.16,0.01,0.37,-36.38,-23.40,-3.95
11906,-8.85,-1.81,-4.08,-0.19,0.01,0.30,-36.38,-23.40,-3.95
11917,-8.85,-1.81,-4.08,-0.19,0.01,0.30,-36.38,-23.40,-3.95
11928,-8.92,-1.63,-4.67,-0.24,0.05,0.24,-36.38,-23.40,-3.95
11939,-8.92,-1.63,-4.67,-0.24,0.05,0.24,-36.38,-23.40,-3.95
11950,-8.57,-1.50,-4.64,-0.28,-0.00,0.24,-35.32,-22.68,-4.63
11961,-8.57,-1.50,-4.64,-0.28,-0.00,0.24,-35.32,-22.68,-4.63
11972,-9.31,-1.14,-5.22,-0.25,-0.04,0.19,-35.32,-22.68,-4.63
11983,-8.90,-0.81,-4.59,-0.19,-0.06,0.16,-35.32,-22.68,-4.63
11994,-8.90,-0.81,-4.59,-0.19,-0.06,0.16,-35.32,-22.68,-4.63
12005,-8.76,-1.54,-4.86,-0.17,-0.03,0.06,-35.32,-22.68,-4.63
12016,-8.76,-1.54,-4.86,-0.17,-0.03,0.06,-35.32,-22.68,-4.63
12027,-8.82,-0.84,-4.55,-0.20,-0.05,0.08,-35.32,-22.68,-4.63
12038,-8.82,-0.84,-4.55,-0.20,-0.05,0.08,-35.32,-22.68,-4.63
12049,-8.90,-1.27,-4.66,-0.18,-0.02,0.03,-35.32,-22.68,-4.63
12060,-8.90,-1.27,-4.66,-0.18,-0.02,0.03,-35.32,-22.68,-4.63
12071,-9.13,-1.11,-4.76,-0.18,-0.01,0.06,-36.90,-22.14,-4.12
12082,-9.13,-1.11,-4.76,-0.18,-0.01,0.06,-36.90,-22.14,-4.12
12093,-8.66,-1.38,-5.41,-0.18,-0.05,0.08,-36.90,-22.14,-4.12
12104,-8.68,-0.50,-4.60,-0.18,-0.14,0.11,-36.90,-22.14,-4.12
12116,-8.68,-0.50,-4.60,-0.18,-0.14,0.11,-36.90,-22.14,-4.12
12126,-8.91,-1.07,-4.40,-0.13,-0.04,0.01,-36.90,-22.14,-4.12
12137,-8.91,-1.07,-4.40,-0.13,-0.04,0.01,-36.90,-22.14,-4.12
12148,-8.88,-1.08,-4.75,-0.16,0.00,-0.01,-36.90,-22.14,-4.12
12159,-8.88,-1.08,-4.75,-0.16,0.00,-0.01,-36.90,-22.14,-4.12
12170,-9.09,-0.95,-4.56,-0.15,-0.05,-0.00,-36.90,-22.14,-4.12
12181,-9.09,-0.95,-4.56,-0.15,-0.05,-0.00,-36.90,-22.14,-4.12
12192,-9.20,-0.86,-4.14,-0.13,-0.12,-0.06,-36.90,-22.14,-4.12
12203,-9.13,-1.67,-3.74,-0.10,-0.10,-0.16,-35.68,-20.51,-4.63
12214,-9.13,-1.67,-3.74,-0.10,-0.10,-0.16,-35.68,-20.51,-4.63
12225,-8.86,-1.09,-4.53,-0.14,-0.05,-0.15,-35.68,-20.51,-4.63
12236,-8.86,-1.09,-4.53,-0.14,-0.05,-0.15,-35.68,-20.51,-4.63
12247,-8.91,-1.06,-4.83,-0.14,-0.03,-0.14,-35.68,-20.51,-4.63
12258,-8.91,-1.06,-4.83,-0.14,-0.03,-0.14,-35.68,-20.51,-4.63
12269,-8.99,-0.78,-4.95,-0.13,-0.09,-0.20,-35.68,-20.51,-4.63
12280,-8.99,-0.78,-4.95,-0.13,-0.09,-0.20,-35.68,-20.51,-4.63
12291,-8.87,-0.80,-5.28,-0.09,-0.10,-0.28,-35.68,-20.51,-4.63
12302,-8.87,-0.80,-5.28,-0.09,-0.10,-0.28,-35.68,-20.51,-4.63
12313,-8.83,-0.71,-5.35,-0.05,-0.09,-0.27,-35.68,-20.51,-4.63
12324,-8.91,-1.64,-4.45,-0.02,-0.05,-0.24,-35.85,-21.41,-4.12
12335,-8.91,-1.64,-4.45,-0.02,-0.05,-0.24,-35.85,-21.41,-4.12
12346,-8.91,-0.80,-4.59,-0.07,-0.08,-0.27,-35.85,-21.41,-4.12
12357,-8.91,-0.80,-4.59,-0.07,-0.08,-0.27,-35.85,-21.41,-4.12
12368,-8.84,-1.31,-4.82,-0.01,-0.08,-0.35,-35.85,-21.41,-4.12
12379,-8.84,-1.31,-4.82,-0.01,-0.08,-0.35,-35.85,-21.41,-4.12
12390,-8.88,-0.95,-5.17,0.00,-0.08,-0.33,-35.85,-21.41,-4.12
12401,-8.88,-0.95,-5.17,0.00,-0.08,-0.33,-35.85,-21.41,-4.12
12412,-8.90,-1.71,-4.51,0.05,-0.07,-0.33,-35.85,-21.41,-4.12
12428,-8.72,-0.91,-4.53,0.03,-0.07,-0.29,-35.85,-21.41,-4.12
12434,-8.72,-0.91,-4.53,0.03,-0.07,-0.29,-35.85,-21.41,-4.12
12445,-8.84,-1.53,-5.14,0.08,-0.04,-0.37,-34.97,-23.40,-4.63
12456,-8.84,-1.53,-5.14,0.08,-0.04,-0.37,-34.97,-23.40,-4.63
12467,-8.85,-0.82,-5.44,0.06,-0.03,-0.29,-34.97,-23.40,-4.63
12478,-8.85,-0.82,-5.44,0.06,-0.03,-0.29,-34.97,-23.40,-4.63
12489,-8.69,-1.19,-5.03,0.11,-0.07,-0.34,-34.97,-23.40,-4.63
12500,-8.69,-1.19,-5.03,0.11,-0.07,-0.34,-34.97,-23.40,-4.63
12511,-8.79,-1.70,-5.10,0.13,-0.10,-0.38,-34.97,-23.40,-4.63
12522,-8.79,-1.70,-5.10,0.13,-0.10,-0.38,-34.97,-23.40,-4.63
12533,-9.08,-1.19,-5.24,0.11,-0.10,-0.37,-34.97,-23.40,-4.63
12544,-8.79,-1.37,-4.96,0.16,-0.10,-0.38,-34.97,-23.40,-4.63
12555,-8.79,-1.37,-4.96,0.16,-0.10,-0.38,-34.97,-23.40,-4.63
12566,-8.71,-1.55,-5.00,0.18,-0.09,-0.31,-34.97,-23.40,-4.63
12577,-8.71,-1.55,-5.00,0.18,-0.09,-0.31,-34.97,-23.40,-4.63
12588,-8.61,-1.71,-4.25,0.20,-0.11,-0.30,-34.80,-25.03,-4.12
12599,-8.61,-1.71,-4.25,0.20,-0.11,-0.30,-34.80,-25.03,-4.12
12610,-9.03,-2.32,-4.10,0.24,-0.09,-0.39,-34.80,-25.03,-4.12
12621,-9.03,-2.32,-4.10,0.24,-0.09,-0.39,-34.80,-25.03,-4.12
12632,-8.85,-1.96,-4.59,0.22,-0.07,-0.36,-34.80,-25.03,-4.12
12643,-8.24,-2.65,-4.58,0.26,-0.03,-0.27,-34.80,-25.03,-4.12
12654,-8.24,-2.65,-4.58,0.26,-0.03,-0.27,-34.80,-25.03,-4.12
12665,-8.84,-1.98,-4.18,0.27,-0.06,-0.25,-34.80,-25.03,-4.12
12676,-8.84,-1.98,-4.18,0.27,-0.06,-0.25,-34.80,-25.03,-4.12
12687,-8.75,-1.95,-4.40,0.34,-0.02,-0.30,-34.80,-25.03,-4.12
12698,-8.75,-1.95,-4.40,0.34,-0.02,-0.30,-34.80,-25.03,-4.12
12709,-9.02,-2.73,-4.61,0.37,0.04,-0.30,-34.10,-27.21,-2.08
12720,-9.02,-2.73,-4.61,0.37,0.04,-0.30,-34.10,-27.21,-2.08
12731,-8.77,-2.11,-4.43,0.32,0.06,-0.21,-34.10,-27.21,-2.08
12743,-8.77,-2.11,-4.43,0.32,0.06,-0.21,-34.10,-27.21,-2.08
12753,-8.76,-2.75,-4.56,0.38,0.14,-0.16,-34.10,-27.21,-2.08
12764,-9.40,-2.25,-4.53,0.29,0.13,-0.01,-34.10,-27.21,-2.08
12775,-9.40,-2.25,-4.53,0.29,0.13,-0.01,-34.10,-27.21,-2.08
12786,-8.82,-1.97,-4.18,0.18,0.10,0.07,-34.10,-27.21,-2.08
12797,-8.82,-1.97,-4.18,0.18,0.10,0.07,-34.10,-27.21,-2.08
12808,-8.96,-2.37,-4.00,0.16,0.16,0.13,-34.10,-27.21,-2.08
12819,-8.96,-2.37,-4.00,0.16,0.16,0.13,-34.10,-27.21,-2.08
12830,-9.27,-1.74,-4.36,0.01,0.16,0.18,-34.62,-27.39,-0.55
12841,-9.27,-1.74,-4.36,0.01,0.16,0.18,-34.62,-27.39,-0.55
12852,-9.12,-2.92,-3.81,-0.02,0.14,0.15,-34.62,-27.39,-0.55
12863,-8.79,-2.32,-5.15,-0.20,0.14,0.31,-34.62,-27.39,-0.55
12874,-8.79,-2.32,-5.15,-0.20,0.14,0.31,-34.62,-27.39,-0.55
12885,-9.03,-1.63,-4.82,-0.27,0.10,0.43,-34.62,-27.39,-0.55
12896,-9.03,-1.63,-4.82,-0.27,0.10,0.43,-34.62,-27.39,-0.55
12907,-8.78,-2.49,-4.89,-0.27,0.04,0.40,-34.62,-27.39,-0.55
12918,-8.78,-2.49,-4.89,-0.27,0.04,0.40,-34.62,-27.39,-0.55
12929,-8.72,-2.15,-4.16,-0.31,0.03,0.46,-34.62,-27.39,-0.55
12940,-8.72,-2.15,-4.16,-0.31,0.03,0.46,-34.62,-27.39,-0.55
12951,-9.21,-1.32,-4.69,-0.29,0.07,0.45,-34.62,-27.39,-0.55
12962,-9.21,-1.32,-4.69,-0.29,0.07,0.45,-34.62,-27.39,-0.55
12973,-8.96,-2.02,-4.43,-0.19,0.08,0.44,-34.97,-24.13,-3.95
12984,-8.97,-1.93,-4.16,-0.22,0.07,0.48,-34.97,-24.13,-3.95
12995,-8.97,-1.93,-4.16,-0.22,0.07,0.48,-34.97,-24.13,-3.95
13006,-9.07,-1.12,-4.42,-0.26,0.07,0.44,-34.97,-24.13,-3.95
13017,-9.07,-1.12,-4.42,-0.26,0.07,0.44,-34.97,-24.13,-3.95
13028,-9.18,-1.67,-4.93,-0.20,0.05,0.30,-34.97,-24.13,-3.95
13039,-9.18,-1.67,-4.93,-0.20,0.05,0.30,-34.97,-24.13,-3.95
13050,-8.93,-1.21,-4.91,-0.23,-0.00,0.31,-34.97,-24.13,-3.95
13061,-8.93,-1.21,-4.91,-0.23,-0.00,0.31,-34.97,-24.13,-3.95
13072,-8.79,-1.34,-4.53,-0.19,-0.02,0.32,-34.97,-24.13,-3.95
13083,-9.10,-1.35,-4.73,-0.16,0.02,0.29,-34.97,-24.13,-3.95
13094,-9.10,-1.35,-4.73,-0.16,0.02,0.29,-36.73,-22.32,-4.63
13105,-9.05,-1.00,-4.36,-0.15,0.01,0.24,-36.73,-22.32,-4.63
13116,-9.05,-1.00,-4.36,-0.15,0.01,0.24,-36.73,-22.32,-4.63
13127,-9.17,-0.98,-4.74,-0.16,0.02,0.22,-36.73,-22.32,-4.63
13138,-9.17,-0.98,-4.74,-0.16,0.02,0.22,-36.73,-22.32,-4.63
13149,-9.40,-0.73,-5.03,-0.18,0.03,0.22,-36.73,-22.32,-4.63
13160,-9.40,-0.73,-5.03,-0.18,0.03,0.22,-36.73,-22.32,-4.63
13171,-8.77,-1.53,-4.28,-0.15,-0.01,0.20,-36.73,-22.32,-4.63
13182,-8.77,-1.53,-4.28,-0.15,-0.01,0.20,-36.73,-22.32,-4.63
13193,-9.08,-0.98,-4.43,-0.18,-0.03,0.23,-36.73,-22.32,-4.63
13204,-9.38,-0.71,-4.40,-0.19,-0.02,0.20,-36.20,-21.05,-3.10
13215,-9.38,-0.71,-4.40,-0.19,-0.02,0.20,-36.20,-21.05,-3.10
13226,-9.53,-1.00,-4.25,-0.23,-0.06,0.14,-36.20,-21.05,-3.10
13237,-9.53,-1.00,-4.25,-0.23,-0.06,0.14,-36.20,-21.05,-3.10
13248,-9.03,-1.39,-4.62,-0.24,-0.03,0.15,-36.20,-21.05,-3.10
13259,-9.03,-1.39,-4.62,-0.24,-0.03,0.15,-36.20,-21.05,-3.10
13270,-8.84,-0.55,-4.41,-0.25,-0.08,0.18,-36.20,-21.05,-3.10
13281,-8.84,-0.55,-4.41,-0.25,-0.08,0.18,-36.20,-21.05,-3.10
13292,-9.02,-1.21,-4.58,-0.25,-0.07,0.11,-36.20,-21.05,-3.10
13303,-9.02,-1.21,-4.58,-0.25,-0.07,0.11,-36.20,-21.05,-3.10
13314,-8.84,-0.67,-4.72,-0.25,-0.07,0.17,-36.20,-21.05,-3.10
13325,-8.93,-0.67,-4.94,-0.20,-0.08,0.14,-36.38,-20.51,-3.27
13336,-8.93,-0.67,-4.94,-0.20,-0.08,0.14,-36.38,-20.51,-3.27
13347,-9.07,-0.66,-4.30,-0.20,-0.08,0.08,-36.38,-20.51,-3.27
13358,-9.07,-0.66,-4.30,-0.20,-0.08,0.08,-36.38,-20.51,-3.27
13369,-8.93,-0.77,-4.35,-0.20,-0.05,-0.02,-36.38,-20.51,-3.27
13380,-8.93,-0.77,-4.35,-0.20,-0.05,-0.02,-36.38,-20.51,-3.27
13391,-9.32,-0.98,-4.75,-0.18,-0.03,-0.10,-36.38,-20.51,-3.27
13402,-9.32,-0.98,-4.75,-0.18,-0.03,-0.10,-36.38,-20.51,-3.27
13413,-9.23,-0.39,-5.03,-0.16,-0.04,-0.14,-36.38,-20.51,-3.27
13424,-8.97,-0.90,-4.28,-0.10,-0.03,-0.22,-36.38,-20.51,-3.27
13435,-8.97,-0.90,-4.28,-0.10,-0.03,-0.22,-36.38,-20.51,-3.27
13446,-8.84,-0.84,-5.00,-0.07,-0.01,-0.28,-36.38,-20.51,-3.27
13458,-8.84,-0.84,-5.00,-0.07,-0.01,-0.28,-36.38,-20.51,-3.27
13468,-8.88,-1.21,-4.49,-0.01,-0.05,-0.32,-37.78,-21.59,-3.61
13479,-8.88,-1.21,-4.49,-0.01,-0.05,-0.32,-37.78,-21.59,-3.61
13490,-9.11,-1.43,-4.58,0.04,-0.08,-0.37,-37.78,-21.59,-3.61
13501,-9.11,-1.43,-4.58,0.04,-0.08,-0.37,-37.78,-21.59,-3.61
13512,-9.05,-1.25,-4.31,0.05,-0.10,-0.37,-37.78,-21.59,-3.61
13523,-9.05,-1.25,-4.31,0.05,-0.10,-0.37,-37.78,-21.59,-3.61
13534,-8.86,-0.85,-4.56,0.05,-0.03,-0.36,-37.78,-21.59,-3.61
13545,-8.98,-1.22,-4.90,0.09,-0.02,-0.36,-37.78,-21.59,-3.61
13556,-8.98,-1.22,-4.90,0.09,-0.02,-0.36,-37.78,-21.59,-3.61
13567,-8.89,-1.18,-4.41,0.12,-0.03,-0.32,-37.78,-21.59,-3.61
13578,-8.89,-1.18,-4.41,0.12,-0.03,-0.32,-37.78,-21.59,-3.61
13589,-9.22,-1.23,-4.94,0.17,-0.02,-0.38,-34.97,-22.32,-4.29
13600,-9.22,-1.23,-4.94,0.17,-0.02,-0.38,-34.97,-22.32,-4.29
13611,-8.81,-0.71,-4.84,0.16,-0.02,-0.39,-34.97,-22.32,-4.29
13622,-8.81,-0.71,-4.84,0.16,-0.02,-0.39,-34.97,-22.32,-4.29
13633,-8.84,-1.95,-5.16,0.18,0.00,-0.38,-34.97,-22.32,-4.29
13644,-8.85,-0.77,-4.89,0.08,-0.03,-0.23,-34.97,-22.32,-4.29
13655,-8.85,-0.77,-4.89,0.08,-0.03,-0.23,-34.97,-22.32,-4.29
13666,-8.75,-1.14,-4.77,0.13,-0.04,-0.28,-34.97,-22.32,-4.29
13677,-8.75,-1.14,-4.77,0.13,-0.04,-0.28,-34.97,-22.32,-4.29
13688,-8.81,-1.40,-4.71,0.16,-0.07,-0.34,-34.97,-22.32,-4.29
13699,-8.81,-1.40,-4.71,0.16,-0.07,-0.34,-34.97,-22.32,-4.29
13710,-8.95,-1.48,-4.50,0.21,-0.04,-0.40,-36.20,-26.12,-3.10
13721,-8.95,-1.48,-4.50,0.21,-0.04,-0.40,-36.20,-26.12,-3.10
13732,-8.97,-1.69,-4.73,0.23,-0.02,-0.38,-36.20,-26.12,-3.10
13743,-8.97,-1.69,-4.73,0.23,-0.02,-0.38,-36.20,-26.12,-3.10
13755,-8.58,-2.11,-4.43,0.24,-0.05,-0.28,-36.20,-26.12,-3.10
13765,-8.56,-1.69,-4.64,0.23,-0.05,-0.22,-36.20,-26.12,-3.10
13776,-8.56,-1.69,-4.64,0.23,-0.05,-0.22,-36.20,-26.12,-3.10
13787,-8.93,-1.63,-4.42,0.26,0.01,-0.20,-36.20,-26.12,-3.10
13798,-8.93,-1.63,-4.42,0.26,0.01,-0.20,-36.20,-26.12,-3.10
13809,-9.11,-1.48,-4.58,0.28,0.03,-0.23,-36.20,-26.12,-3.10
13820,-9.11,-1.48,-4.58,0.28,0.03,-0.23,-36.20,-26.12,-3.10
13831,-8.91,-2.25,-4.31,0.34,0.03,-0.26,-36.20,-26.12,-3.10
13842,-8.91,-2.25,-4.31,0.34,0.03,-0.26,-36.20,-26.12,-3.10
13853,-8.88,-1.71,-4.58,0.23,0.05,-0.10,-34.45,-25.76,-3.10
13864,-8.90,-2.11,-4.25,0.25,0.07,-0.05,-34.45,-25.76,-3.10
13875,-8.90,-2.11,-4.25,0.25,0.07,-0.05,-34.45,-25.76,-3.10
13886,-9.11,-1.81,-4.31,0.25,0.13,-0.02,-34.45,-25.76,-3.10
13897,-9.11,-1.81,-4.31,0.25,0.13,-0.02,-34.45,-25.76,-3.10
13908,-9.10,-1.78,-4.41,0.17,0.10,-0.04,-34.45,-25.76,-3.10
13919,-9.10,-1.78,-4.41,0.17,0.10,-0.04,-34.45,-25.76,-3.10
13930,-8.95,-2.16,-4.35,0.18,0.08,-0.06,-34.45,-25.76,-3.10
13941,-8.95,-2.16,-4.35,0.18,0.08,-0.06,-34.45,-25.76,-3.10
13952,-8.91,-2.13,-4.26,0.15,0.08,-0.03,-34.45,-25.76,-3.10
13963,-8.91,-2.13,-4.26,0.15,0.08,-0.03,-34.45,-25.76,-3.10
13974,-8.63,-2.77,-4.74,0.10,0.15,0.05,-32.87,-26.30,-1.91
13985,-8.52,-2.33,-4.97,0.01,0.17,0.24,-32.87,-26.30,-1.91
13996,-8.52,-2.33,-4.97,0.01,0.17,0.24,-32.87,-26.30,-1.91
14007,-8.95,-1.67,-4.23,0.01,0.14,0.33,-32.87,-26.30,-1.91
14018,-8.95,-1.67,-4.23,0.01,0.14,0.33,-32.87,-26.30,-1.91
14030,-9.13,-1.95,-4.32,0.03,0.12,0.21,-32.87,-26.30,-1.91
14040,-9.13,-1.95,-4.32,0.03,0.12,0.21,-32.87,-26.30,-1.91
14051,-8.75,-2.58,-4.38,-0.03,0.08,0.21,-32.87,-26.30,-1.91
14062,-8.75,-2.58,-4.38,-0.03,0.08,0.21,-32.87,-26.30,-1.91
14073,-8.82,-2.31,-4.00,-0.10,0.08,0.32,-32.87,-26.30,-1.91
14084,-8.94,-1.64,-4.16,-0.14,0.11,0.36,-34.27,-24.85,39.23
14095,-8.94,-1.64,-4.16,-0.14,0.11,0.36,-34.27,-24.85,-4.29
14106,-8.93,-1.26,-5.24,-0.14,0.12,0.33,-34.27,-24.85,-4.29
14117,-8.93,-1.26,-5.24,-0.14,0.12,0.33,-34.27,-24.85,-4.29
14128,-9.08,-1.16,-5.21,-0.14,0.08,0.30,-34.27,-24.85,-4.29
14139,-9.08,-1.16,-5.21,-0.14,0.08,0.30,-34.27,-24.85,-4.29
14150,-8.84,-1.54,-5.44,-0.14,0.03,0.32,-34.27,-24.85,-4.29
14161,-8.84,-1.54,-5.44,-0.14,0.03,0.32,-34.27,-24.85,-4.29
14172,-9.02,-1.38,-4.34,-0.14,-0.04,0.36,-34.27,-24.85,-4.29
14183,-9.02,-1.38,-4.34,-0.14,-0.04,0.36,-34.27,-24.85,-4.29
14194,-9.06,-1.24,-4.39,-0.16,-0.03,0.35,-34.27,-24.85,-4.29
14205,-8.97,-1.36,-4.58,-0.18,0.02,0.34,-34.27,-24.85,-4.29
14216,-8.97,-1.36,-4.58,-0.18,0.02,0.34,-34.27,-24.85,-4.29
14227,-9.13,-0.77,-4.81,-0.20,0.02,0.32,-35.50,-22.14,-3.78
14238,-9.13,-0.77,-4.81,-0.20,0.02,0.32,-35.50,-22.14,-3.78
14249,-8.79,-1.36,-4.65,-0.20,0.02,0.29,-35.50,-22.14,-3.78
14260,-8.79,-1.36,-4.65,-0.20,0.02,0.29,-35.50,-22.14,-3.78
14271,-8.82,-1.29,-4.56,-0.25,0.01,0.34,-35.50,-22.14,-3.78
14282,-8.82,-1.29,-4.56,-0.25,0.01,0.34,-35.50,-22.14,-3.78
14293,-8.74,-1.09,-5.31,-0.25,0.00,0.33,-35.50,-22.14,-3.78
14304,-8.74,-1.09,-5.31,-0.25,0.00,0.33,-35.50,-22.14,-3.78
14315,-9.11,-1.10,-4.42,-0.22,-0.04,0.31,-35.50,-22.14,-3.78
14326,-9.17,-0.88,-5.01,-0.23,-0.00,0.27,-35.50,-22.14,-3.78
14337,-9.17,-0.88,-5.01,-0.23,-0.00,0.27,-35.50,-22.14,-3.78
14348,-8.98,-0.74,-4.61,-0.24,-0.03,0.24,-37.43,-20.14,-3.61
14359,-8.98,-0.74,-4.61,-0.24,-0.03,0.24,-37.43,-20.14,-3.61
14370,-8.78,-1.59,-4.72,-0.22,-0.03,0.19,-37.43,-20.14,-3.61
14381,-8.78,-1.59,-4.72,-0.22,-0.03,0.19,-37.43,-20.14,-3.61
14392,-9.17,-0.56,-4.22,-0.27,-0.11,0.26,-37.43,-20.14,-3.61
14403,-9.17,-0.56,-4.22,-0.27,-0.11,0.26,-37.43,-20.14,-3.61
14414,-9.08,-1.02,-4.38,-0.23,-0.05,0.17,-37.43,-20.14,-3.61
14425,-9.19,-0.39,-4.19,-0.24,-0.08,0.09,-37.43,-20.14,-3.61
14436,-9.19,-0.39,-4.19,-0.24,-0.08,0.09,-37.43,-20.14,-3.61
14447,-9.37,-0.79,-4.56,-0.20,0.01,0.01,-37.43,-20.14,-3.61
14458,-9.37,-0.79,-4.56,-0.20,0.01,0.01,-37.43,-20.14,-3.61
14469,-9.13,-0.92,-5.04,-0.22,-0.01,0.01,-35.32,-19.78,-2.93
14480,-9.13,-0.92,-5.04,-0.22,-0.01,0.01,-35.32,-19.78,-2.93
14491,-9.38,-0.33,-4.65,-0.21,-0.10,-0.03,-35.32,-19.78,-2.93
14502,-9.38,-0.33,-4.65,-0.21,-0.10,-0.03,-35.32,-19.78,-2.93
14513,-8.73,-1.08,-4.59,-0.19,-0.07,-0.17,-35.32,-19.78,-2.93
14524,-8.73,-1.08,-4.59,-0.19,-0.07,-0.17,-35.32,-19.78,-2.93
14535,-8.95,-0.74,-4.71,-0.16,-0.05,-0.15,-35.32,-19.78,-2.93
14546,-8.86,-0.10,-5.33,-0.14,-0.02,-0.16,-35.32,-19.78,-2.93
14557,-8.86,-0.10,-5.33,-0.14,-0.02,-0.16,-35.32,-19.78,-2.93
14568,-8.87,-0.44,-5.30,-0.08,-0.06,-0.28,-35.32,-19.78,-2.93
14579,-8.87,-0.44,-5.30,-0.08,-0.06,-0.28,-35.32,-19.78,-2.93
14590,-8.73,-0.91,-4.72,-0.01,-0.08,-0.35,-35.32,-19.78,-2.93
14601,-8.73,-0.91,-4.72,-0.01,-0.08,-0.35,-35.32,-19.78,-2.93
14612,-8.89,-0.81,-4.50,-0.00,-0.11,-0.36,-36.20,-20.69,-4.80
14623,-8.89,-0.81,-4.50,-0.00,-0.11,-0.36,-36.20,-20.69,-4.80
14634,-8.90,-0.87,-5.18,0.03,0.00,-0.35,-36.20,-20.69,-4.80
14645,-8.91,-1.12,-4.39,0.03,-0.03,-0.34,-36.20,-20.69,-4.80
14656,-8.91,-1.12,-4.39,0.03,-0.03,-0.34,-36.20,-20.69,-4.80
14667,-8.93,-0.81,-5.07,0.02,-0.04,-0.40,-36.20,-20.69,-4.80
14678,-8.93,-0.81,-5.07,0.02,-0.04,-0.40,-36.20,-20.69,-4.80
14689,-8.96,-1.32,-4.49,0.09,-0.04,-0.43,-36.20,-20.69,-4.80
14700,-8.96,-1.32,-4.49,0.09,-0.04,-0.43,-36.20,-20.69,-4.80
14711,-8.70,-1.00,-5.15,0.06,-0.05,-0.40,-36.20,-20.69,-4.80
14722,-8.70,-1.00,-5.15,0.06,-0.05,-0.40,-36.20,-20.69,-4.80
14733,-8.89,-1.15,-4.78,0.11,-0.05,-0.36,-36.03,-23.40,-4.97
14744,-8.89,-1.15,-4.78,0.11,-0.05,-0.36,-36.03,-23.40,-4.97
14755,-9.10,-0.72,-4.87,0.14,-0.04,-0.37,-36.03,-23.40,-4.97
14766,-8.70,-1.66,-4.82,0.20,-0.05,-0.45,-36.03,-23.40,-4.97
14777,-8.70,-1.66,-4.82,0.20,-0.05,-0.45,-36.03,-23.40,-4.97
14788,-9.36,-1.04,-4.75,0.14,-0.07,-0.40,-36.03,-23.40,-4.97
14799,-9.36,-1.04,-4.75,0.14,-0.07,-0.40,-36.03,-23.40,-4.97
14810,-8.86,-2.05,-4.34,0.20,-0.05,-0.37,-36.03,-23.40,-4.97
14821,-8.86,-2.05,-4.34,0.20,-0.05,-0.37,-36.03,-23.40,-4.97
14832,-9.08,-1.02,-4.82,0.15,-0.05,-0.32,-36.03,-23.40,-4.97
14843,-9.08,-1.02,-4.82,0.15,-0.05,-0.32,-36.03,-23.40,-4.97
14854,-8.60,-1.39,-4.53,0.20,-0.05,-0.41,-34.27,-23.77,-4.97
14865,-8.48,-2.94,-4.38,0.27,-0.05,-0.44,-34.27,-23.77,-4.97
14876,-8.48,-2.94,-4.38,0.27,-0.05,-0.44,-34.27,-23.77,-4.97
14887,-8.70,-1.95,-4.48,0.22,-0.04,-0.29,-34.27,-23.77,-4.97
14898,-8.70,-1.95,-4.48,0.22,-0.04,-0.29,-34.27,-23.77,-4.97
14909,-8.66,-2.29,-4.21,0.30,-0.04,-0.31,-34.27,-23.77,-4.97
14920,-8.66,-2.29,-4.21,0.30,-0.04,-0.31,-34.27,-23.77,-4.97
14931,-9.02,-2.40,-4.49,0.30,-0.02,-0.24,-34.27,-23.77,-4.97
14942,-9.02,-2.40,-4.49,0.30,-0.02,-0.24,-34.27,-23.77,-4.97
14953,-8.60,-1.80,-4.06,0.23,0.02,-0.10,-34.27,-23.77,-4.97
14964,-8.60,-1.80,-4.06,0.23,0.02,-0.10,-34.27,-23.77,-4.97
14975,-8.70,-2.32,-4.18,0.26,0.10,-0.07,-34.27,-25.94,-3.95
14986,-8.97,-1.92,-3.76,0.28,0.12,-0.07,-34.27,-25.94,-3.95
14997,-8.97,-1.92,-3.76,0.28,0.12,-0.07,-34.27,-25.94,-3.95
15009,-8.95,-2.57,-4.47,0.29,0.17,-0.07,-34.27,-25.94,-3.95
15019,-8.95,-2.57,-4.47,0.29,0.17,-0.07,-34.27,-25.94,-3.95
15030,-8.95,-1.98,-4.19,0.19,0.09,0.03,-34.27,-25.94,-3.95
15041,-8.95,-1.98,-4.19,0.19,0.09,0.03,-34.27,-25.94,-3.95
15052,-8.88,-2.34,-3.79,0.15,0.13,0.09,-34.27,-25.94,-3.95
15063,-8.88,-2.34,-3.79,0.15,0.13,0.09,-34.27,-25.94,-3.95
15074,-8.91,-2.22,-4.54,0.06,0.17,0.16,-34.27,-25.94,-3.95
15085,-8.95,-2.25,-4.30,0.05,0.14,0.15,-34.27,-25.94,-3.95
15096,-8.95,-2.25,-4.30,0.05,0.14,0.15,-34.27,-25.94,-3.95
15107,-8.92,-1.88,-4.52,0.01,0.15,0.28,-33.22,-25.94,-4.63
15118,-8.92,-1.88,-4.52,0.01,0.15,0.28,-33.22,-25.94,-4.63
15129,-8.87,-1.78,-4.86,-0.06,0.14,0.33,-33.22,-25.94,-4.63
15140,-8.87,-1.78,-4.86,-0.06,0.14,0.33,-33.22,-25.94,-4.63
15151,-9.21,-1.73,-4.52,-0.14,0.11,0.39,-33.22,-25.94,-4.63
15162,-9.21,-1.73,-4.52,-0.14,0.11,0.39,-33.22,-25.94,-4.63
15173,-8.97,-1.57,-4.65,-0.20,0.09,0.41,-33.22,-25.94,-4.63
15184,-8.97,-1.57,-4.65,-0.20,0.09,0.41,-33.22,-25.94,-4.63
15195,-8.81,-1.85,-4.59,-0.19,0.04,0.37,-33.22,-25.94,-4.63
15206,-8.81,-1.57,-4.43,-0.22,0.01,0.34,-33.22,-25.94,-4.63
15217,-8.81,-1.57,-4.43,-0.22,0.01,0.34,-33.22,-25.94,-4.63
15228,-9.00,-1.27,-4.52,-0.21,-0.01,0.30,-34.10,-22.86,-3.78
15239,-9.00,-1.27,-4.52,-0.21,-0.01,0.30,-34.10,-22.86,-3.78
15250,-8.72,-2.01,-4.50,-0.18,-0.00,0.29,-34.10,-22.86,-3.78
15261,-8.72,-2.01,-4.50,-0.18,-0.00,0.29,-34.10,-22.86,-3.78
15272,-8.77,-1.68,-5.17,-0.25,0.03,0.39,-34.10,-22.86,-3.78
15283,-8.77,-1.68,-5.17,-0.25,0.03,0.39,-34.10,-22.86,-3.78
15294,-9.04,-0.84,-4.14,-0.28,-0.02,0.46,-34.10,-22.86,-3.78
15305,-9.14,-0.81,-4.57,-0.23,-0.00,0.39,-34.10,-22.86,-3.78
15316,-9.14,-0.81,-4.57,-0.23,-0.00,0.39,-34.10,-22.86,-3.78
15327,-9.17,-0.89,-4.80,-0.19,-0.02,0.34,-34.10,-22.86,-3.78
15338,-9.17,-0.89,-4.80,-0.19,-0.02,0.34,-34.10,-22.86,-3.78
15349,-9.12,-1.52,-4.43,-0.17,0.00,0.31,-37.43,-22.32,-4.63
15360,-9.12,-1.52,-4.43,-0.17,0.00,0.31,-37.43,-22.32,-4.63
15371,-8.98,-1.45,-4.73,-0.20,0.01,0.32,-37.43,-22.32,-4.63
15382,-8.98,-1.45,-4.73,-0.20,0.01,0.32,-37.43,-22.32,-4.63
15393,-9.15,-0.81,-5.13,-0.24,-0.03,0.33,-37.43,-22.32,-4.63
15404,-9.15,-0.81,-5.13,-0.24,-0.03,0.33,-37.43,-22.32,-4.63
15415,-9.29,-0.18,-4.53,-0.22,-0.14,0.33,-37.43,-22.32,-4.63
15426,-9.17,-0.91,-4.96,-0.18,-0.11,0.23,-37.43,-22.32,-4.63
15437,-9.17,-0.91,-4.96,-0.18,-0.11,0.23,-37.43,-22.32,-4.63
15448,-8.84,-0.96,-4.36,-0.20,-0.12,0.29,-37.43,-22.32,-4.63
15459,-8.84,-0.96,-4.36,-0.20,-0.12,0.29,-37.43,-22.32,-4.63
15470,-9.31,-0.77,-4.32,-0.23,-0.12,0.28,-37.43,-22.32,-4.63
15481,-9.31,-0.77,-4.32,-0.23,-0.12,0.28,-37.43,-22.32,-4.63
15492,-9.10,-0.50,-4.31,-0.23,-0.05,0.24,-35.15,-19.24,-6.16
15503,-9.10,-0.50,-4.31,-0.23,-0.05,0.24,-35.15,-19.24,-6.16
15514,-9.23,-0.69,-4.57,-0.24,-0.02,0.20,-35.15,-19.24,-6.16
15525,-9.23,-0.69,-4.57,-0.24,-0.02,0.20,-35.15,-19.24,-6.16
15536,-9.00,-0.61,-4.69,-0.24,-0.05,0.19,-35.15,-19.24,-6.16
15547,-9.19,-0.11,-4.72,-0.21,-0.10,0.15,-35.15,-19.24,-6.16
15558,-9.19,-0.11,-4.72,-0.21,-0.10,0.15,-35.15,-19.24,-6.16
15569,-9.14,-0.47,-4.70,-0.19,-0.10,0.03,-35.15,-19.24,-6.16
15580,-9.14,-0.47,-4.70,-0.19,-0.10,0.03,-35.15,-19.24,-6.16
15591,-9.18,-0.20,-4.46,-0.18,-0.06,-0.02,-35.15,-19.24,-6.16
15602,-9.18,-0.20,-4.46,-0.18,-0.06,-0.02,-35.15,-19.24,-6.16
15613,-9.14,-0.39,-4.86,-0.17,-0.01,-0.06,-37.78,-19.42,-4.63
15624,-9.14,-0.39,-4.86,-0.17,-0.01,-0.06,-37.78,-19.42,-4.63
15635,-9.09,0.00,-5.13,-0.17,-0.02,-0.06,-37.78,-19.42,-4.63
15646,-8.97,-0.58,-4.35,-0.16,-0.06,-0.18,-37.78,-19.42,-4.63
15657,-8.97,-0.58,-4.35,-0.16,-0.06,-0.18,-37.78,-19.42,-4.63
15668,-8.87,-0.43,-5.19,-0.18,-0.07,-0.25,-37.78,-19.42,-4.63
15679,-8.87,-0.43,-5.19,-0.18,-0.07,-0.25,-37.78,-19.42,-4.63
15690,-9.16,0.03,-5.21,-0.13,-0.06,-0.22,-37.78,-19.42,-4.63
15701,-9.16,0.03,-5.21,-0.13,-0.06,-0.22,-37.78,-19.42,-4.63
15712,-9.12,-0.48,-5.05,-0.05,-0.03,-0.24,-37.78,-19.42,-4.63
15723,-9.12,-0.48,-5.05,-0.05,-0.03,-0.24,-37.78,-19.42,-4.63
15734,-9.06,0.18,-5.15,-0.07,-0.05,-0.22,-36.90,-20.69,-5.82
15745,-9.06,0.18,-5.15,-0.07,-0.05,-0.22,-36.90,-20.69,-5.82
15756,-8.94,0.17,-5.04,-0.04,-0.07,-0.30,-36.90,-20.69,-5.82
15767,-8.99,-0.38,-4.91,0.03,-0.08,-0.44,-36.90,-20.69,-5.82
15778,-8.99,-0.38,-4.91,0.03,-0.08,-0.44,-36.90,-20.69,-5.82
15789,-8.97,-0.63,-4.68,0.09,-0.06,-0.47,-36.90,-20.69,-5.82
15800,-8.97,-0.63,-4.68,0.09,-0.06,-0.47,-36.90,-20.69,-5.82
15811,-9.17,-0.84,-5.24,0.09,-0.02,-0.44,-36.90,-20.69,-5.82
15822,-9.17,-0.84,-5.24,0.09,-0.02,-0.44,-36.90,-20.69,-5.82
15833,-9.29,-0.74,-4.99,0.05,-0.04,-0.39,-36.90,-20.69,-5.82
15844,-9.29,-0.74,-4.99,0.05,-0.04,-0.39,-36.90,-20.69,-5.82
15855,-9.11,-1.27,-4.02,0.03,-0.04,-0.42,-36.90,-20.69,-5.82
15866,-9.04,-0.97,-4.48,0.01,-0.02,-0.49,-34.97,-21.59,-4.97
15877,-9.04,-0.97,-4.48,0.01,-0.02,-0.49,-34.97,-21.59,-4.97
15888,-9.15,-1.16,-4.98,0.06,-0.01,-0.53,-34.97,-21.59,-4.97
15899,-9.15,-1.16,-4.98,0.06,-0.01,-0.53,-34.97,-21.59,-4.97
15910,-8.96,-0.84,-4.47,0.09,-0.04,-0.40,-34.97,-21.59,-4.97
15921,-8.96,-0.84,-4.47,0.09,-0.04,-0.40,-34.97,-21.59,-4.97
15932,-8.94,-1.78,-4.92,0.10,-0.03,-0.43,-34.97,-21.59,-4.97
15943,-8.94,-1.78,-4.92,0.10,-0.03,-0.43,-34.97,-21.59,-4.97
15954,-9.01,-0.71,-4.69,0.07,-0.05,-0.32,-34.97,-21.59,-4.97
15965,-9.01,-0.71,-4.69,0.07,-0.05,-0.32,-34.97,-21.59,-4.97
15976,-8.88,-1.25,-4.67,0.21,-0.07,-0.34,-34.97,-21.59,-4.97
15988,-9.10,-0.90,-4.33,0.28,-0.04,-0.36,-35.15,-23.95,-5.14
15998,-9.10,-0.90,-4.33,0.28,-0.04,-0.36,-35.15,-23.95,-5.14
16009,-8.92,-1.65,-4.25,0.31,-0.04,-0.44,-35.15,-23.95,-5.14
16020,-8.92,-1.65,-4.25,0.31,-0.04,-0.44,-35.15,-23.95,-5.14
16031,-8.76,-1.97,-4.34,0.29,0.00,-0.37,-35.15,-23.95,-5.14
16042,-8.76,-1.97,-4.34,0.29,0.00,-0.37,-35.15,-23.95,-5.14
16053,-9.32,-0.75,-4.80,0.26,0.05,-0.26,-35.15,-23.95,-5.14
16064,-9.32,-0.75,-4.80,0.26,0.05,-0.26,-35.15,-23.95,-5.14
16075,-8.87,-2.04,-4.55,0.37,0.09,-0.28,-35.15,-23.95,-5.14
16086,-9.03,-1.70,-4.48,0.32,0.10,-0.21,-35.15,-23.95,-5.14
16097,-9.03,-1.70,-4.48,0.32,0.10,-0.21,-35.15,-23.95,-5.14
16108,-9.00,-2.00,-4.05,0.34,0.09,-0.17,-33.92,-25.22,-4.29
16119,-9.00,-2.00,-4.05,0.34,0.09,-0.17,-33.92,-25.22,-4.29
16130,-9.22,-2.09,-4.12,0.26,0.14,-0.10,-33.92,-25.22,-4.29
16141,-9.22,-2.09,-4.12,0.26,0.14,-0.10,-33.92,-25.22,-4.29
16152,-8.95,-2.12,-3.99,0.19,0.15,-0.05,-33.92,-25.22,-4.29
16163,-8.95,-2.12,-3.99,0.19,0.15,-0.05,-33.92,-25.22,-4.29
16174,-8.96,-2.06,-4.39,0.11,0.19,0.03,-33.92,-25.22,-4.29
16185,-8.96,-2.06,-4.39,0.11,0.19,0.03,-33.92,-25.22,-4.29
16196,-8.91,-2.21,-4.62,0.05,0.19,0.10,-33.92,-25.22,-4.29
16207,-9.02,-2.01,-4.65,-0.00,0.16,0.18,-33.92,-25.22,-4.29
16218,-9.02,-2.01,-4.65,-0.00,0.16,0.18,-33.92,-25.22,-4.29
16229,-8.94,-2.50,-4.54,-0.01,0.13,0.29,-35.68,-25.22,-4.97
16241,-8.94,-2.50,-4.54,-0.01,0.13,0.29,-35.68,-25.22,-4.97
16251,-9.28,-0.45,-5.14,-0.17,0.08,0.40,-35.68,-25.22,-4.97
16262,-9.28,-0.45,-5.14,-0.17,0.08,0.40,-35.68,-25.22,-4.97
16273,-8.83,-2.00,-4.44,-0.03,0.05,0.28,-35.68,-25.22,-4.97
16284,-8.83,-2.00,-4.44,-0.03,0.05,0.28,-35.68,-25.22,-4.97
16295,-9.01,-1.15,-4.18,-0.11,0.06,0.35,-35.68,-25.22,-4.97
16306,-9.09,-1.64,-5.08,-0.05,0.13,0.31,-35.68,-25.22,-4.97
16317,-9.09,-1.64,-5.08,-0.05,0.13,0.31,-35.68,-25.22,-4.97
16328,-8.98,-1.79,-4.76,-0.10,0.06,0.38,-35.68,-25.22,-4.97
16339,-8.98,-1.79,-4.76,-0.10,0.06,0.38,-35.68,-25.22,-4.97
16350,-8.90,-1.33,-4.66,-0.18,0.01,0.43,-35.68,-25.22,-4.97
16361,-8.90,-1.33,-4.66,-0.18,0.01,0.43,-35.68,-25.22,-4.97
16372,-9.03,-0.58,-5.28,-0.18,0.03,0.41,-34.45,-23.59,-5.48
16383,-9.03,-0.58,-5.28,-0.18,0.03,0.41,-34.45,-23.59,-5.48
16394,-8.99,-1.17,-4.61,-0.12,0.04,0.42,-34.45,-23.59,-5.48
16405,-8.99,-1.17,-4.61,-0.12,0.04,0.42,-34.45,-23.59,-5.48
16416,-9.01,-1.26,-4.62,-0.17,0.04,0.41,-34.45,-23.59,-5.48
16427,-9.07,-0.45,-4.73,-0.19,-0.00,0.43,-34.45,-23.59,-5.48
16438,-9.07,-0.45,-4.73,-0.19,-0.00,0.43,-34.45,-23.59,-5.48
16449,-9.06,-0.55,-4.45,-0.14,0.01,0.41,-34.45,-23.59,-5.48
16460,-9.06,-0.55,-4.45,-0.14,0.01,0.41,-34.45,-23.59,-5.48
16472,-8.63,-1.47,-4.59,-0.13,0.02,0.31,-34.45,-23.59,-5.48
16482,-8.63,-1.47,-4.59,-0.13,0.02,0.31,-34.45,-23.59,-5.48
16493,-8.84,-0.85,-4.29,-0.19,-0.03,0.39,-35.50,-19.60,-5.14
16504,-8.84,-0.85,-4.29,-0.19,-0.03,0.39,-35.50,-19.60,-5.14
16515,-9.06,-0.71,-4.78,-0.22,0.01,0.40,-35.50,-19.60,-5.14
16526,-9.33,-0.69,-4.93,-0.23,0.00,0.38,-35.50,-19.60,-5.14
16537,-9.33,-0.69,-4.93,-0.23,0.00,0.38,-35.50,-19.60,-5.14
16548,-9.16,-0.98,-4.55,-0.25,-0.07,0.29,-35.50,-19.60,-5.14
16559,-9.16,-0.98,-4.55,-0.25,-0.07,0.29,-35.50,-19.60,-5.14
16570,-9.33,-0.32,-4.45,-0.27,-0.08,0.31,-35.50,-19.60,-5.14
16581,-9.33,-0.32,-4.45,-0.27,-0.08,0.31,-35.50,-19.60,-5.14
16592,-8.98,-0.62,-4.19,-0.25,-0.05,0.25,-35.50,-19.60,-5.14
16603,-8.98,-0.62,-4.19,-0.25,-0.05,0.25,-35.50,-19.60,-5.14
16614,-9.05,-0.67,-4.63,-0.26,-0.04,0.22,-36.20,-19.60,-5.48
16625,-9.05,-0.67,-4.63,-0.26,-0.04,0.22,-36.20,-19.60,-5.48
16636,-9.13,-0.36,-4.39,-0.28,-0.08,0.17,-36.20,-19.60,-5.48
16647,-9.14,-0.52,-4.58,-0.26,-0.10,0.07,-36.20,-19.60,-5.48
16658,-9.14,-0.52,-4.58,-0.26,-0.10,0.07,-36.20,-19.60,-5.48
16669,-9.33,-0.55,-4.34,-0.24,-0.09,0.06,-36.20,-19.60,-5.48
16680,-9.33,-0.55,-4.34,-0.24,-0.09,0.06,-36.20,-19.60,-5.48
16691,-9.30,-0.32,-4.56,-0.25,-0.07,0.02,-36.20,-19.60,-5.48
16702,-9.30,-0.32,-4.56,-0.25,-0.07,0.02,-36.20,-19.60,-5.48
16713,-9.58,-0.03,-4.48,-0.23,-0.09,-0.02,-36.20,-19.60,-5.48
16724,-9.58,-0.03,-4.48,-0.23,-0.09,-0.02,-36.20,-19.60,-5.48
16735,-9.36,-0.26,-4.24,-0.21,-0.09,-0.17,-36.20,-19.60,-5.48
16746,-9.36,-0.26,-4.24,-0.21,-0.09,-0.17,-36.20,-19.60,-5.48
16757,-9.12,-0.39,-4.58,-0.21,-0.03,-0.26,-37.43,-18.69,-5.65
16769,-8.96,-0.67,-4.98,-0.18,-0.02,-0.28,-37.43,-18.69,-5.65
16779,-8.96,-0.67,-4.98,-0.18,-0.02,-0.28,-37.43,-18.69,-5.65
16790,-9.29,0.16,-4.62,-0.12,-0.04,-0.32,-37.43,-18.69,-5.65
16801,-9.29,0.16,-4.62,-0.12,-0.04,-0.32,-37.43,-18.69,-5.65
16812,-9.01,-0.78,-5.15,-0.03,0.01,-0.49,-37.43,-18.69,-5.65
16823,-9.01,-0.78,-5.15,-0.03,0.01,-0.49,-37.43,-18.69,-5.65
16834,-8.72,-0.72,-4.69,-0.05,-0.00,-0.50,-37.43,-18.69,-5.65
16845,-8.72,-0.72,-4.69,-0.05,-0.00,-0.50,-37.43,-18.69,-5.65
16856,-9.10,-0.93,-4.98,-0.02,0.00,-0.49,-37.43,-18.69,-5.65
16867,-9.11,-0.53,-5.35,0.03,-0.04,-0.45,-36.55,-21.05,-5.14
16878,-9.11,-0.53,-5.35,0.03,-0.04,-0.45,-36.55,-21.05,-5.14
16889,-9.03,-0.68,-4.68,0.11,-0.07,-0.51,-36.55,-21.05,-5.14
16900,-9.03,-0.68,-4.68,0.11,-0.07,-0.51,-36.55,-21.05,-5.14
16911,-9.26,-0.79,-5.30,0.11,-0.09,-0.60,-36.55,-21.05,-5.14
16922,-9.26,-0.79,-5.30,0.11,-0.09,-0.60,-36.55,-21.05,-5.14
16933,-8.77,-1.41,-4.30,0.11,-0.09,-0.55,-36.55,-21.05,-5.14
16944,-8.77,-1.41,-4.30,0.11,-0.09,-0.55,-36.55,-21.05,-5.14
16955,-8.86,-1.29,-4.47,0.09,-0.03,-0.42,-36.55,-21.05,-5.14
16966,-8.86,-1.29,-4.47,0.09,-0.03,-0.42,-36.55,-21.05,-5.14
16977,-8.98,-0.71,-4.53,0.07,-0.06,-0.40,-36.55,-21.05,-5.14
16988,-9.48,-0.81,-4.89,0.13,-0.07,-0.50,-35.32,-22.32,-4.97
16999,-9.48,-0.81,-4.89,0.13,-0.07,-0.50,-35.32,-22.32,-4.97
17010,-8.79,-1.25,-4.29,0.23,-0.07,-0.56,-35.32,-22.32,-4.97
17021,-8.79,-1.25,-4.29,0.23,-0.07,-0.56,-35.32,-22.32,-4.97
17032,-8.47,-2.14,-3.95,0.27,-0.03,-0.47,-35.32,-22.32,-4.97
17043,-8.47,-2.14,-3.95,0.27,-0.03,-0.47,-35.32,-22.32,-4.97
17054,-8.98,-1.48,-4.56,0.22,0.02,-0.28,-35.32,-22.32,-4.97
17066,-8.98,-1.48,-4.56,0.22,0.02,-0.28,-35.32,-22.32,-4.97
17076,-8.96,-0.70,-4.34,0.23,-0.02,-0.24,-35.32,-22.32,-4.97
17087,-8.81,-1.55,-4.31,0.34,0.02,-0.30,-35.32,-22.32,-4.97
17098,-8.81,-1.55,-4.31,0.34,0.02,-0.30,-35.32,-22.32,-4.97
17109,-9.02,-1.68,-3.94,0.30,0.03,-0.22,-35.32,-22.32,-4.97
17120,-9.02,-1.68,-3.94,0.30,0.03,-0.22,-35.32,-22.32,-4.97
17131,-9.16,-1.84,-3.92,0.28,0.07,-0.16,-34.27,-25.22,-4.63
17142,-9.16,-1.84,-3.92,0.28,0.07,-0.16,-34.27,-25.22,-4.63
17153,-9.29,-1.66,-3.88,0.24,0.13,-0.08,-34.27,-25.22,-4.63
17164,-9.29,-1.66,-3.88,0.24,0.13,-0.08,-34.27,-25.22,-4.63
17175,-9.49,-2.01,-3.73,0.14,0.15,-0.00,-34.27,-25.22,-4.63
17186,-9.49,-2.01,-3.73,0.14,0.15,-0.00,-34.27,-25.22,-4.63
17197,-9.17,-1.95,-4.33,0.03,0.14,0.07,-34.27,-25.22,-4.63
17208,-8.96,-1.98,-4.36,0.03,0.12,0.15,-34.27,-25.22,-4.63
17219,-8.96,-1.98,-4.36,0.03,0.12,0.15,-34.27,-25.22,-4.63
17230,-9.15,-1.71,-4.45,-0.03,0.12,0.23,-34.27,-25.22,-4.63
17241,-9.15,-1.71,-4.45,-0.03,0.12,0.23,-34.27,-25.22,-4.63
17252,-8.89,-1.94,-4.56,-0.09,0.10,0.29,-34.80,-23.95,-3.44
17263,-8.89,-1.94,-4.56,-0.09,0.10,0.29,-34.80,-23.95,-3.44
17274,-8.98,-1.38,-4.70,-0.16,0.07,0.32,-34.80,-23.95,-3.44
17285,-8.98,-1.38,-4.70,-0.16,0.07,0.32,-34.80,-23.95,-3.44
17297,-8.82,-2.09,-4.11,-0.10,0.04,0.31,-34.80,-23.95,-3.44
17307,-8.90,-1.52,-4.14,-0.14,0.03,0.37,-34.80,-23.95,-3.44
17318,-8.90,-1.52,-4.14,-0.14,0.03,0.37,-34.80,-23.95,-3.44
17329,-8.97,-1.25,-4.47,-0.14,0.06,0.35,-34.80,-23.95,-3.44
17340,-8.97,-1.25,-4.47,-0.14,0.06,0.35,-34.80,-23.95,-3.44
17351,-9.04,-1.47,-4.31,-0.15,0.02,0.32,-34.80,-23.95,-3.44
17362,-9.04,-1.47,-4.31,-0.15,0.02,0.32,-34.80,-23.95,-3.44
17373,-8.93,-1.38,-3.95,-0.18,0.02,0.36,-34.80,-22.86,-4.46
17384,-8.93,-1.38,-3.95,-0.18,0.02,0.36,-34.80,-22.86,-4.46
17395,-9.44,-0.61,-4.86,-0.17,0.05,0.37,-34.80,-22.86,-4.46
17406,-9.44,-0.61,-4.86,-0.17,0.05,0.37,-34.80,-22.86,-4.46
17417,-8.84,-1.36,-4.49,-0.10,0.04,0.34,-34.80,-22.86,-4.46
17428,-9.24,-1.05,-4.42,-0.14,0.02,0.35,-34.80,-22.86,-4.46
17439,-9.24,-1.05,-4.42,-0.14,0.02,0.35,-34.80,-22.86,-4.46
17450,-8.97,-0.91,-4.37,-0.17,0.00,0.35,-34.80,-22.86,-4.46
17461,-8.97,-0.91,-4.37,-0.17,0.00,0.35,-34.80,-22.86,-4.46
17472,-8.93,-1.10,-4.03,-0.16,0.00,0.32,-34.80,-22.86,-4.46
17483,-8.93,-1.10,-4.03,-0.16,0.00,0.32,-34.80,-22.86,-4.46
17494,-8.90,-1.08,-4.51,-0.14,0.00,0.32,-34.80,-22.86,-4.46
17505,-8.90,-1.08,-4.51,-0.14,0.00,0.32,-34.80,-22.86,-4.46
17516,-9.28,-1.32,-4.41,-0.15,0.00,0.33,-36.03,-20.51,-5.65
17528,-9.35,-0.42,-4.61,-0.21,-0.02,0.35,-36.03,-20.51,-5.65
17538,-9.35,-0.42,-4.61,-0.21,-0.02,0.35,-36.03,-20.51,-5.65
17549,-9.11,-0.74,-5.09,-0.17,-0.01,0.29,-36.03,-20.51,-5.65
17560,-9.11,-0.74,-5.09,-0.17,-0.01,0.29,-36.03,-20.51,-5.65
17571,-9.05,-0.53,-4.30,-0.16,-0.08,0.23,-36.03,-20.51,-5.65
17582,-9.05,-0.53,-4.30,-0.16,-0.08,0.23,-36.03,-20.51,-5.65
17593,-8.89,-0.88,-4.72,-0.16,-0.03,0.19,-36.03,-20.51,-5.65
17604,-8.89,-0.88,-4.72,-0.16,-0.03,0.19,-36.03,-20.51,-5.65
17615,-9.14,-0.33,-4.31,-0.20,-0.04,0.22,-36.03,-20.51,-5.65
17626,-9.14,-0.33,-4.31,-0.20,-0.04,0.22,-36.03,-20.51,-5.65
17637,-9.07,-0.38,-4.68,-0.21,-0.02,0.18,-35.68,-19.42,-4.97
17648,-9.18,-0.34,-4.48,-0.19,-0.05,0.15,-35.68,-19.42,-4.97
17659,-9.18,-0.34,-4.48,-0.19,-0.05,0.15,-35.68,-19.42,-4.97
17670,-8.82,-0.51,-4.36,-0.17,-0.05,0.10,-35.68,-19.42,-4.97
17681,-8.82,-0.51,-4.36,-0.17,-0.05,0.10,-35.68,-19.42,-4.97
17692,-9.60,-0.19,-4.17,-0.19,-0.07,0.06,-35.68,-19.42,-4.97
17703,-9.60,-0.19,-4.17,-0.19,-0.07,0.06,-35.68,-19.42,-4.97
17714,-9.39,-0.25,-4.67,-0.19,-0.04,0.01,-35.68,-19.42,-4.97
17730,-9.39,-0.25,-4.67,-0.19,-0.04,0.01,-35.68,-19.42,-4.97
17736,-9.14,-0.26,-4.21,-0.18,-0.08,-0.01,-35.68,-19.42,-4.97
17747,-9.14,-0.26,-4.21,-0.18,-0.08,-0.01,-35.68,-19.42,-4.97
17758,-9.46,-0.18,-4.44,-0.17,-0.08,-0.05,-36.03,-18.69,-5.31
17769,-8.91,0.07,-5.08,-0.18,-0.05,-0.08,-36.03,-18.69,-5.31
17780,-8.91,0.07,-5.08,-0.18,-0.05,-0.08,-36.03,-18.69,-5.31
17791,-9.24,-0.36,-4.69,-0.16,-0.07,-0.16,-36.03,-18.69,-5.31
17802,-9.24,-0.36,-4.69,-0.16,-0.07,-0.16,-36.03,-18.69,-5.31
17813,-8.98,-0.30,-4.61,-0.16,-0.07,-0.15,-36.03,-18.69,-5.31
17824,-8.98,-0.30,-4.61,-0.16,-0.07,-0.15,-36.03,-18.69,-5.31
17835,-9.20,0.43,-4.68,-0.12,-0.07,-0.17,-36.03,-18.69,-5.31
17846,-9.20,0.43,-4.68,-0.12,-0.07,-0.17,-36.03,-18.69,-5.31
17857,-9.13,-0.40,-4.56,-0.07,-0.02,-0.25,-36.03,-18.69,-5.31
17868,-9.32,-0.80,-4.47,-0.09,-0.00,-0.25,-36.03,-19.78,-5.31
17879,-9.32,-0.80,-4.47,-0.09,-0.00,-0.25,-36.03,-19.78,-5.31
17890,-9.05,-0.11,-4.72,-0.09,-0.08,-0.27,-36.03,-19.78,-5.31
17901,-9.05,-0.11,-4.72,-0.09,-0.08,-0.27,-36.03,-19.78,-5.31
17912,-8.86,-0.78,-4.55,-0.01,-0.08,-0.32,-36.03,-19.78,-5.31
17923,-8.86,-0.78,-4.55,-0.01,-0.08,-0.32,-36.03,-19.78,-5.31
17934,-9.21,-0.44,-4.77,-0.00,-0.07,-0.32,-36.03,-19.78,-5.31
17945,-9.21,-0.44,-4.77,-0.00,-0.07,-0.32,-36.03,-19.78,-5.31
17956,-9.06,-0.78,-3.77,0.05,-0.06,-0.34,-36.03,-19.78,-5.31
17967,-9.06,-0.78,-3.77,0.05,-0.06,-0.34,-36.03,-19.78,-5.31
17978,-9.26,-0.22,-4.18,0.06,-0.04,-0.35,-36.03,-19.78,-5.31
17989,-9.01,-0.83,-4.42,0.10,-0.03,-0.44,-36.03,-19.78,-5.31
18000,-9.01,-0.83,-4.42,0.10,-0.03,-0.44,-36.03,-19.78,-5.31
18011,-8.86,-0.56,-4.50,0.09,-0.02,-0.45,-35.50,-21.77,-5.48
18022,-8.86,-0.56,-4.50,0.09,-0.02,-0.45,-35.50,-21.77,-5.48
18033,-9.05,-0.40,-4.98,0.09,-0.02,-0.45,-35.50,-21.77,-5.48
18045,-9.05,-0.40,-4.98,0.09,-0.02,-0.45,-35.50,-21.77,-5.48
18055,-9.02,-1.14,-4.86,0.16,-0.07,-0.50,-35.50,-21.77,-5.48
18066,-9.02,-1.14,-4.86,0.16,-0.07,-0.50,-35.50,-21.77,-5.48
18077,-8.91,-0.72,-4.15,0.14,-0.08,-0.50,-35.50,-21.77,-5.48
18088,-8.85,-1.04,-4.75,0.19,-0.07,-0.60,-35.50,-21.77,-5.48
18099,-8.85,-1.04,-4.75,0.19,-0.07,-0.60,-35.50,-21.77,-5.48
18110,-8.98,-1.91,-4.31,0.30,-0.04,-0.54,-35.50,-21.77,-5.48
18121,-8.98,-1.91,-4.31,0.30,-0.04,-0.54,-35.50,-21.77,-5.48
18132,-9.39,-0.63,-5.01,0.25,-0.02,-0.43,-34.10,-23.59,-5.14
18143,-9.39,-0.63,-5.01,0.25,-0.02,-0.43,-34.10,-23.59,-5.14
18154,-9.12,-1.20,-4.81,0.34,-0.00,-0.49,-34.10,-23.59,-5.14
18165,-9.12,-1.20,-4.81,0.34,-0.00,-0.49,-34.10,-23.59,-5.14
18176,-9.19,-1.31,-4.65,0.32,0.01,-0.44,-34.10,-23.59,-5.14
18187,-9.19,-1.31,-4.65,0.32,0.01,-0.44,-34.10,-23.59,-5.14
18198,-8.73,-1.57,-4.59,0.32,0.03,-0.36,-34.10,-23.59,-5.14
18209,-9.31,-1.52,-4.24,0.34,0.07,-0.31,-34.10,-23.59,-5.14
18220,-9.31,-1.52,-4.24,0.34,0.07,-0.31,-34.10,-23.59,-5.14
18231,-8.85,-1.68,-4.25,0.35,0.10,-0.27,-34.10,-23.59,-5.14
18242,-8.85,-1.68,-4.25,0.35,0.10,-0.27,-34.10,-23.59,-5.14
18253,-9.46,-1.80,-4.42,0.35,0.11,-0.25,-33.39,-25.76,-2.42
18264,-9.46,-1.80,-4.42,0.35,0.11,-0.25,-33.39,-25.76,-2.42
18276,-8.97,-2.19,-4.06,0.32,0.12,-0.19,-33.39,-25.76,-2.42
18286,-8.97,-2.19,-4.06,0.32,0.12,-0.19,-33.39,-25.76,-2.42
18297,-9.18,-2.05,-3.96,0.24,0.17,-0.05,-33.39,-25.76,-2.42
18308,-9.18,-2.09,-4.24,0.13,0.13,-0.00,-33.39,-25.76,-2.42
18319,-9.18,-2.09,-4.24,0.13,0.13,-0.00,-33.39,-25.76,-2.42
18330,-9.01,-2.29,-3.73,0.09,0.09,0.03,-33.39,-25.76,-2.42
18341,-9.01,-2.29,-3.73,0.09,0.09,0.03,-33.39,-25.76,-2.42
18352,-8.99,-2.72,-4.11,-0.02,0.16,0.16,-33.39,-25.76,-2.42
18363,-8.99,-2.72,-4.11,-0.02,0.16,0.16,-33.39,-25.76,-2.42
18374,-9.18,-1.14,-4.54,-0.19,0.15,0.33,-33.39,-25.76,-2.42
18385,-9.18,-1.14,-4.54,-0.19,0.15,0.33,-33.39,-25.76,-2.42
18396,-8.76,-2.46,-4.58,-0.11,0.14,0.28,-33.74,-26.48,-5.82
18407,-8.76,-2.46,-4.58,-0.11,0.14,0.28,-33.74,-26.48,-5.82
18418,-9.05,-1.07,-4.61,-0.21,0.11,0.41,-33.74,-26.48,-5.82
18429,-8.92,-1.66,-4.42,-0.10,0.10,0.35,-33.74,-26.48,-5.82
18440,-8.92,-1.66,-4.42,-0.10,0.10,0.35,-33.74,-26.48,-5.82
18451,-9.18,-1.76,-4.22,-0.13,0.06,0.33,-33.74,-26.48,-5.82
18462,-9.18,-1.76,-4.22,-0.13,0.06,0.33,-33.74,-26.48,-5.82
18473,-8.74,-2.16,-4.32,-0.21,0.02,0.37,-33.74,-26.48,-5.82
18484,-8.74,-2.16,-4.32,-0.21,0.02,0.37,-33.74,-26.48,-5.82
18495,-9.08,-0.81,-4.77,-0.27,0.00,0.43,-33.74,-26.48,-5.82
18506,-9.08,-0.81,-4.77,-0.27,0.00,0.43,-33.74,-26.48,-5.82
18517,-9.15,-1.03,-4.05,-0.16,0.04,0.42,-34.27,-24.13,-6.33
18528,-8.91,-1.24,-4.28,-0.13,0.05,0.37,-34.27,-24.13,-6.33
18539,-8.91,-1.24,-4.28,-0.13,0.05,0.37,-34.27,-24.13,-6.33
18550,-9.02,-1.02,-4.44,-0.18,0.05,0.37,-34.27,-24.13,-6.33
18561,-9.02,-1.02,-4.44,-0.18,0.05,0.37,-34.27,-24.13,-6.33
18572,-9.14,-0.95,-4.46,-0.23,0.04,0.41,-34.27,-24.13,-6.33
18583,-9.14,-0.95,-4.46,-0.23,0.04,0.41,-34.27,-24.13,-6.33
18595,-8.87,-1.20,-4.38,-0.24,0.01,0.40,-34.27,-24.13,-6.33
18605,-8.87,-1.20,-4.38,-0.24,0.01,0.40,-34.27,-24.13,-6.33
18616,-9.22,-0.33,-4.73,-0.29,-0.03,0.41,-34.27,-24.13,-6.33
18627,-9.22,-0.33,-4.73,-0.29,-0.03,0.41,-34.27,-24.13,-6.33
18643,-9.17,-0.79,-4.45,-0.24,-0.04,0.39,-34.97,-20.51,-6.67
18649,-9.53,-0.58,-4.51,-0.24,-0.05,0.37,-34.97,-20.51,-6.67
18660,-9.53,-0.58,-4.51,-0.24,-0.05,0.37,-34.97,-20.51,-6.67
18671,-9.08,-0.78,-3.80,-0.23,-0.07,0.30,-34.97,-20.51,-6.67
18682,-9.08,-0.78,-3.80,-0.23,-0.07,0.30,-34.97,-20.51,-6.67
18693,-9.05,-0.91,-4.66,-0.25,0.02,0.24,-34.97,-20.51,-6.67
18704,-9.05,-0.91,-4.66,-0.25,0.02,0.24,-34.97,-20.51,-6.67
18715,-8.99,-0.03,-4.65,-0.28,-0.06,0.31,-34.97,-20.51,-6.67
18726,-8.99,-0.03,-4.65,-0.28,-0.06,0.31,-34.97,-20.51,-6.67
18737,-9.00,-0.38,-4.57,-0.22,-0.09,0.19,-34.97,-20.51,-6.67
18748,-9.27,-0.38,-4.49,-0.23,-0.11,0.08,-34.97,-20.51,-6.67
18759,-9.27,-0.38,-4.49,-0.23,-0.11,0.08,-34.97,-20.51,-6.67
18770,-9.12,-0.77,-4.57,-0.24,-0.12,0.05,-37.43,-20.51,-7.01
18781,-9.12,-0.77,-4.57,-0.24,-0.12,0.05,-37.43,-20.51,-7.01
18792,-8.99,-0.45,-4.29,-0.25,-0.12,0.12,-37.43,-20.51,-7.01
18803,-8.99,-0.45,-4.29,-0.25,-0.12,0.12,-37.43,-20.51,-7.01
18814,-9.38,-0.33,-4.15,-0.21,-0.15,0.05,-37.43,-20.51,-7.01
18825,-9.38,-0.33,-4.15,-0.21,-0.15,0.05,-37.43,-20.51,-7.01
18836,-9.03,0.04,-4.76,-0.21,-0.13,-0.07,-37.43,-20.51,-7.01
18847,-9.03,0.04,-4.76,-0.21,-0.13,-0.07,-37.43,-20.51,-7.01
18858,-9.51,-0.23,-4.35,-0.20,-0.12,-0.16,-37.43,-20.51,-7.01
18869,-9.03,-0.24,-4.61,-0.20,-0.08,-0.21,-37.43,-20.51,-7.01
18880,-9.03,-0.24,-4.61,-0.20,-0.08,-0.21,-37.43,-20.51,-7.01
18891,-9.34,-0.15,-4.87,-0.19,-0.07,-0.22,-35.32,-19.78,-5.99
18902,-9.34,-0.15,-4.87,-0.19,-0.07,-0.22,-35.32,-19.78,-5.99
18914,-8.90,-0.41,-4.36,-0.14,-0.07,-0.29,-35.32,-19.78,-5.99
18924,-8.90,-0.41,-4.36,-0.14,-0.07,-0.29,-35.32,-19.78,-5.99
18935,-9.01,-0.41,-4.95,-0.11,-0.04,-0.31,-35.32,-19.78,-5.99
18946,-9.01,-0.41,-4.95,-0.11,-0.04,-0.31,-35.32,-19.78,-5.99
18957,-9.11,-0.72,-4.12,-0.09,-0.06,-0.32,-35.32,-19.78,-5.99
18968,-9.11,-0.72,-4.12,-0.09,-0.06,-0.32,-35.32,-19.78,-5.99
18979,-9.25,-0.97,-4.43,-0.06,-0.08,-0.35,-35.32,-19.78,-5.99
18990,-9.13,0.04,-4.74,-0.05,-0.10,-0.36,-35.32,-19.78,-5.99
19001,-9.13,0.04,-4.74,-0.05,-0.10,-0.36,-35.32,-19.78,-5.99
19012,-8.79,-0.70,-4.47,0.03,-0.06,-0.48,-35.50,-21.77,-6.50
19023,-8.79,-0.70,-4.47,0.03,-0.06,-0.48,-35.50,-21.77,-6.50
19034,-8.92,-0.53,-4.90,0.04,-0.03,-0.52,-35.50,-21.77,-6.50
19050,-8.92,-0.53,-4.90,0.04,-0.03,-0.52,-35.50,-21.77,-6.50
19056,-9.12,-0.58,-4.67,0.12,-0.03,-0.57,-35.50,-21.77,-6.50
19067,-9.12,-0.58,-4.67,0.12,-0.03,-0.57,-35.50,-21.77,-6.50
19078,-8.69,-1.29,-4.33,0.19,-0.02,-0.60,-35.50,-21.77,-6.50
19089,-9.12,-1.26,-5.18,0.18,-0.05,-0.59,-35.50,-21.77,-6.50
19100,-9.12,-1.26,-5.18,0.18,-0.05,-0.59,-35.50,-21.77,-6.50
19111,-9.01,-0.40,-4.48,0.18,-0.06,-0.57,-35.50,-21.77,-6.50
19122,-9.01,-0.40,-4.48,0.18,-0.06,-0.57,-35.50,-21.77,-6.50
19133,-8.46,-1.94,-4.16,0.29,-0.06,-0.68,-35.50,-21.77,-6.50
19144,-8.46,-1.94,-4.16,0.29,-0.06,-0.68,-35.50,-21.77,-6.50
19155,-8.84,-1.35,-4.72,0.21,-0.05,-0.60,-34.80,-25.03,-5.14
19166,-8.84,-1.35,-4.72,0.21,-0.05,-0.60,-34.80,-25.03,-5.14
19177,-9.32,-1.94,-4.76,0.24,-0.03,-0.49,-34.80,-25.03,-5.14
19189,-9.21,-1.41,-4.64,0.20,-0.07,-0.36,-34.80,-25.03,-5.14
19199,-9.21,-1.41,-4.64,0.20,-0.07,-0.36,-34.80,-25.03,-5.14
19210,-8.99,-0.80,-4.23,0.23,-0.06,-0.38,-34.80,-25.03,-5.14
19221,-8.99,-0.80,-4.23,0.23,-0.06,-0.38,-34.80,-25.03,-5.14
19232,-8.69,-1.59,-4.01,0.34,0.00,-0.48,-34.80,-25.03,-5.14
19243,-8.69,-1.59,-4.01,0.34,0.00,-0.48,-34.80,-25.03,-5.14
19254,-8.83,-2.52,-4.13,0.36,0.09,-0.40,-34.80,-25.03,-5.14
19265,-8.83,-2.52,-4.13,0.36,0.09,-0.40,-34.80,-25.03,-5.14
19276,-9.26,-1.97,-3.87,0.27,0.10,-0.20,-33.39,-26.85,-5.14
19287,-9.26,-1.97,-3.87,0.27,0.10,-0.20,-33.39,-26.85,-5.14
19298,-9.27,-1.38,-4.27,0.26,0.09,-0.15,-33.39,-26.85,-5.14
19309,-9.19,-2.27,-4.09,0.30,0.08,-0.15,-33.39,-26.85,-5.14
19320,-9.19,-2.27,-4.09,0.30,0.08,-0.15,-33.39,-26.85,-5.14
19331,-8.97,-2.01,-3.89,0.18,0.10,-0.06,-33.39,-26.85,-5.14
19342,-8.97,-2.01,-3.89,0.18,0.10,-0.06,-33.39,-26.85,-5.14
19353,-8.93,-2.12,-3.71,0.14,0.14,0.02,-33.39,-26.85,-5.14
19364,-8.93,-2.12,-3.71,0.14,0.14,0.02,-33.39,-26.85,-5.14
19375,-9.05,-2.33,-4.16,0.08,0.22,0.12,-33.39,-26.85,-5.14
19386,-9.05,-2.33,-4.16,0.08,0.22,0.12,-33.39,-26.85,-5.14
19397,-9.05,-2.63,-4.27,-0.02,0.22,0.23,-33.04,-26.12,-3.78
19408,-9.05,-2.63,-4.27,-0.02,0.22,0.23,-33.04,-26.12,-3.78
19419,-8.99,-2.02,-4.17,-0.13,0.16,0.37,-33.04,-26.12,-3.78
19430,-9.03,-1.70,-4.69,-0.14,0.14,0.42,-33.04,-26.12,-3.78
19442,-9.03,-1.70,-4.69,-0.14,0.14,0.42,-33.04,-26.12,-3.78
19452,-8.99,-2.02,-4.57,-0.17,0.06,0.35,-33.04,-26.12,-3.78
19463,-8.99,-2.02,-4.57,-0.17,0.06,0.35,-33.04,-26.12,-3.78
19474,-8.96,-2.04,-4.03,-0.25,0.05,0.44,-33.04,-26.12,-3.78
19485,-8.96,-2.04,-4.03,-0.25,0.05,0.44,-33.04,-26.12,-3.78
19496,-9.22,-0.95,-4.46,-0.30,0.01,0.48,-33.04,-26.12,-3.78
19507,-9.22,-0.95,-4.46,-0.30,0.01,0.48,-33.04,-26.12,-3.78
19518,-9.00,-1.77,-4.33,-0.18,0.01,0.42,-34.10,-24.67,-5.48
19529,-8.87,-1.87,-4.17,-0.20,0.02,0.46,-34.10,-24.67,-5.48
19540,-8.87,-1.87,-4.17,-0.20,0.02,0.46,-34.10,-24.67,-5.48
19551,-9.19,-0.72,-4.19,-0.26,0.04,0.51,-34.10,-24.67,-5.48
19562,-9.19,-0.72,-4.19,-0.26,0.04,0.51,-34.10,-24.67,-5.48
19573,-9.38,-1.19,-4.72,-0.20,0.07,0.40,-34.10,-24.67,-5.48
19584,-9.38,-1.19,-4.72,-0.20,0.07,0.40,-34.10,-24.67,-5.48
19595,-9.49,-1.02,-4.24,-0.22,-0.00,0.45,-34.10,-24.67,-5.48
19606,-9.49,-1.02,-4.24,-0.22,-0.00,0.45,-34.10,-24.67,-5.48
19617,-9.38,-0.84,-4.53,-0.25,0.03,0.49,-34.10,-24.67,-5.48
19628,-9.38,-0.84,-4.53,-0.25,0.03,0.49,-34.10,-24.67,-5.48
19639,-9.49,-0.26,-4.76,-0.25,-0.02,0.43,-34.10,-24.67,-5.48
19650,-9.00,-1.16,-4.11,-0.20,-0.07,0.34,-35.50,-22.14,-6.84
19661,-9.00,-1.16,-4.11,-0.20,-0.07,0.34,-35.50,-22.14,-6.84
19672,-9.28,-0.68,-4.32,-0.22,-0.09,0.34,-35.50,-22.14,-6.84
19683,-9.28,-0.68,-4.32,-0.22,-0.09,0.34,-35.50,-22.14,-6.84
19695,-9.06,-0.92,-4.31,-0.18,-0.02,0.33,-35.50,-22.14,-6.84
19705,-9.06,-0.92,-4.31,-0.18,-0.02,0.33,-35.50,-22.14,-6.84
19716,-9.42,-0.41,-4.33,-0.24,-0.02,0.33,-35.50,-22.14,-6.84
19727,-9.42,-0.41,-4.33,-0.24,-0.02,0.33,-35.50,-22.14,-6.84
19738,-9.33,-0.49,-4.65,-0.24,-0.00,0.29,-35.50,-22.14,-6.84
19749,-9.09,-0.55,-4.52,-0.23,-0.07,0.23,-35.50,-22.14,-6.84
19760,-9.09,-0.55,-4.52,-0.23,-0.07,0.23,-35.50,-22.14,-6.84
19771,-9.68,-0.21,-4.30,-0.23,-0.11,0.18,-35.32,-20.14,-7.35
19782,-9.68,-0.21,-4.30,-0.23,-0.11,0.18,-35.32,-20.14,-7.35
19793,-9.13,-0.44,-4.30,-0.22,-0.11,0.08,-35.32,-20.14,-7.35
19804,-9.13,-0.44,-4.30,-0.22,-0.11,0.08,-35.32,-20.14,-7.35
19815,-9.15,-0.62,-3.63,-0.24,-0.14,-0.01,-35.32,-20.14,-7.35
19826,-9.15,-0.62,-3.63,-0.24,-0.14,-0.01,-35.32,-20.14,-7.35
19837,-9.42,-0.46,-3.96,-0.25,-0.15,-0.07,-35.32,-20.14,-7.35
19848,-9.42,-0.46,-3.96,-0.25,-0.15,-0.07,-35.32,-20.14,-7.35
19859,-9.28,-0.48,-4.32,-0.25,-0.13,-0.13,-35.32,-20.14,-7.35
19870,-9.06,-0.28,-4.47,-0.23,-0.13,-0.18,-35.32,-20.14,-7.35
19881,-9.06,-0.28,-4.47,-0.23,-0.13,-0.18,-35.32,-20.14,-7.35
19892,-9.23,-0.37,-4.49,-0.20,-0.14,-0.25,-35.85,-19.96,-7.52
19903,-9.23,-0.37,-4.49,-0.20,-0.14,-0.25,-35.85,-19.96,-7.52
19914,-9.31,-0.23,-4.74,-0.20,-0.12,-0.25,-35.85,-19.96,-7.52
19925,-9.31,-0.23,-4.74,-0.20,-0.12,-0.25,-35.85,-19.96,-7.52
19936,-9.37,-0.43,-4.16,-0.15,-0.10,-0.26,-35.85,-19.96,-7.52
19947,-9.37,-0.43,-4.16,-0.15,-0.10,-0.26,-35.85,-19.96,-7.52
19963,-9.13,-0.18,-4.40,-0.13,-0.08,-0.31,-35.85,-19.96,-7.52
19969,-9.13,-0.18,-4.40,-0.13,-0.08,-0.31,-35.85,-19.96,-7.52
19980,-9.03,-0.74,-4.34,-0.06,-0.05,-0.39,-35.85,-19.96,-7.52
19991,-9.00,-0.56,-4.69,-0.01,-0.03,-0.43,-35.85,-19.96,-7.52
20002,-9.00,-0.56,-4.69,-0.01,-0.03,-0.43,-35.85,-19.96,-7.52
20013,-9.06,-1.04,-4.22,0.03,-0.06,-0.47,-35.85,-19.96,-7.52
20024,-9.06,-1.04,-4.22,0.03,-0.06,-0.47,-35.85,-19.96,-7.52
20035,-9.12,-0.77,-4.12,-0.01,-0.10,-0.49,-34.62,-21.59,-7.35
20046,-9.12,-0.77,-4.12,-0.01,-0.10,-0.49,-34.62,-21.59,-7.35
20057,-8.96,-0.95,-5.09,0.01,-0.04,-0.49,-34.62,-21.59,-7.35
20068,-8.96,-0.95,-5.09,0.01,-0.04,-0.49,-34.62,-21.59,-7.35
20079,-9.13,-0.85,-4.52,0.03,-0.07,-0.43,-34.62,-21.59,-7.35
20090,-9.55,-1.02,-4.73,0.05,-0.06,-0.46,-34.62,-21.59,-7.35
20101,-9.55,-1.02,-4.73,0.05,-0.06,-0.46,-34.62,-21.59,-7.35
20112,-9.46,-0.46,-4.52,0.04,-0.08,-0.45,-34.62,-21.59,-7.35
20123,-9.46,-0.46,-4.52,0.04,-0.08,-0.45,-34.62,-21.59,-7.35
20134,-9.07,-1.12,-4.41,0.09,-0.04,-0.50,-34.62,-21.59,-7.35
20145,-9.07,-1.12,-4.41,0.09,-0.04,-0.50,-34.62,-21.59,-7.35
20156,-8.91,-1.77,-4.40,0.10,-0.01,-0.41,-33.57,-23.04,-4.63
20167,-8.91,-1.77,-4.40,0.10,-0.01,-0.41,-33.57,-23.04,-4.63
20178,-8.91,-1.22,-3.80,0.05,-0.01,-0.35,-33.57,-23.04,-4.63
20189,-8.91,-1.22,-3.80,0.05,-0.01,-0.35,-33.57,-23.04,-4.63
20200,-9.16,-1.40,-4.27,0.08,-0.04,-0.48,-33.57,-23.04,-4.63
20211,-8.98,-1.63,-3.88,0.16,-0.03,-0.52,-33.57,-23.04,-4.63
20222,-8.98,-1.63,-3.88,0.16,-0.03,-0.52,-33.57,-23.04,-4.63
20233,-8.78,-2.00,-4.40,0.19,0.01,-0.50,-33.57,-23.04,-4.63
20244,-8.78,-2.00,-4.40,0.19,0.01,-0.50,-33.57,-23.04,-4.63
20256,-9.04,-1.78,-4.41,0.17,-0.02,-0.40,-33.57,-23.04,-4.63
20266,-9.04,-1.78,-4.41,0.17,-0.02,-0.40,-33.57,-23.04,-4.63
20277,-9.07,-1.45,-4.28,0.20,-0.01,-0.36,-32.52,-25.58,-5.31
20288,-9.07,-1.45,-4.28,0.20,-0.01,-0.36,-32.52,-25.58,-5.31
20299,-8.78,-1.73,-4.13,0.31,-0.01,-0.42,-32.52,-25.58,-5.31
20310,-9.21,-1.95,-4.37,0.33,-0.00,-0.44,-32.52,-25.58,-5.31
20321,-9.21,-1.95,-4.37,0.33,-0.00,-0.44,-32.52,-25.58,-5.31
20332,-9.27,-1.78,-4.28,0.29,0.02,-0.37,-32.52,-25.58,-5.31
20343,-9.27,-1.78,-4.28,0.29,0.02,-0.37,-32.52,-25.58,-5.31
20354,-8.95,-2.37,-4.29,0.28,0.06,-0.30,-32.52,-25.58,-5.31
20365,-8.95,-2.37,-4.29,0.28,0.06,-0.30,-32.52,-25.58,-5.31
20376,-8.73,-2.31,-4.12,0.25,0.10,-0.18,-32.52,-25.58,-5.31
20387,-8.73,-2.31,-4.12,0.25,0.10,-0.18,-32.52,-25.58,-5.31
20398,-9.49,-2.05,-3.94,0.25,0.14,-0.10,-32.52,-25.58,-5.31
20409,-9.49,-2.05,-3.94,0.25,0.14,-0.10,-32.52,-25.58,-5.31
20420,-9.46,-2.20,-3.78,0.23,0.14,-0.08,-31.46,-27.39,-4.63
20431,-9.29,-2.19,-3.99,0.18,0.13,-0.05,-31.46,-27.39,-4.63
20442,-9.29,-2.19,-3.99,0.18,0.13,-0.05,-31.46,-27.39,-4.63
20453,-9.04,-2.75,-3.96,0.09,0.12,0.03,-31.46,-27.39,-4.63
20464,-9.04,-2.75,-3.96,0.09,0.12,0.03,-31.46,-27.39,-4.63
20475,-9.09,-2.62,-4.05,-0.05,0.10,0.16,-31.46,-27.39,-4.63
20486,-9.09,-2.62,-4.05,-0.05,0.10,0.16,-31.46,-27.39,-4.63
20497,-8.99,-1.94,-4.13,-0.09,0.10,0.28,-31.46,-27.39,-4.63
20509,-8.99,-1.94,-4.13,-0.09,0.10,0.28,-31.46,-27.39,-4.63
20519,-8.94,-2.47,-4.20,-0.06,0.10,0.29,-31.46,-27.39,-4.63
20530,-9.01,-1.89,-4.14,-0.09,0.09,0.31,-33.39,-26.48,-5.82
20541,-9.01,-1.89,-4.14,-0.09,0.09,0.31,-33.39,-26.48,-5.82
20552,-9.13,-1.94,-4.29,-0.07,0.09,0.28,-33.39,-26.48,-5.82
20563,-9.13,-1.94,-4.29,-0.07,0.09,0.28,-33.39,-26.48,-5.82
20574,-9.06,-2.29,-4.23,-0.12,0.09,0.36,-33.39,-26.48,-5.82
20585,-9.06,-2.29,-4.23,-0.12,0.09,0.36,-33.39,-26.48,-5.82
20596,-9.12,-1.35,-4.18,-0.19,0.07,0.47,-33.39,-26.48,-5.82
20607,-9.12,-1.35,-4.18,-0.19,0.07,0.47,-33.39,-26.48,-5.82
20618,-9.22,-1.56,-4.48,-0.10,0.07,0.38,-33.39,-26.48,-5.82
20629,-9.22,-1.56,-4.48,-0.10,0.07,0.38,-33.39,-26.48,-5.82
20640,-9.12,-1.34,-4.13,-0.09,0.03,0.33,-33.39,-26.48,-5.82
20651,-9.07,-2.10,-4.14,-0.09,0.05,0.36,-32.34,-25.76,-7.18
20662,-9.07,-2.10,-4.14,-0.09,0.05,0.36,-32.34,-25.76,-7.18
20673,-9.07,-1.14,-4.41,-0.18,0.05,0.45,-32.34,-25.76,-7.18
20684,-9.07,-1.14,-4.41,-0.18,0.05,0.45,-32.34,-25.76,-7.18
20695,-8.97,-1.87,-4.54,-0.12,0.04,0.34,-32.34,-25.76,-7.18
20706,-8.97,-1.87,-4.54,-0.12,0.04,0.34,-32.34,-25.76,-7.18
20717,-9.38,-0.71,-4.14,-0.14,-0.02,0.41,-32.34,-25.76,-7.18
20728,-9.38,-0.71,-4.14,-0.14,-0.02,0.41,-32.34,-25.76,-7.18
20739,-9.33,-1.41,-4.70,-0.12,-0.00,0.29,-32.34,-25.76,-7.18
20750,-9.11,-1.16,-4.30,-0.14,-0.02,0.32,-32.34,-25.76,-7.18
20761,-9.11,-1.16,-4.30,-0.14,-0.02,0.32,-32.34,-25.76,-7.18
20772,-9.05,-1.03,-4.34,-0.13,-0.01,0.32,-34.45,-22.86,-6.16
20784,-9.05,-1.03,-4.34,-0.13,-0.01,0.32,-34.45,-22.86,-6.16
20794,-9.05,-1.74,-4.45,-0.16,-0.01,0.28,-34.45,-22.86,-6.16
20805,-9.05,-1.74,-4.45,-0.16,-0.01,0.28,-34.45,-22.86,-6.16
20816,-9.07,-1.04,-4.29,-0.27,-0.05,0.30,-34.45,-22.86,-6.16
20827,-9.07,-1.04,-4.29,-0.27,-0.05,0.30,-34.45,-22.86,-6.16
20838,-9.04,-1.05,-4.16,-0.25,-0.03,0.27,-34.45,-22.86,-6.16
20849,-9.04,-1.05,-4.16,-0.25,-0.03,0.27,-34.45,-22.86,-6.16
20860,-9.33,-1.20,-4.78,-0.22,-0.02,0.23,-34.45,-22.86,-6.16
20871,-9.24,-0.85,-4.31,-0.24,-0.06,0.25,-34.45,-22.86,-6.16
20882,-9.24,-0.85,-4.31,-0.24,-0.06,0.25,-34.45,-22.86,-6.16
20893,-9.21,-0.90,-4.08,-0.27,-0.07,0.20,-34.45,-22.86,-6.16
20904,-9.21,-0.90,-4.08,-0.27,-0.07,0.20,-34.45,-22.86,-6.16
20915,-9.21,-0.98,-4.53,-0.27,-0.04,0.16,-34.80,-22.14,-6.16
20926,-9.21,-0.98,-4.53,-0.27,-0.04,0.16,-34.80,-22.14,-6.16
20937,-9.29,-0.35,-4.30,-0.26,-0.06,0.15,-34.80,-22.14,-6.16
20948,-9.29,-0.35,-4.30,-0.26,-0.06,0.15,-34.80,-22.14,-6.16
20959,-9.24,-0.75,-4.14,-0.23,-0.06,0.09,-34.80,-22.14,-6.16
20970,-9.16,-0.75,-4.46,-0.22,-0.06,0.07,-34.80,-22.14,-6.16
20981,-9.16,-0.75,-4.46,-0.22,-0.06,0.07,-34.80,-22.14,-6.16
20992,-9.63,-0.21,-4.36,-0.20,-0.09,0.01,-34.80,-22.14,-6.16
21003,-9.63,-0.21,-4.36,-0.20,-0.09,0.01,-34.80,-22.14,-6.16
21014,-9.22,-0.56,-4.51,-0.20,-0.09,-0.07,-34.80,-22.14,-6.16
21025,-9.22,-0.56,-4.51,-0.20,-0.09,-0.07,-34.80,-22.14,-6.16
21036,-9.09,-0.38,-4.54,-0.20,-0.12,-0.13,-34.80,-20.69,-6.50
21047,-9.09,-0.38,-4.54,-0.20,-0.12,-0.13,-34.80,-20.69,-6.50
21058,-9.25,-0.08,-4.50,-0.18,-0.09,-0.19,-34.80,-20.69,-6.50
21069,-9.25,-0.08,-4.50,-0.18,-0.09,-0.19,-34.80,-20.69,-6.50
21080,-9.45,-0.64,-4.30,-0.16,-0.07,-0.32,-34.80,-20.69,-6.50
21091,-9.21,-0.37,-4.18,-0.13,-0.06,-0.39,-34.80,-20.69,-6.50
21103,-9.21,-0.37,-4.18,-0.13,-0.06,-0.39,-34.80,-20.69,-6.50
21113,-8.74,-1.68,-4.34,-0.00,0.00,-0.44,-34.80,-20.69,-6.50
21124,-8.74,-1.68,-4.34,-0.00,0.00,-0.44,-34.80,-20.69,-6.50
21135,-9.16,-0.63,-4.37,-0.02,-0.06,-0.40,-34.80,-20.69,-6.50
21146,-9.16,-0.63,-4.37,-0.02,-0.06,-0.40,-34.80,-20.69,-6.50
21157,-9.15,-0.60,-4.50,0.04,-0.11,-0.53,-33.57,-22.68,-5.99
21168,-9.15,-0.60,-4.50,0.04,-0.11,-0.53,-33.57,-22.68,-5.99
21179,-9.00,-1.27,-4.17,0.05,-0.13,-0.57,-33.57,-22.68,-5.99
21190,-9.00,-1.27,-4.17,0.05,-0.13,-0.57,-33.57,-22.68,-5.99
21201,-9.07,-1.41,-4.36,0.05,-0.07,-0.49,-33.57,-22.68,-5.99
21212,-9.03,-0.98,-4.78,0.08,-0.04,-0.42,-33.57,-22.68,-5.99
21223,-9.03,-0.98,-4.78,0.08,-0.04,-0.42,-33.57,-22.68,-5.99
21234,-9.23,-0.76,-4.44,0.12,-0.02,-0.46,-33.57,-22.68,-5.99
21245,-9.23,-0.76,-4.44,0.12,-0.02,-0.46,-33.57,-22.68,-5.99
21256,-8.90,-1.19,-4.25,0.14,-0.07,-0.60,-33.57,-22.68,-5.99
21267,-8.90,-1.19,-4.25,0.14,-0.07,-0.60,-33.57,-22.68,-5.99
21278,-9.04,-1.51,-4.46,0.17,-0.09,-0.61,-33.57,-22.68,-5.99
21289,-9.04,-1.51,-4.46,0.17,-0.09,-0.61,-33.57,-22.68,-5.99
21300,-9.55,-1.49,-4.56,0.21,-0.06,-0.53,-32.16,-24.49,-6.33
21311,-8.75,-1.19,-4.45,0.20,-0.01,-0.42,-32.16,-24.49,-6.33
21322,-8.75,-1.19,-4.45,0.20,-0.01,-0.42,-32.16,-24.49,-6.33
21333,-8.96,-2.13,-4.15,0.24,-0.04,-0.51,-32.16,-24.49,-6.33
21344,-8.96,-2.13,-4.15,0.24,-0.04,-0.51,-32.16,-24.49,-6.33
21355,-9.06,-1.38,-4.50,0.30,-0.03,-0.50,-32.16,-24.49,-6.33
21366,-9.06,-1.38,-4.50,0.30,-0.03,-0.50,-32.16,-24.49,-6.33
21377,-9.30,-1.68,-4.71,0.36,-0.00,-0.46,-32.16,-24.49,-6.33
21388,-9.30,-1.68,-4.71,0.36,-0.00,-0.46,-32.16,-24.49,-6.33
21399,-9.15,-2.29,-4.39,0.33,0.01,-0.38,-32.16,-24.49,-6.33
21410,-9.15,-2.29,-4.39,0.33,0.01,-0.38,-32.16,-24.49,-6.33
21421,-8.97,-2.53,-3.68,0.29,-0.02,-0.31,-32.87,-27.39,-6.33
21432,-9.06,-2.46,-3.76,0.28,-0.03,-0.30,-32.87,-27.39,-6.33
21443,-9.06,-2.46,-3.76,0.28,-0.03,-0.30,-32.87,-27.39,-6.33
21454,-8.97,-2.65,-3.52,0.28,0.05,-0.22,-32.87,-27.39,-6.33
21465,-8.97,-2.65,-3.52,0.28,0.05,-0.22,-32.87,-27.39,-6.33
21476,-8.97,-2.39,-3.75,0.20,0.11,-0.10,-32.87,-27.39,-6.33
21488,-8.97,-2.39,-3.75,0.20,0.11,-0.10,-32.87,-27.39,-6.33
21498,-8.97,-2.42,-4.04,0.19,0.14,-0.06,-32.87,-27.39,-6.33
21509,-8.97,-2.42,-4.04,0.19,0.14,-0.06,-32.87,-27.39,-6.33
21520,-9.10,-1.78,-3.87,0.16,0.15,-0.01,-32.87,-27.39,-6.33
21531,-9.24,-2.14,-4.23,0.13,0.17,-0.05,-30.41,-27.75,-4.29
21542,-9.24,-2.14,-4.23,0.13,0.17,-0.05,-30.41,-27.75,-4.29
21553,-9.02,-2.42,-3.52,0.11,0.10,-0.07,-30.41,-27.75,-4.29
21564,-9.02,-2.42,-3.52,0.11,0.10,-0.07,-30.41,-27.75,-4.29
21575,-9.00,-2.96,-4.09,0.09,0.19,0.05,-30.41,-27.75,-4.29
21586,-9.00,-2.96,-4.09,0.09,0.19,0.05,-30.41,-27.75,-4.29
21597,-8.96,-2.66,-4.10,-0.01,0.22,0.23,-30.41,-27.75,-4.29
21608,-8.96,-2.66,-4.10,-0.01,0.22,0.23,-30.41,-27.75,-4.29
21619,-9.14,-1.72,-4.46,-0.08,0.23,0.35,-30.41,-27.75,-4.29
21630,-9.14,-1.72,-4.46,-0.08,0.23,0.35,-30.41,-27.75,-4.29
21641,-8.99,-1.99,-4.77,-0.05,0.16,0.28,-30.41,-27.75,-4.29
21652,-8.80,-2.79,-4.48,-0.08,0.10,0.30,-30.41,-27.75,-4.29
21663,-8.80,-2.79,-4.48,-0.08,0.10,0.30,-30.41,-27.75,-4.29
21674,-8.88,-1.82,-4.28,-0.20,0.06,0.41,-32.34,-27.93,-6.16
21685,-8.88,-1.82,-4.28,-0.20,0.06,0.41,-32.34,-27.93,-6.16
21696,-8.98,-2.33,-4.34,-0.15,0.02,0.36,-32.34,-27.93,-6.16
21707,-8.98,-2.33,-4.34,-0.15,0.02,0.36,-32.34,-27.93,-6.16
21719,-8.93,-1.55,-4.06,-0.19,-0.01,0.43,-32.34,-27.93,-6.16
21729,-8.93,-1.55,-4.06,-0.19,-0.01,0.43,-32.34,-27.93,-6.16
21740,-8.78,-1.77,-4.02,-0.19,-0.02,0.34,-32.34,-27.93,-6.16
21751,-8.91,-2.20,-4.28,-0.17,0.01,0.24,-32.34,-27.93,-6.16
21762,-8.91,-2.20,-4.28,-0.17,0.01,0.24,-32.34,-27.93,-6.16
21773,-9.29,-1.21,-4.38,-0.19,-0.02,0.31,-32.34,-27.93,-6.16
21789,-9.29,-1.21,-4.38,-0.19,-0.02,0.31,-32.34,-27.93,-6.16
21795,-9.36,-1.93,-4.19,-0.11,-0.02,0.23,-32.16,-25.58,-7.01
21806,-9.36,-1.93,-4.19,-0.11,-0.02,0.23,-32.16,-25.58,-7.01
21817,-9.13,-1.34,-4.37,-0.14,0.04,0.26,-32.16,-25.58,-7.01
21828,-9.13,-1.34,-4.37,-0.14,0.04,0.26,-32.16,-25.58,-7.01
21839,-9.03,-1.74,-3.99,-0.12,0.01,0.20,-32.16,-25.58,-7.01
21850,-9.03,-1.74,-3.99,-0.12,0.01,0.20,-32.16,-25.58,-7.01
21861,-8.91,-1.80,-3.74,-0.11,-0.02,0.22,-32.16,-25.58,-7.01
21872,-9.25,-1.86,-4.46,-0.13,-0.02,0.23,-32.16,-25.58,-7.01
21883,-9.25,-1.86,-4.46,-0.13,-0.02,0.23,-32.16,-25.58,-7.01
21894,-9.40,-0.96,-4.54,-0.16,-0.04,0.26,-32.16,-25.58,-7.01
21905,-9.40,-0.96,-4.54,-0.16,-0.04,0.26,-32.16,-25.58,-7.01
21916,-9.03,-1.33,-3.97,-0.13,-0.06,0.22,-32.69,-23.59,-7.18
21927,-9.03,-1.33,-3.97,-0.13,-0.06,0.22,-32.69,-23.59,-7.18
21938,-9.00,-1.11,-4.74,-0.15,-0.02,0.16,-32.69,-23.59,-7.18
21949,-9.00,-1.11,-4.74,-0.15,-0.02,0.16,-32.69,-23.59,-7.18
21960,-9.05,-1.85,-4.29,-0.09,0.02,0.12,-32.69,-23.59,-7.18
21972,-9.39,-0.82,-4.28,-0.12,-0.02,0.20,-32.69,-23.59,-7.18
21982,-9.39,-0.82,-4.28,-0.12,-0.02,0.20,-32.69,-23.59,-7.18
21993,-9.14,-1.14,-4.55,-0.08,-0.02,0.13,-32.69,-23.59,-7.18
22004,-9.14,-1.14,-4.55,-0.08,-0.02,0.13,-32.69,-23.59,-7.18
22015,-9.02,-1.39,-4.17,-0.08,-0.09,0.07,-32.69,-23.59,-7.18
22026,-9.02,-1.39,-4.17,-0.08,-0.09,0.07,-32.69,-23.59,-7.18
22037,-9.06,-0.98,-4.03,-0.07,-0.10,0.10,-32.69,-23.59,-7.18
22048,-9.06,-0.98,-4.03,-0.07,-0.10,0.10,-32.69,-23.59,-7.18
22059,-9.01,-1.58,-4.18,-0.04,-0.04,0.06,-35.68,-25.58,-7.01
22070,-9.01,-1.58,-4.18,-0.04,-0.04,0.06,-35.68,-25.58,-7.01
22081,-9.47,-0.99,-4.09,-0.08,-0.03,0.09,-35.68,-25.58,-7.01
22092,-9.18,-0.97,-3.88,-0.07,-0.05,0.08,-35.68,-25.58,-7.01
22103,-9.18,-0.97,-3.88,-0.07,-0.05,0.08,-35.68,-25.58,-7.01
22114,-9.37,-1.30,-4.03,-0.07,-0.07,-0.02,-35.68,-25.58,-7.01
22125,-9.37,-1.30,-4.03,-0.07,-0.07,-0.02,-35.68,-25.58,-7.01
22136,-8.98,-0.66,-4.50,-0.10,-0.14,-0.05,-35.68,-25.58,-7.01
22147,-8.98,-0.66,-4.50,-0.10,-0.14,-0.05,-35.68,-25.58,-7.01
22158,-9.18,-1.16,-4.07,-0.05,-0.16,-0.08,-35.68,-25.58,-7.01
22169,-9.18,-1.16,-4.07,-0.05,-0.16,-0.08,-35.68,-25.58,-7.01
22180,-9.01,-1.25,-4.45,-0.07,-0.08,-0.07,-33.39,-24.31,-6.84
22191,-9.01,-1.25,-4.45,-0.07,-0.08,-0.07,-33.39,-24.31,-6.84
22202,-9.16,-0.99,-4.41,-0.07,-0.01,-0.05,-33.39,-24.31,-6.84
22213,-9.09,-1.20,-4.16,-0.04,0.02,-0.07,-33.39,-24.31,-6.84
22224,-9.09,-1.20,-4.16,-0.04,0.02,-0.07,-33.39,-24.31,-6.84
22235,-9.12,-1.80,-3.98,-0.02,0.07,-0.02,-33.39,-24.31,-6.84
22247,-9.12,-1.80,-3.98,-0.02,0.07,-0.02,-33.39,-24.31,-6.84
22257,-9.86,-1.24,-4.10,-0.02,-0.01,0.05,-33.39,-24.31,-6.84
22268,-9.86,-1.24,-4.10,-0.02,-0.01,0.05,-33.39,-24.31,-6.84
22279,-12.24,-0.80,-2.99,0.09,-0.29,0.02,-33.39,-24.31,-6.84
22290,-12.24,-0.80,-2.99,0.09,-0.29,0.02,-33.39,-24.31,-6.84
22301,-14.28,0.10,-1.69,0.01,-0.19,-0.11,-34.97,-23.77,-7.35
22312,-14.04,1.08,-2.13,-0.25,0.86,-0.46,-34.97,-23.77,-7.35
22323,-14.04,1.08,-2.13,-0.25,0.86,-0.46,-34.97,-23.77,-7.35
22334,-10.33,0.96,-6.45,-0.27,2.05,-0.99,-34.97,-23.77,-7.35
22345,-10.33,0.96,-6.45,-0.27,2.05,-0.99,-34.97,-23.77,-7.35
22356,-6.85,-0.12,-10.08,0.45,1.94,-1.25,-34.97,-23.77,-7.35
22367,-6.85,-0.12,-10.08,0.45,1.94,-1.25,-34.97,-23.77,-7.35
22378,-5.11,-0.88,-9.52,1.39,1.02,-1.26,-34.97,-23.77,-7.35
22389,-5.11,-0.88,-9.52,1.39,1.02,-1.26,-34.97,-23.77,-7.35
22400,-4.79,-0.36,-10.10,2.09,0.20,-1.20,-34.97,-23.77,-7.35
22411,-4.79,-0.36,-10.10,2.09,0.20,-1.20,-34.97,-23.77,-7.35
22422,-4.77,0.44,-9.75,3.70,-0.63,-1.10,-28.83,-30.47,-5.82
22433,-5.65,1.83,-10.16,6.19,-1.53,-0.96,-28.83,-30.47,-5.82
22444,-5.65,1.83,-10.16,6.19,-1.53,-0.96,-28.83,-30.47,-5.82
22455,-6.95,1.29,-5.49,9.18,-2.56,-0.88,-28.83,-30.47,-5.82
