time,ax,ay,az,gx,gy,gz,mx,my,mz
402,-0.23,6.34,-8.07,-0.02,0.01,-0.03,-15.40,18.78,-26.00
412,-0.23,6.34,-8.07,-0.02,0.01,-0.03,-15.40,18.78,-26.00
423,-0.24,6.37,-8.06,-0.00,0.02,-0.03,-15.40,18.78,-26.00
434,-0.24,6.37,-8.06,-0.00,0.02,-0.03,-15.40,18.78,-26.00
445,-0.24,6.40,-8.01,0.01,0.00,-0.01,-15.40,18.78,-26.00
456,-0.24,6.40,-8.01,0.01,0.00,-0.01,-15.40,18.78,-26.00
471,-0.24,6.34,-8.05,0.01,-0.01,-0.01,-15.40,18.78,-26.00
478,-0.24,6.34,-8.05,0.01,-0.01,-0.01,-15.40,18.78,-26.00
489,-0.22,6.35,-8.02,0.00,-0.01,-0.02,-15.40,18.78,-26.00
500,-0.24,6.36,-8.04,0.00,-0.01,-0.02,-15.20,18.78,-26.00
511,-0.24,6.36,-8.04,0.00,-0.01,-0.02,-15.20,18.62,-24.10
522,-0.23,6.40,-8.04,0.01,-0.02,-0.02,-15.20,18.62,-24.10
533,-0.23,6.40,-8.04,0.01,-0.02,-0.02,-15.20,18.62,-24.10
544,-0.02,6.49,-7.99,0.00,-0.03,-0.00,-15.20,18.62,-24.10
555,-0.02,6.49,-7.99,0.00,-0.03,-0.00,-15.20,18.62,-24.10
566,-0.37,6.40,-8.05,0.02,-0.11,0.11,-15.20,18.62,-24.10
577,-0.37,6.40,-8.05,0.02,-0.11,0.11,-15.20,18.62,-24.10
588,-0.29,6.29,-8.10,0.01,-0.07,0.09,-15.20,18.62,-24.10
599,-0.29,6.29,-8.10,0.01,-0.07,0.09,-15.20,18.62,-24.10
610,-0.28,6.28,-8.07,0.01,0.01,-0.00,-15.20,18.62,-24.10
621,-0.23,6.31,-8.05,-0.00,0.07,-0.08,-15.20,18.62,-24.10
632,-0.23,6.31,-8.05,-0.00,0.07,-0.08,-15.20,18.62,-24.10
643,-0.28,6.34,-8.04,-0.00,0.05,-0.05,-16.41,18.62,-25.14
654,-0.28,6.34,-8.04,-0.00,0.05,-0.05,-16.41,18.62,-25.14
665,-0.25,6.36,-8.05,-0.00,0.02,-0.01,-16.41,18.62,-25.14
676,-0.25,6.36,-8.05,-0.00,0.02,-0.01,-16.41,18.62,-25.14
687,-0.23,6.35,-8.04,-0.00,0.01,-0.00,-16.41,18.62,-25.14
698,-0.23,6.35,-8.04,-0.00,0.01,-0.00,-16.41,18.62,-25.14
709,-0.24,6.38,-8.02,-0.00,-0.00,-0.01,-16.41,18.62,-25.14
720,-0.24,6.38,-8.02,-0.00,-0.00,-0.01,-16.41,18.62,-25.14
731,-0.24,6.38,-8.02,0.00,0.02,-0.05,-16.41,18.62,-25.14
742,-0.13,6.44,-8.04,0.01,0.09,-0.20,-16.41,18.62,-25.14
753,-0.13,6.44,-8.04,0.01,0.09,-0.20,-16.41,18.62,-25.14
764,-0.50,6.22,-8.10,0.09,-0.10,-0.33,-16.21,17.83,-25.31
775,-0.50,6.22,-8.10,0.09,-0.10,-0.33,-16.21,17.83,-25.31
786,-0.28,6.33,-8.09,0.04,-0.07,-0.10,-16.21,17.83,-25.31
797,-0.28,6.33,-8.09,0.04,-0.07,-0.10,-16.21,17.83,-25.31
809,-0.35,6.37,-8.05,0.02,-0.04,-0.04,-16.21,17.83,-25.31
819,-0.35,6.37,-8.05,0.02,-0.04,-0.04,-16.21,17.83,-25.31
830,-0.36,6.28,-8.06,0.01,-0.01,-0.02,-16.21,17.83,-25.31
841,-0.38,6.34,-8.06,-0.00,-0.01,-0.02,-16.21,17.83,-25.31
852,-0.38,6.34,-8.06,-0.00,-0.01,-0.02,-16.21,17.83,-25.31
863,-0.42,6.86,-8.25,0.01,-0.01,-0.02,-16.21,17.83,-25.31
874,-0.42,6.86,-8.25,0.01,-0.01,-0.02,-16.21,17.83,-25.31
885,-0.36,6.45,-8.07,0.01,-0.00,-0.04,-17.61,18.62,-25.14
896,-0.36,6.45,-8.07,0.01,-0.00,-0.04,-17.61,18.62,-25.14
907,-0.36,6.34,-8.06,-0.01,-0.00,-0.02,-17.61,18.62,-25.14
918,-0.36,6.34,-8.06,-0.01,-0.00,-0.02,-17.61,18.62,-25.14
929,-0.49,6.54,-7.85,0.00,-0.00,-0.01,-17.61,18.62,-25.14
940,-0.49,6.54,-7.85,0.00,-0.00,-0.01,-17.61,18.62,-25.14
951,-0.37,6.40,-8.01,0.01,0.07,-0.11,-17.61,18.62,-25.14
962,-0.24,5.97,-8.34,0.01,0.10,-0.14,-17.61,18.62,-25.14
973,-0.24,5.97,-8.34,0.01,0.10,-0.14,-17.61,18.62,-25.14
984,-0.49,6.47,-8.18,-0.01,0.01,-0.04,-17.61,18.62,-25.14
995,-0.49,6.47,-8.18,-0.01,0.01,-0.04,-17.61,18.62,-25.14
1006,-0.33,6.33,-8.09,0.02,-0.00,-0.02,-17.61,18.62,-25.14
1017,-0.33,6.33,-8.09,0.02,-0.00,-0.02,-17.61,18.62,-25.14
1028,-0.39,6.38,-8.10,0.00,-0.01,-0.02,-15.81,17.83,-24.96
1039,-0.39,6.38,-8.10,0.00,-0.01,-0.02,-15.81,17.83,-24.96
1050,-0.40,6.34,-8.08,0.00,-0.00,-0.01,-15.81,17.83,-24.96
1061,-0.38,6.34,-8.06,0.00,0.00,-0.01,-15.81,17.83,-24.96
1072,-0.38,6.34,-8.06,0.00,0.00,-0.01,-15.81,17.83,-24.96
1083,-0.39,6.31,-8.07,0.00,-0.01,-0.01,-15.81,17.83,-24.96
1094,-0.39,6.31,-8.07,0.00,-0.01,-0.01,-15.81,17.83,-24.96
1105,-0.37,6.32,-8.02,0.00,-0.01,-0.02,-15.81,17.83,-24.96
1116,-0.37,6.32,-8.02,0.00,-0.01,-0.02,-15.81,17.83,-24.96
1127,-0.39,6.34,-8.04,0.00,-0.01,-0.02,-15.81,17.83,-24.96
1138,-0.39,6.34,-8.04,0.00,-0.01,-0.02,-15.81,17.83,-24.96
1149,-0.41,6.29,-8.05,0.00,-0.00,-0.01,-16.61,18.14,-24.96
1160,-0.41,6.29,-8.05,0.00,-0.00,-0.01,-16.61,18.14,-24.96
1171,-0.37,6.29,-8.08,-0.00,0.01,-0.00,-16.61,18.14,-24.96
1182,-0.36,6.34,-8.08,-0.00,0.01,0.00,-16.61,18.14,-24.96
1193,-0.36,6.34,-8.08,-0.00,0.01,0.00,-16.61,18.14,-24.96
1204,-0.38,6.37,-8.09,-0.00,0.01,-0.00,-16.61,18.14,-24.96
1215,-0.38,6.37,-8.09,-0.00,0.01,-0.00,-16.61,18.14,-24.96
1226,-0.40,6.36,-8.07,-0.00,0.01,-0.00,-16.61,18.14,-24.96
1237,-0.40,6.36,-8.07,-0.00,0.01,-0.00,-16.61,18.14,-24.96
1248,-0.38,6.34,-8.07,-0.00,0.01,-0.00,-16.61,18.14,-24.96
1259,-0.38,6.34,-8.07,-0.00,0.01,-0.00,-16.61,18.14,-24.96
1270,-0.36,6.33,-8.10,-0.00,0.00,-0.01,-16.01,17.67,-25.14
1281,-0.37,6.35,-8.11,-0.01,0.00,-0.01,-16.01,17.67,-25.14
1292,-0.37,6.35,-8.11,-0.01,0.00,-0.01,-16.01,17.67,-25.14
1303,-0.39,6.35,-8.09,-0.00,0.00,-0.01,-16.01,17.67,-25.14
1314,-0.39,6.35,-8.09,-0.00,0.00,-0.01,-16.01,17.67,-25.14
1325,-0.39,6.36,-8.07,-0.00,0.00,-0.01,-16.01,17.67,-25.14
1336,-0.39,6.36,-8.07,-0.00,0.00,-0.01,-16.01,17.67,-25.14
1347,-0.37,6.35,-8.04,-0.00,0.00,-0.01,-16.01,17.67,-25.14
1358,-0.37,6.35,-8.04,-0.00,0.00,-0.01,-16.01,17.67,-25.14
1369,-0.35,6.33,-8.07,-0.00,0.00,-0.01,-16.01,17.67,-25.14
1380,-0.35,6.33,-8.07,-0.00,0.00,-0.01,-16.01,17.67,-25.14
1391,-0.36,6.31,-8.07,-0.00,0.00,-0.01,-16.01,17.67,-25.14
1402,-0.39,6.32,-8.05,-0.01,-0.00,-0.01,-16.01,17.67,-25.14
1413,-0.39,6.32,-8.05,-0.01,-0.00,-0.01,-16.01,17.67,-25.14
1424,-0.40,6.33,-8.02,-0.01,-0.00,-0.01,-16.01,17.67,-25.14
1435,-0.40,6.33,-8.02,-0.01,-0.00,-0.01,-16.01,17.67,-25.14
1446,-0.39,6.33,-8.03,-0.01,-0.00,-0.01,-16.01,17.67,-25.14
1457,-0.39,6.33,-8.03,-0.01,-0.00,-0.01,-16.01,17.67,-25.14
1468,-0.38,6.33,-8.07,-0.00,-0.00,-0.01,-16.01,17.67,-25.14
1479,-0.38,6.33,-8.07,-0.00,-0.00,-0.01,-16.01,17.67,-25.14
1490,-0.39,6.33,-8.07,-0.00,-0.00,-0.01,-16.01,17.67,-25.14
1501,-0.39,6.35,-8.07,-0.00,-0.00,-0.01,-16.01,17.67,-25.14
1512,-0.39,6.35,-8.07,-0.00,-0.00,-0.01,-16.01,17.67,-25.14
1523,-0.37,6.35,-8.08,-0.00,0.00,-0.01,-17.21,17.67,-25.48
1534,-0.37,6.35,-8.08,-0.00,0.00,-0.01,-17.21,17.67,-25.48
1545,-0.37,6.35,-8.09,-0.00,0.00,-0.01,-17.21,17.67,-25.48
1556,-0.37,6.35,-8.09,-0.00,0.00,-0.01,-17.21,17.67,-25.48
1567,-0.37,6.33,-8.07,-0.00,0.00,-0.01,-17.21,17.67,-25.48
1578,-0.37,6.33,-8.07,-0.00,0.00,-0.01,-17.21,17.67,-25.48
1589,-0.37,6.33,-8.05,-0.00,0.00,-0.01,-17.21,17.67,-25.48
1600,-0.37,6.33,-8.05,-0.00,0.00,-0.01,-17.21,17.67,-25.48
1611,-0.40,6.34,-8.05,-0.00,0.00,-0.01,-17.21,17.67,-25.48
1622,-0.38,6.35,-8.06,-0.00,0.00,-0.01,-17.21,17.67,-25.48
1633,-0.38,6.35,-8.06,-0.00,0.00,-0.01,-17.21,17.67,-25.48
1644,-0.38,6.34,-8.06,0.00,0.00,-0.01,-16.21,19.73,-25.65
1655,-0.38,6.34,-8.06,0.00,0.00,-0.01,-16.21,19.73,-25.65
1666,-0.38,6.32,-8.07,0.00,0.00,-0.01,-16.21,19.73,-25.65
1677,-0.38,6.32,-8.07,0.00,0.00,-0.01,-16.21,19.73,-25.65
1688,-0.40,6.36,-8.07,-0.00,0.00,-0.01,-16.21,19.73,-25.65
1699,-0.40,6.36,-8.07,-0.00,0.00,-0.01,-16.21,19.73,-25.65
1710,-0.40,6.35,-8.08,-0.00,0.00,-0.01,-16.21,19.73,-25.65
1721,-0.40,6.35,-8.08,-0.00,0.00,-0.01,-16.21,19.73,-25.65
1732,-0.38,6.35,-8.06,0.00,0.00,-0.01,-16.21,19.73,-25.65
1744,-0.37,6.34,-8.08,0.00,0.00,-0.01,-16.21,19.73,-25.65
1754,-0.37,6.34,-8.08,0.00,0.00,-0.01,-16.21,19.73,-25.65
1765,-0.37,6.32,-8.06,0.00,0.00,-0.01,-17.01,18.46,-24.96
1776,-0.37,6.32,-8.06,0.00,0.00,-0.01,-17.01,18.46,-24.96
1787,-0.40,6.31,-8.06,-0.00,0.00,-0.01,-17.01,18.46,-24.96
1798,-0.40,6.31,-8.06,-0.00,0.00,-0.01,-17.01,18.46,-24.96
1809,-0.40,6.33,-8.05,0.00,0.00,-0.01,-17.01,18.46,-24.96
1820,-0.40,6.33,-8.05,0.00,0.00,-0.01,-17.01,18.46,-24.96
1831,-0.38,6.33,-8.03,-0.00,-0.00,-0.01,-17.01,18.46,-24.96
1842,-0.37,6.34,-8.05,-0.00,0.00,-0.01,-17.01,18.46,-24.96
1853,-0.37,6.34,-8.05,-0.00,0.00,-0.01,-17.01,18.46,-24.96
1864,-0.38,6.34,-8.04,0.00,0.00,-0.01,-17.01,18.46,-24.96
1875,-0.38,6.34,-8.04,0.00,0.00,-0.01,-17.01,18.46,-24.96
1886,-0.38,6.35,-8.07,-0.00,0.00,-0.01,-17.01,18.46,-24.96
1897,-0.38,6.35,-8.07,-0.00,0.00,-0.01,-17.01,18.46,-24.96
1908,-0.40,6.36,-8.07,-0.00,0.00,-0.01,-16.61,17.83,-24.96
1919,-0.40,6.36,-8.07,-0.00,0.00,-0.01,-16.61,17.83,-24.96
1930,-0.38,6.35,-8.07,0.00,0.00,-0.01,-16.61,17.83,-24.96
1941,-0.38,6.35,-8.07,0.00,0.00,-0.01,-16.61,17.83,-24.96
1952,-0.38,6.34,-8.07,-0.00,0.00,-0.01,-16.61,17.83,-24.96
1963,-0.38,6.32,-8.04,0.00,0.00,-0.01,-16.61,17.83,-24.96
1974,-0.38,6.32,-8.04,0.00,0.00,-0.01,-16.61,17.83,-24.96
1985,-0.39,6.32,-8.01,0.00,0.00,-0.01,-16.61,17.83,-24.96
1996,-0.39,6.32,-8.01,0.00,0.00,-0.01,-16.61,17.83,-24.96
2007,-0.39,6.33,-8.02,0.00,0.00,-0.01,-16.61,17.83,-24.96
2018,-0.39,6.33,-8.02,0.00,0.00,-0.01,-16.61,17.83,-24.96
2029,-0.36,6.34,-8.07,0.00,0.00,-0.01,-15.81,18.14,-26.00
2040,-0.36,6.34,-8.07,0.00,0.00,-0.01,-15.81,18.14,-26.00
2051,-0.36,6.34,-8.05,0.00,0.00,-0.01,-15.81,18.14,-26.00
2062,-0.38,6.35,-8.08,0.00,0.00,-0.01,-15.81,18.14,-26.00
2073,-0.38,6.35,-8.08,0.00,0.00,-0.01,-15.81,18.14,-26.00
2084,-0.39,6.35,-8.06,0.00,0.00,-0.01,-15.81,18.14,-26.00
2095,-0.39,6.35,-8.06,0.00,0.00,-0.01,-15.81,18.14,-26.00
2106,-0.39,6.35,-8.09,0.00,-0.00,-0.01,-15.81,18.14,-26.00
2117,-0.39,6.35,-8.09,0.00,-0.00,-0.01,-15.81,18.14,-26.00
2129,-0.37,6.35,-8.07,0.00,0.00,-0.01,-15.81,18.14,-26.00
2139,-0.37,6.35,-8.07,0.00,0.00,-0.01,-15.81,18.14,-26.00
2150,-0.38,6.33,-8.06,0.00,0.00,-0.01,-14.00,17.67,-26.51
2161,-0.38,6.33,-8.06,0.00,0.00,-0.01,-14.00,17.67,-26.51
2172,-0.40,6.31,-8.04,0.00,0.00,-0.01,-14.00,17.67,-26.51
2183,-0.37,6.33,-8.04,-0.00,0.00,-0.01,-14.00,17.67,-26.51
2194,-0.37,6.33,-8.04,-0.00,0.00,-0.01,-14.00,17.67,-26.51
2205,-0.39,6.32,-8.03,-0.00,0.00,-0.01,-14.00,17.67,-26.51
2216,-0.39,6.32,-8.03,-0.00,0.00,-0.01,-14.00,17.67,-26.51
2227,-0.38,6.34,-8.02,0.00,0.00,-0.01,-14.00,17.67,-26.51
2238,-0.38,6.34,-8.02,0.00,0.00,-0.01,-14.00,17.67,-26.51
2249,-0.38,6.33,-8.04,0.00,0.00,-0.01,-14.00,17.67,-26.51
2260,-0.38,6.33,-8.04,0.00,0.00,-0.01,-14.00,17.67,-26.51
2271,-0.40,6.34,-8.03,0.00,0.00,-0.01,-14.00,17.67,-26.51
2282,-0.39,6.35,-8.09,0.00,0.00,-0.01,-18.01,18.94,-25.14
2293,-0.39,6.35,-8.09,0.00,0.00,-0.01,-18.01,18.94,-25.14
2304,-0.43,6.29,-8.08,-0.01,0.00,-0.01,-18.01,18.94,-25.14
2315,-0.43,6.29,-8.08,-0.01,0.00,-0.01,-18.01,18.94,-25.14
2326,-0.35,6.36,-8.09,-0.03,0.01,0.00,-18.01,18.94,-25.14
2337,-0.35,6.36,-8.09,-0.03,0.01,0.00,-18.01,18.94,-25.14
2348,-0.41,6.34,-8.08,-0.05,-0.02,-0.02,-18.01,18.94,-25.14
2359,-0.41,6.34,-8.08,-0.05,-0.02,-0.02,-18.01,18.94,-25.14
2370,-0.27,6.42,-8.03,-0.07,-0.03,-0.03,-18.01,18.94,-25.14
2381,-0.27,6.42,-8.03,-0.07,-0.03,-0.03,-18.01,18.94,-25.14
2392,-0.51,6.44,-7.90,-0.07,-0.12,-0.11,-18.01,18.94,-25.14
2403,-0.34,6.34,-8.10,0.08,-0.01,-0.02,-15.61,17.98,-25.14
2414,-0.34,6.34,-8.10,0.08,-0.01,-0.02,-15.61,17.98,-25.14
2425,-1.08,6.09,-8.55,-0.13,-0.21,-0.06,-15.61,17.98,-25.14
2436,-1.08,6.09,-8.55,-0.13,-0.21,-0.06,-15.61,17.98,-25.14
2447,-1.83,5.29,-7.65,-1.40,-1.22,0.33,-15.61,17.98,-25.14
2458,-1.83,5.29,-7.65,-1.40,-1.22,0.33,-15.61,17.98,-25.14
2469,0.00,6.74,-7.81,-0.16,-1.13,1.09,-15.61,17.98,-25.14
2480,0.00,6.74,-7.81,-0.16,-1.13,1.09,-15.61,17.98,-25.14
2491,0.04,5.78,-8.35,0.41,-0.99,1.34,-15.61,17.98,-25.14
2502,1.07,10.11,-10.02,1.59,0.26,0.92,-15.61,17.98,-25.14
2513,1.07,10.11,-10.02,1.59,0.26,0.92,-15.61,17.98,-25.14
2524,-1.06,11.11,-11.20,3.35,0.20,0.32,-16.61,19.10,-26.00
2535,-1.06,11.11,-11.20,3.35,0.20,0.32,-16.61,19.10,-26.00
2546,-1.44,9.71,-11.04,8.89,0.26,-0.07,-16.61,19.10,-26.00
2557,-1.44,9.71,-11.04,8.89,0.26,-0.07,-16.61,19.10,-26.00
2568,-0.68,2.83,-4.56,14.50,0.78,-0.08,-16.61,19.10,-26.00
2579,-0.68,2.83,-4.56,14.50,0.78,-0.08,-16.61,19.10,-26.00
2590,-0.87,-3.94,-6.36,11.53,1.80,-0.47,-16.61,19.10,-26.00
2601,-0.87,-3.94,-6.36,11.53,1.80,-0.47,-16.61,19.10,-26.00
2612,0.72,-7.05,-8.58,6.31,2.70,-0.35,-16.61,19.10,-26.00
2623,3.74,-4.05,-15.61,3.00,3.00,0.46,-16.61,19.10,-26.00
2634,3.74,-4.05,-15.61,3.00,3.00,0.46,-16.61,19.10,-26.00
2645,2.13,-0.05,-23.38,0.87,1.00,0.21,-16.61,19.10,-26.00
2656,2.13,-0.05,-23.38,0.87,1.00,0.21,-16.61,19.10,-26.00
2667,2.35,-1.48,-17.84,2.52,-1.86,-0.42,-4.18,-12.67,-36.32
2678,2.35,-1.48,-17.84,2.52,-1.86,-0.42,-4.18,-12.67,-36.32
2694,2.23,-2.06,-10.78,3.19,-3.81,-0.63,-4.18,-12.67,-36.32
2700,2.23,-2.06,-10.78,3.19,-3.81,-0.63,-4.18,-12.67,-36.32
2711,2.11,-1.58,-7.00,1.85,-4.60,-0.75,-4.18,-12.67,-36.32
2722,2.11,-1.58,-7.00,1.85,-4.60,-0.75,-4.18,-12.67,-36.32
2733,-0.80,-2.19,-6.92,-0.18,-4.70,-1.16,-4.18,-12.67,-36.32
2744,-3.34,-4.81,-9.60,0.70,-4.19,-1.62,-4.18,-12.67,-36.32
2755,-3.34,-4.81,-9.60,0.70,-4.19,-1.62,-4.18,-12.67,-36.32
2766,-0.54,-8.58,-5.79,3.75,-3.61,-1.42,-4.18,-12.67,-36.32
2777,-0.54,-8.58,-5.79,3.75,-3.61,-1.42,-4.18,-12.67,-36.32
2788,-0.10,-5.59,-5.33,1.92,-3.31,-0.57,-24.63,-24.43,-23.24
2799,-0.10,-5.59,-5.33,1.92,-3.31,-0.57,-24.63,-24.43,-23.24
2810,-2.38,-2.21,-6.95,-0.21,-3.27,-0.16,-24.63,-24.43,-23.24
2821,-2.38,-2.21,-6.95,-0.21,-3.27,-0.16,-24.63,-24.43,-23.24
2832,-5.13,-2.14,-8.12,0.36,-3.38,-0.49,-24.63,-24.43,-23.24
2843,-3.08,-3.57,-8.99,1.56,-3.40,-1.11,-24.63,-24.43,-23.24
2854,-3.08,-3.57,-8.99,1.56,-3.40,-1.11,-24.63,-24.43,-23.24
2865,-0.76,-5.14,-4.58,2.73,-3.62,-1.32,-24.63,-24.43,-23.24
2876,-0.76,-5.14,-4.58,2.73,-3.62,-1.32,-24.63,-24.43,-23.24
2887,-1.51,-6.77,-1.18,3.17,-3.47,-0.77,-24.63,-24.43,-23.24
2898,-1.51,-6.77,-1.18,3.17,-3.47,-0.77,-24.63,-24.43,-23.24
2909,-5.28,-11.54,2.94,3.44,-2.63,0.44,-31.64,-29.99,-7.59
2920,-5.28,-11.54,2.94,3.44,-2.63,0.44,-31.64,-29.99,-7.59
2931,-4.54,-10.74,-0.45,-1.13,-1.54,1.88,-31.64,-29.99,-7.59
2942,-4.54,-10.74,-0.45,-1.13,-1.54,1.88,-31.64,-29.99,-7.59
2953,-3.65,-6.23,-4.86,-3.86,-1.04,3.05,-31.64,-29.99,-7.59
2964,-6.17,-3.47,-6.40,-3.17,-0.85,3.06,-31.64,-29.99,-7.59
2975,-6.17,-3.47,-6.40,-3.17,-0.85,3.06,-31.64,-29.99,-7.59
2986,-7.07,-2.07,-6.87,-1.93,-0.52,2.07,-31.64,-29.99,-7.59
2997,-7.07,-2.07,-6.87,-1.93,-0.52,2.07,-31.64,-29.99,-7.59
3008,-6.49,-2.17,-7.48,-1.66,-0.43,0.91,-31.64,-29.99,-7.59
3019,-6.49,-2.17,-7.48,-1.66,-0.43,0.91,-31.64,-29.99,-7.59
3030,-7.26,-5.33,-4.69,-3.03,-0.60,0.25,-38.06,-20.14,-8.97
3041,-7.26,-5.33,-4.69,-3.03,-0.60,0.25,-38.06,-20.14,-8.97
3052,-6.69,-4.44,-4.93,-5.27,-0.31,0.38,-38.06,-20.14,-8.97
3063,-6.89,-5.48,-0.79,-6.58,0.40,0.74,-38.06,-20.14,-8.97
3074,-6.89,-5.48,-0.79,-6.58,0.40,0.74,-38.06,-20.14,-8.97
3085,-4.38,0.69,-2.62,-14.54,0.86,0.97,-38.06,-20.14,-8.97
3096,-4.38,0.69,-2.62,-14.54,0.86,0.97,-38.06,-20.14,-8.97
3108,-4.69,13.03,-0.19,-17.47,0.02,0.95,-38.06,-20.14,-8.97
3118,-4.69,13.03,-0.19,-17.47,0.02,0.95,-38.06,-20.14,-8.97
3129,-8.70,15.39,-3.78,-17.47,-0.67,-0.32,-38.06,-20.14,-8.97
3140,-8.70,15.39,-3.78,-17.47,-0.67,-0.32,-38.06,-20.14,-8.97
3151,-8.27,9.07,-7.74,-15.64,0.01,-0.42,-38.06,-20.14,-8.97
3162,-8.27,9.07,-7.74,-15.64,0.01,-0.42,-38.06,-20.14,-8.97
3173,-6.71,6.27,-2.00,-6.18,-0.05,0.52,-41.47,10.84,-2.95
3184,-6.68,8.10,-1.61,-5.51,-0.52,0.68,-41.47,10.84,-2.95
3195,-6.68,8.10,-1.61,-5.51,-0.52,0.68,-41.47,10.84,-2.95
3206,-6.91,9.11,1.33,-3.38,-0.55,0.46,-41.47,10.84,-2.95
3217,-6.91,9.11,1.33,-3.38,-0.55,0.46,-41.47,10.84,-2.95
3228,-6.61,9.17,0.98,-3.28,-0.25,-0.10,-41.47,10.84,-2.95
3239,-6.61,9.17,0.98,-3.28,-0.25,-0.10,-41.47,10.84,-2.95
3250,-6.33,9.37,0.23,-2.19,-0.06,-0.64,-41.47,10.84,-2.95
3261,-6.33,9.37,0.23,-2.19,-0.06,-0.64,-41.47,10.84,-2.95
3272,-6.87,8.10,1.23,0.46,0.21,-0.97,-41.47,10.84,-2.95
3283,-8.63,6.59,4.50,1.93,0.49,-0.97,-39.86,9.25,4.28
3294,-8.63,6.59,4.50,1.93,0.49,-0.97,-39.86,9.25,4.28
3305,-6.42,6.58,0.96,1.54,0.92,-0.75,-39.86,9.25,4.28
3316,-6.42,6.58,0.96,1.54,0.92,-0.75,-39.86,9.25,4.28
3327,-6.04,4.91,-2.39,1.74,0.87,-0.48,-39.86,9.25,4.28
3338,-6.04,4.91,-2.39,1.74,0.87,-0.48,-39.86,9.25,4.28
3349,-7.42,6.19,0.49,1.28,0.14,-0.01,-39.86,9.25,4.28
3360,-7.42,6.19,0.49,1.28,0.14,-0.01,-39.86,9.25,4.28
3371,-8.02,9.60,0.56,0.27,0.20,0.05,-39.86,9.25,4.28
3382,-8.02,9.60,0.56,0.27,0.20,0.05,-39.86,9.25,4.28
3393,-6.96,8.19,-0.93,0.08,0.53,-0.59,-39.86,9.25,4.28
3404,-7.24,7.49,-0.73,0.87,0.49,-0.89,-40.67,7.98,-1.23
3415,-7.24,7.49,-0.73,0.87,0.49,-0.89,-40.67,7.98,-1.23
3426,-8.15,7.45,0.02,1.75,0.55,-0.99,-40.67,7.98,-1.23
3437,-8.15,7.45,0.02,1.75,0.55,-0.99,-40.67,7.98,-1.23
3448,-8.01,7.68,-0.87,2.60,0.94,-1.13,-40.67,7.98,-1.23
3459,-8.01,7.68,-0.87,2.60,0.94,-1.13,-40.67,7.98,-1.23
3470,-7.13,6.04,-1.55,3.56,1.27,-1.38,-40.67,7.98,-1.23
3481,-7.13,6.04,-1.55,3.56,1.27,-1.38,-40.67,7.98,-1.23
3492,-7.41,3.85,-2.91,3.72,1.22,-1.41,-40.67,7.98,-1.23
3503,-7.64,5.45,-2.94,2.75,0.91,-1.23,-40.67,7.98,-1.23
3514,-7.64,5.45,-2.94,2.75,0.91,-1.23,-40.67,7.98,-1.23
3525,-8.27,7.80,-4.69,1.47,0.62,-1.52,-40.67,7.98,-1.23
3536,-8.27,7.80,-4.69,1.47,0.62,-1.52,-40.67,7.98,-1.23
3547,-8.43,5.31,-2.38,2.20,0.42,-2.02,-44.28,0.35,-9.48
3558,-8.43,5.31,-2.38,2.20,0.42,-2.02,-44.28,0.35,-9.48
3569,-8.30,4.36,-2.03,3.34,0.67,-2.16,-44.28,0.35,-9.48
3580,-8.30,4.36,-2.03,3.34,0.67,-2.16,-44.28,0.35,-9.48
3591,-6.97,6.60,-5.62,3.86,0.94,-2.43,-44.28,0.35,-9.48
3602,-6.97,6.60,-5.62,3.86,0.94,-2.43,-44.28,0.35,-9.48
3613,-7.08,4.55,-4.24,4.81,0.59,-3.33,-44.28,0.35,-9.48
3624,-6.43,2.15,-3.68,6.43,-0.15,-4.03,-44.28,0.35,-9.48
3635,-6.43,2.15,-3.68,6.43,-0.15,-4.03,-44.28,0.35,-9.48
3646,-6.73,0.68,-3.21,6.20,-0.88,-4.25,-44.28,0.35,-9.48
3657,-6.73,0.68,-3.21,6.20,-0.88,-4.25,-44.28,0.35,-9.48
3668,-5.33,0.83,-5.05,5.72,-1.28,-4.40,-39.26,-24.27,-4.84
3679,-5.33,0.83,-5.05,5.72,-1.28,-4.40,-39.26,-24.27,-4.84
3690,-3.96,-0.26,-4.71,5.34,-2.43,-4.85,-39.26,-24.27,-4.84
3701,-3.96,-0.26,-4.71,5.34,-2.43,-4.85,-39.26,-24.27,-4.84
3713,-5.17,-1.88,-1.61,6.25,-3.96,-5.08,-39.26,-24.27,-4.84
3723,-5.17,-1.88,-1.61,6.25,-3.96,-5.08,-39.26,-24.27,-4.84
3734,-7.60,-9.85,12.46,9.44,-3.68,-3.83,-39.26,-24.27,-4.84
3745,-8.31,-10.16,4.88,5.89,-0.90,-1.84,-39.26,-24.27,-4.84
3756,-8.31,-10.16,4.88,5.89,-0.90,-1.84,-39.26,-24.27,-4.84
3767,-6.76,-1.86,-2.65,3.86,0.50,-0.59,-39.26,-24.27,-4.84
3778,-6.76,-1.86,-2.65,3.86,0.50,-0.59,-39.26,-24.27,-4.84
3789,-7.65,-0.43,-3.12,5.20,-0.16,-1.07,-28.44,-31.26,23.37
3800,-7.65,-0.43,-3.12,5.20,-0.16,-1.07,-28.44,-31.26,23.37
3811,-9.19,-6.25,1.52,5.39,-1.20,-1.86,-28.44,-31.26,23.37
3822,-9.19,-6.25,1.52,5.39,-1.20,-1.86,-28.44,-31.26,23.37
3833,-11.74,-11.08,5.10,2.61,-1.52,-1.42,-28.44,-31.26,23.37
3844,-6.57,-5.90,4.52,-0.72,-1.01,-0.38,-28.44,-31.26,23.37
3855,-6.57,-5.90,4.52,-0.72,-1.01,-0.38,-28.44,-31.26,23.37
3866,-7.68,-3.80,-0.83,-2.23,-0.89,-0.23,-28.44,-31.26,23.37
3877,-7.68,-3.80,-0.83,-2.23,-0.89,-0.23,-28.44,-31.26,23.37
3888,-7.48,-3.21,-0.59,4.19,-0.72,-0.18,-28.44,-31.26,23.37
3899,-7.48,-3.21,-0.59,4.19,-0.72,-0.18,-28.44,-31.26,23.37
3910,-7.98,-6.24,9.37,9.47,-0.84,0.25,-28.44,-31.26,23.37
3926,-7.98,-6.24,9.37,9.47,-0.84,0.25,-28.44,-31.26,23.37
3932,-9.58,-5.37,10.77,4.10,-0.55,0.45,-22.02,-22.68,39.20
3943,-9.58,-5.37,10.77,4.10,-0.55,0.45,-22.02,-22.68,39.20
3954,-7.91,-4.60,10.20,-1.22,0.31,-0.09,-22.02,-22.68,39.20
3965,-7.05,-0.87,4.09,-3.73,1.56,-0.60,-22.02,-22.68,39.20
3976,-7.05,-0.87,4.09,-3.73,1.56,-0.60,-22.02,-22.68,39.20
3987,-7.58,-9.72,1.36,-1.70,2.58,-1.38,-22.02,-22.68,39.20
3998,-7.58,-9.72,1.36,-1.70,2.58,-1.38,-22.02,-22.68,39.20
4009,-8.01,-11.32,-0.84,-4.37,2.01,-0.27,-22.02,-22.68,39.20
4020,-8.01,-11.32,-0.84,-4.37,2.01,-0.27,-22.02,-22.68,39.20
4031,-6.40,0.25,2.04,-5.82,1.07,1.21,-22.02,-22.68,39.20
4042,-6.40,0.25,2.04,-5.82,1.07,1.21,-22.02,-22.68,39.20
4053,-7.53,0.40,-4.09,-2.70,1.20,0.14,-26.43,-30.31,25.78
4064,-8.91,-4.29,-2.03,1.71,0.37,-0.58,-26.43,-30.31,25.78
4075,-8.91,-4.29,-2.03,1.71,0.37,-0.58,-26.43,-30.31,25.78
4086,-9.53,-6.50,1.88,3.55,-0.36,-0.62,-26.43,-30.31,25.78
4097,-9.53,-6.50,1.88,3.55,-0.36,-0.62,-26.43,-30.31,25.78
4108,-9.88,-6.56,2.80,3.21,-0.26,-0.47,-26.43,-30.31,25.78
4119,-9.88,-6.56,2.80,3.21,-0.26,-0.47,-26.43,-30.31,25.78
4130,-9.96,-4.11,-0.99,3.38,-0.25,-0.53,-26.43,-30.31,25.78
4141,-9.96,-4.11,-0.99,3.38,-0.25,-0.53,-26.43,-30.31,25.78
4152,-9.21,-5.77,4.04,6.52,-0.72,-0.92,-26.43,-30.31,25.78
4163,-9.21,-5.77,4.04,6.52,-0.72,-0.92,-26.43,-30.31,25.78
4174,-7.86,-8.33,5.95,6.19,-0.88,-0.89,-21.02,-20.30,37.65
4185,-7.51,-6.62,6.99,4.43,-0.70,-0.33,-21.02,-20.30,37.65
4196,-7.51,-6.62,6.99,4.43,-0.70,-0.33,-21.02,-20.30,37.65
4207,-7.15,-6.04,5.24,2.44,-0.15,-0.08,-21.02,-20.30,37.65
4218,-7.15,-6.04,5.24,2.44,-0.15,-0.08,-21.02,-20.30,37.65
4229,-4.18,-3.40,6.44,1.71,0.20,0.02,-21.02,-20.30,37.65
4240,-4.18,-3.40,6.44,1.71,0.20,0.02,-21.02,-20.30,37.65
4251,-7.77,-5.61,5.70,1.71,0.66,-0.21,-21.02,-20.30,37.65
4262,-7.77,-5.61,5.70,1.71,0.66,-0.21,-21.02,-20.30,37.65
4274,-7.62,-3.05,7.33,1.30,0.93,-0.08,-21.02,-20.30,37.65
4284,-7.62,-3.37,4.76,0.28,1.35,-0.24,-21.02,-20.30,37.65
4295,-7.62,-3.37,4.76,0.28,1.35,-0.24,-21.02,-20.30,37.65
4306,-7.36,-6.76,2.10,-1.51,1.28,-0.13,-24.23,-14.26,39.71
4317,-7.36,-6.76,2.10,-1.51,1.28,-0.13,-24.23,-14.26,39.71
4328,-8.30,-2.57,3.19,-3.40,0.50,0.51,-24.23,-14.26,39.71
4339,-8.30,-2.57,3.19,-3.40,0.50,0.51,-24.23,-14.26,39.71
4350,-8.53,-3.38,7.22,-3.76,0.24,0.58,-24.23,-14.26,39.71
4361,-8.53,-3.38,7.22,-3.76,0.24,0.58,-24.23,-14.26,39.71
4372,-7.60,-4.91,5.50,-4.99,0.80,0.59,-24.23,-14.26,39.71
4383,-7.60,-4.91,5.50,-4.99,0.80,0.59,-24.23,-14.26,39.71
4394,-8.14,-5.71,2.54,-6.37,1.12,0.77,-24.23,-14.26,39.71
4405,-7.25,-4.81,-0.37,-7.50,1.03,0.85,-24.23,-14.26,39.71
4416,-7.25,-4.81,-0.37,-7.50,1.03,0.85,-24.23,-14.26,39.71
4427,-6.13,-4.21,-2.70,-6.22,1.01,0.92,-28.24,-27.92,24.57
4438,-6.13,-4.21,-2.70,-6.22,1.01,0.92,-28.24,-27.92,24.57
4449,-7.16,-3.05,-2.46,-4.17,0.64,0.91,-28.24,-27.92,24.57
4460,-7.16,-3.05,-2.46,-4.17,0.64,0.91,-28.24,-27.92,24.57
4471,-8.44,-4.69,-1.87,-2.42,0.23,0.58,-28.24,-27.92,24.57
4482,-8.44,-4.69,-1.87,-2.42,0.23,0.58,-28.24,-27.92,24.57
4493,-9.50,-4.93,-1.53,-1.42,-0.02,0.39,-28.24,-27.92,24.57
4504,-9.32,-4.23,-0.67,-1.08,-0.11,0.35,-28.24,-27.92,24.57
4515,-9.32,-4.23,-0.67,-1.08,-0.11,0.35,-28.24,-27.92,24.57
4526,-9.11,-4.13,-1.15,-0.87,0.05,0.26,-28.24,-27.92,24.57
4638,-9.83,-3.88,-0.94,-0.33,0.01,0.19,-30.64,-29.51,17.69
4648,-8.58,-4.91,-0.96,-0.35,0.03,0.01,-30.64,-29.51,17.69
4659,-8.58,-4.91,-0.96,-0.35,0.03,0.01,-30.64,-29.51,17.69
4670,-8.87,-4.67,-1.52,-0.27,-0.03,0.07,-30.84,-30.63,16.15
4681,-8.87,-4.67,-1.52,-0.27,-0.03,0.07,-30.84,-30.63,16.15
4692,-8.83,-3.82,-2.19,-0.10,-0.08,0.06,-30.84,-30.63,16.15
4703,-8.83,-3.82,-2.19,-0.10,-0.08,0.06,-30.84,-30.63,16.15
4714,-9.53,-5.96,-0.56,0.27,-0.12,0.11,-30.84,-30.63,16.15
4725,-9.42,-3.87,-0.95,0.37,-0.14,0.45,-30.84,-30.63,16.15
4736,-9.42,-3.87,-0.95,0.37,-0.14,0.45,-30.84,-30.63,16.15
4747,-8.90,-4.75,1.64,0.22,-0.40,0.55,-30.84,-30.63,16.15
4758,-8.90,-4.75,1.64,0.22,-0.40,0.55,-30.84,-30.63,16.15
4769,-8.79,-3.85,1.61,-0.46,-0.42,0.45,-30.84,-30.63,16.15
4901,-8.11,-5.88,-1.84,0.33,-0.59,-0.76,-32.05,-29.99,17.87
4911,-8.94,-5.35,-1.04,0.26,-0.53,-0.66,-32.05,-29.99,17.87
4922,-8.94,-5.35,-1.04,0.26,-0.53,-0.66,-32.05,-29.99,17.87
4933,-9.29,-5.70,0.38,0.04,-0.25,-0.54,-28.64,-31.42,20.10
4944,-9.29,-5.70,0.38,0.04,-0.25,-0.54,-28.64,-31.42,20.10
4955,-9.30,-4.28,-1.36,-0.42,0.14,-0.32,-28.64,-31.42,20.10
4966,-8.84,-5.59,-1.28,-0.45,0.21,-0.24,-28.64,-31.42,20.10
4977,-8.84,-5.59,-1.28,-0.45,0.21,-0.24,-28.64,-31.42,20.10
4988,-8.77,-5.39,-1.27,-0.42,0.29,0.02,-28.64,-31.42,20.10
4999,-8.77,-5.39,-1.27,-0.42,0.29,0.02,-28.64,-31.42,20.10
5010,-8.59,-4.75,-1.08,-0.33,0.27,0.19,-28.64,-31.42,20.10
5021,-8.59,-4.75,-1.08,-0.33,0.27,0.19,-28.64,-31.42,20.10
5032,-8.89,-6.10,0.11,-0.30,0.38,0.19,-28.64,-31.42,20.10
5043,-8.89,-6.10,0.11,-0.30,0.38,0.19,-28.64,-31.42,20.10
5054,-8.79,-4.39,-1.52,-0.50,0.53,0.37,-30.04,-32.85,17.87
5065,-8.99,-5.11,-0.23,-0.36,0.35,0.37,-30.04,-32.85,17.87
5076,-8.99,-5.11,-0.23,-0.36,0.35,0.37,-30.04,-32.85,17.87
5178,-8.91,-3.60,-2.00,-0.15,0.31,0.49,-30.04,-32.85,17.87
5188,-8.71,-4.23,-1.71,0.03,0.20,0.37,-32.25,-30.47,13.57
5199,-8.71,-4.23,-1.71,0.03,0.20,0.37,-32.25,-30.47,13.57
5210,-8.97,-4.52,-1.73,0.15,0.10,0.30,-32.25,-30.47,13.57
5221,-8.97,-4.52,-1.73,0.15,0.10,0.30,-32.25,-30.47,13.57
5232,-8.81,-4.40,-1.08,0.19,-0.01,0.30,-32.25,-30.47,13.57
5243,-8.81,-4.40,-1.08,0.19,-0.01,0.30,-32.25,-30.47,13.57
5254,-8.82,-3.96,-1.48,0.16,-0.17,0.24,-32.25,-30.47,13.57
5265,-8.89,-4.13,-0.01,0.10,-0.32,0.14,-32.25,-30.47,13.57
5276,-8.89,-4.13,-0.01,0.10,-0.32,0.14,-32.25,-30.47,13.57
5287,-8.73,-4.19,-1.27,-0.16,-0.21,0.00,-32.25,-30.47,13.57
5298,-8.73,-4.19,-1.27,-0.16,-0.21,0.00,-32.25,-30.47,13.57
5309,-8.86,-4.60,-0.93,-0.31,-0.28,-0.10,-31.04,-29.83,15.97
5411,-8.75,-4.44,-0.96,0.15,-0.78,-0.60,-31.04,-29.83,15.97
5422,-8.75,-4.44,-0.96,0.15,-0.78,-0.60,-31.04,-29.83,15.97
5433,-8.42,-5.40,-0.63,0.09,-0.58,-0.68,-28.64,-31.42,17.01
5444,-8.42,-5.40,-0.63,0.09,-0.58,-0.68,-28.64,-31.42,17.01
5455,-8.45,-4.07,-1.58,-0.15,-0.17,-0.60,-28.64,-31.42,17.01
5466,-8.64,-4.40,-2.76,0.07,0.02,-0.77,-28.64,-31.42,17.01
5477,-8.64,-4.40,-2.76,0.07,0.02,-0.77,-28.64,-31.42,17.01
5488,-9.25,-5.61,-2.00,0.19,-0.03,-0.74,-28.64,-31.42,17.01
5499,-9.25,-5.61,-2.00,0.19,-0.03,-0.74,-28.64,-31.42,17.01
5510,-9.16,-5.11,-1.63,0.08,-0.02,-0.43,-28.64,-31.42,17.01
5521,-9.16,-5.11,-1.63,0.08,-0.02,-0.43,-28.64,-31.42,17.01
5532,-9.25,-5.99,0.13,0.00,0.02,-0.22,-28.64,-31.42,17.01
5543,-9.25,-5.99,0.13,0.00,0.02,-0.22,-28.64,-31.42,17.01
5554,-8.82,-6.11,0.40,-0.25,0.26,0.05,-28.64,-31.42,17.01
5565,-9.18,-5.74,0.03,-0.52,0.60,0.31,-28.24,-32.37,17.01
5576,-9.18,-5.74,0.03,-0.52,0.60,0.31,-28.24,-32.37,18.38
5587,-8.83,-4.74,-1.72,-0.75,0.82,0.70,-28.24,-32.37,18.38
5692,-8.63,-4.42,-0.99,-0.31,0.44,0.45,-31.04,-31.74,15.29
5703,-8.63,-4.42,-0.99,-0.31,0.44,0.45,-31.04,-31.74,15.29
5714,-8.89,-4.21,-2.39,-0.17,0.37,0.38,-31.04,-31.74,15.29
5725,-8.89,-4.21,-2.39,-0.17,0.37,0.38,-31.04,-31.74,15.29
5736,-8.84,-4.25,-2.09,0.04,0.15,0.29,-31.04,-31.74,15.29
5747,-8.82,-4.85,-1.02,0.14,0.05,0.28,-31.04,-31.74,15.29
5758,-8.82,-4.85,-1.02,0.14,0.05,0.28,-31.04,-31.74,15.29
5769,-8.91,-4.19,-1.45,0.13,0.04,0.32,-31.04,-31.74,15.29
5871,-9.07,-3.00,-2.14,-0.28,-0.16,0.06,-34.05,-29.04,14.08
5881,-9.07,-3.00,-2.14,-0.28,-0.16,0.06,-34.05,-29.04,14.08
5892,-9.20,-3.53,-1.63,-0.31,-0.33,-0.05,-34.05,-29.04,14.08
5903,-9.20,-3.53,-1.63,-0.31,-0.33,-0.05,-34.05,-29.04,14.08
5914,-9.11,-3.90,-0.98,-0.24,-0.40,-0.04,-34.05,-29.04,14.08
5925,-9.11,-3.90,-0.98,-0.24,-0.40,-0.04,-34.05,-29.04,14.08
5936,-9.08,-3.90,-0.89,-0.18,-0.39,-0.03,-32.65,-29.51,15.29
5947,-8.73,-4.03,-0.93,-0.22,-0.34,-0.07,-32.65,-29.51,15.29
5958,-8.73,-4.03,-0.93,-0.22,-0.34,-0.07,-32.65,-29.51,15.29
5969,-8.91,-3.56,-1.62,-0.37,-0.30,-0.12,-32.65,-29.51,15.29
5980,-8.91,-3.56,-1.62,-0.37,-0.30,-0.12,-32.65,-29.51,15.29
5991,-8.99,-3.78,-1.61,-0.50,-0.39,-0.27,-32.65,-29.51,15.29
6002,-8.99,-3.78,-1.61,-0.50,-0.39,-0.27,-32.65,-29.51,15.29
6103,-8.15,-4.24,-2.27,0.05,-0.18,-0.58,-30.64,-30.78,14.25
6113,-8.94,-4.32,-2.22,0.20,-0.26,-0.68,-30.64,-30.78,14.25
6124,-8.94,-4.32,-2.22,0.20,-0.26,-0.68,-30.64,-30.78,14.25
6135,-8.52,-4.74,-1.87,0.32,-0.28,-0.66,-30.64,-30.78,14.25
6146,-8.49,-4.28,-1.97,0.37,-0.22,-0.57,-30.64,-30.78,14.25
6157,-8.49,-4.28,-1.97,0.37,-0.22,-0.57,-30.64,-30.78,14.25
6168,-8.85,-4.90,-0.82,0.39,-0.24,-0.56,-30.64,-30.78,14.25
6179,-8.85,-4.90,-0.82,0.39,-0.24,-0.56,-30.64,-30.78,14.25
6190,-8.85,-5.54,-0.67,0.19,-0.05,-0.44,-28.04,-32.21,16.49
6201,-8.85,-5.54,-0.67,0.19,-0.05,-0.44,-28.04,-32.21,16.49
6212,-8.61,-4.87,-0.59,-0.01,0.02,-0.27,-28.04,-32.21,16.49
6223,-8.61,-4.87,-0.59,-0.01,0.02,-0.27,-28.04,-32.21,16.49
6234,-8.87,-5.08,-1.41,-0.08,0.05,-0.25,-28.04,-32.21,16.49
6245,-8.87,-5.08,-1.41,-0.08,0.05,-0.25,-28.04,-32.21,16.49
6256,-8.63,-4.93,-2.27,-0.05,0.02,-0.20,-28.04,-32.21,16.49
6267,-8.79,-5.54,-0.11,0.12,-0.11,-0.14,-28.04,-32.21,16.49
6420,-8.79,-5.54,-0.11,0.12,-0.11,-0.14,-28.04,-32.21,16.49
6421,-8.56,-4.04,-2.09,-0.45,0.54,0.73,-27.43,-33.33,14.94
6432,-8.74,-5.61,-1.15,-0.23,0.37,0.58,-27.43,-33.33,14.94
6443,-8.74,-5.61,-1.15,-0.23,0.37,0.58,-27.43,-33.33,14.94
6454,-8.56,-3.74,-1.89,-0.18,0.37,0.62,-32.05,-32.21,11.67
6465,-8.56,-3.74,-1.89,-0.18,0.37,0.62,-32.05,-32.21,11.67
6476,-9.06,-3.38,-2.30,0.06,0.27,0.53,-32.05,-32.21,11.67
6487,-9.03,-3.65,-2.39,0.16,0.25,0.52,-32.05,-32.21,11.67
6498,-9.03,-3.65,-2.39,0.16,0.25,0.52,-32.05,-32.21,11.67
6509,-9.19,-2.41,-2.97,0.10,0.22,0.51,-32.05,-32.21,11.67
6520,-9.19,-2.41,-2.97,0.10,0.22,0.51,-32.05,-32.21,11.67
6531,-9.15,-4.21,-1.97,0.24,0.09,0.39,-32.05,-32.21,11.67
6542,-9.15,-4.21,-1.97,0.24,0.09,0.39,-32.05,-32.21,11.67
6644,-9.31,-3.66,-1.62,0.12,-0.38,0.08,-33.65,-29.99,11.67
6655,-8.87,-3.12,-2.68,0.15,-0.42,0.06,-33.65,-29.99,11.67
6666,-9.23,-3.89,-0.82,0.28,-0.68,-0.04,-33.65,-29.99,11.67
6677,-9.23,-3.89,-0.82,0.28,-0.68,-0.04,-33.65,-29.99,11.67
6688,-8.91,-3.64,-0.07,0.10,-0.69,-0.06,-35.25,-29.04,11.67
6699,-8.91,-3.64,-0.07,0.10,-0.69,-0.06,-35.25,-29.04,11.67
6710,-9.65,-3.72,-0.77,-0.12,-0.57,-0.16,-35.25,-29.04,11.67
6721,-9.65,-3.72,-0.77,-0.12,-0.57,-0.16,-35.25,-29.04,11.67
6732,-9.41,-3.13,-2.19,-0.15,-0.40,-0.20,-35.25,-29.04,11.67
6743,-9.41,-3.13,-2.19,-0.15,-0.40,-0.20,-35.25,-29.04,11.67
6754,-9.33,-3.69,-1.02,-0.08,-0.38,-0.26,-35.25,-29.04,11.67
6765,-9.33,-3.69,-1.02,-0.08,-0.38,-0.26,-35.25,-29.04,11.67
6776,-8.68,-2.79,-2.74,-0.14,-0.39,-0.34,-35.25,-29.04,11.67
6879,-8.97,-4.04,-1.78,0.07,-0.16,-0.65,-32.05,-29.04,15.46
6889,-9.10,-3.99,-2.11,0.21,-0.17,-0.66,-32.05,-29.04,15.46
6900,-9.10,-3.99,-2.11,0.21,-0.17,-0.66,-32.05,-29.04,15.46
6911,-8.65,-4.59,-1.56,0.34,-0.23,-0.72,-32.05,-29.04,15.46
6922,-8.65,-4.59,-1.56,0.34,-0.23,-0.72,-32.05,-29.04,15.46
6933,-8.76,-4.08,-1.47,0.35,-0.25,-0.70,-32.05,-29.04,15.46
6944,-8.76,-4.08,-1.47,0.35,-0.25,-0.70,-32.05,-29.04,15.46
6955,-9.58,-5.15,-0.58,0.28,-0.20,-0.59,-28.44,-31.58,15.11
6966,-9.58,-5.15,-0.58,0.28,-0.20,-0.59,-28.44,-31.58,15.11
6977,-9.35,-5.41,0.01,-0.27,0.01,-0.30,-28.44,-31.58,15.11
6988,-9.13,-6.38,0.97,-0.81,0.32,0.08,-28.44,-31.58,15.11
6999,-9.13,-6.38,0.97,-0.81,0.32,0.08,-28.44,-31.58,15.11
7010,-8.88,-4.21,-1.99,-1.03,0.64,0.48,-28.44,-31.58,15.11
7021,-8.88,-4.21,-1.99,-1.03,0.64,0.48,-28.44,-31.58,15.11
7032,-8.97,-4.45,-1.93,-0.74,0.57,0.57,-28.44,-31.58,15.11
7043,-8.97,-4.45,-1.93,-0.74,0.57,0.57,-28.44,-31.58,15.11
7054,-9.04,-3.64,-2.44,-0.57,0.51,0.68,-28.44,-31.58,15.11
7159,-8.97,-4.06,-1.36,0.02,0.26,0.50,-31.84,-30.78,12.53
7169,-9.18,-2.58,-2.98,0.01,0.26,0.47,-31.84,-30.78,12.53
7180,-9.18,-2.58,-2.98,0.01,0.26,0.47,-31.84,-30.78,12.53
7191,-9.32,-2.74,-2.58,0.16,0.12,0.34,-31.84,-30.78,12.53
7202,-9.32,-2.74,-2.58,0.16,0.12,0.34,-31.84,-30.78,12.53
7213,-9.24,-3.96,-1.08,0.11,0.13,0.34,-33.85,-28.88,11.85
7224,-9.24,-3.96,-1.08,0.11,0.13,0.34,-33.85,-28.88,11.85
7235,-9.24,-3.40,-2.16,-0.08,0.20,0.40,-33.85,-28.88,11.85
7251,-9.24,-3.40,-2.16,-0.08,0.20,0.40,-33.85,-28.88,11.85
7257,-9.39,-3.61,-3.16,-0.09,0.05,0.36,-33.85,-28.88,11.85
7268,-9.28,-2.61,-2.78,0.10,-0.19,0.35,-33.85,-28.88,11.85
7279,-9.28,-2.61,-2.78,0.10,-0.19,0.35,-33.85,-28.88,11.85
7290,-9.19,-3.30,-1.40,0.35,-0.27,0.25,-33.85,-28.88,11.85
7395,-9.58,-3.04,-1.78,0.08,-0.46,-0.12,-34.65,-28.56,11.16
7405,-9.58,-3.04,-1.78,0.08,-0.46,-0.12,-34.65,-28.56,11.16
7416,-9.34,-3.10,-1.12,0.04,-0.52,-0.18,-34.65,-28.56,11.16
7427,-9.38,-3.09,-1.08,-0.10,-0.50,-0.24,-34.65,-28.56,11.16
7438,-9.38,-3.09,-1.08,-0.10,-0.50,-0.24,-34.65,-28.56,11.16
7449,-9.75,-3.49,-0.94,-0.16,-0.44,-0.32,-34.45,-26.81,14.08
7460,-9.75,-3.49,-0.94,-0.16,-0.44,-0.32,-34.45,-26.81,14.08
7471,-9.03,-3.40,-2.14,-0.18,-0.32,-0.30,-34.45,-26.81,14.08
7482,-9.03,-3.40,-2.14,-0.18,-0.32,-0.30,-34.45,-26.81,14.08
7493,-9.17,-2.96,-1.48,-0.04,-0.48,-0.39,-34.45,-26.81,14.08
7504,-9.17,-2.96,-1.48,-0.04,-0.48,-0.39,-34.45,-26.81,14.08
7515,-9.02,-3.41,-0.67,0.06,-0.56,-0.58,-34.45,-26.81,14.08
7526,-9.02,-3.41,-0.67,0.06,-0.56,-0.58,-34.45,-26.81,14.08
7537,-8.72,-4.27,-0.82,0.20,-0.44,-0.71,-34.45,-26.81,14.08
7548,-8.61,-4.44,-0.73,0.33,-0.29,-0.66,-34.45,-26.81,14.08
7559,-8.61,-4.44,-0.73,0.33,-0.29,-0.66,-34.45,-26.81,14.08
7661,-9.42,-4.63,-0.11,-0.26,0.13,-0.32,-31.04,-30.15,15.63
7672,-9.32,-5.08,-0.66,-0.45,0.31,-0.12,-31.04,-30.15,15.63
7683,-9.32,-5.08,-0.66,-0.45,0.31,-0.12,-31.04,-30.15,15.63
7694,-9.18,-5.26,-0.86,-0.60,0.45,0.17,-31.04,-30.15,15.63
7705,-9.18,-5.26,-0.86,-0.60,0.45,0.17,-31.04,-30.15,15.63
7716,-9.06,-3.91,-2.06,-0.71,0.57,0.48,-31.04,-32.69,15.63
7727,-9.04,-4.36,-1.43,-0.50,0.42,0.54,-31.04,-32.69,15.63
7738,-9.04,-4.36,-1.43,-0.50,0.42,0.54,-31.04,-32.69,15.63
7749,-9.02,-4.15,-1.18,-0.44,0.46,0.61,-31.04,-32.69,15.63
7760,-9.02,-4.15,-1.18,-0.44,0.46,0.61,-31.04,-32.69,15.63
7771,-8.83,-4.35,-0.80,-0.37,0.56,0.66,-31.04,-32.69,15.63
7782,-8.83,-4.35,-0.80,-0.37,0.56,0.66,-31.04,-32.69,15.63
7793,-9.05,-3.19,-2.69,-0.32,0.59,0.67,-31.04,-32.69,15.63
7896,-9.19,-2.91,-2.30,0.11,0.09,0.33,-32.25,-29.20,12.53
7906,-9.19,-2.91,-2.30,0.11,0.09,0.33,-32.25,-29.20,12.53
7917,-9.28,-3.44,-1.50,0.10,0.05,0.29,-32.25,-29.20,12.53
7928,-9.26,-4.09,-1.40,0.05,0.06,0.28,-32.25,-29.20,12.53
7939,-9.26,-4.09,-1.40,0.05,0.06,0.28,-32.25,-29.20,12.53
7950,-9.21,-3.53,-1.55,-0.01,0.02,0.29,-35.65,-28.40,10.64
7961,-9.21,-3.53,-1.55,-0.01,0.02,0.29,-35.65,-28.40,10.64
7972,-9.33,-2.55,-2.36,-0.01,0.04,0.27,-35.65,-28.40,10.64
7983,-9.33,-2.55,-2.36,-0.01,0.04,0.27,-35.65,-28.40,10.64
7994,-9.31,-3.23,-1.67,0.07,0.01,0.18,-35.65,-28.40,10.64
8005,-9.31,-3.23,-1.67,0.07,0.01,0.18,-35.65,-28.40,10.64
8016,-9.34,-3.54,-2.20,0.07,0.00,0.13,-35.65,-28.40,10.64
8027,-9.34,-3.54,-2.20,0.07,0.00,0.13,-35.65,-28.40,10.64
8038,-9.38,-3.14,-2.07,0.13,-0.10,0.13,-35.65,-28.40,10.64
8049,-9.48,-2.87,-1.76,0.19,-0.19,0.13,-35.65,-28.40,10.64
8060,-9.48,-2.87,-1.76,0.19,-0.19,0.13,-35.65,-28.40,10.64
8071,-9.27,-2.85,-1.92,0.18,-0.28,0.09,-35.65,-28.40,10.64
8177,-9.79,-2.75,-1.32,-0.23,-0.40,-0.06,-35.05,-28.56,11.16
8187,-9.79,-2.75,-1.32,-0.23,-0.40,-0.06,-35.05,-28.56,11.16
8198,-9.38,-3.13,-1.01,-0.17,-0.40,-0.07,-35.05,-28.56,11.16
8209,-9.26,-2.89,-1.77,-0.19,-0.31,-0.09,-35.25,-27.77,13.74
8220,-9.26,-2.89,-1.77,-0.19,-0.31,-0.09,-35.25,-27.77,13.74
8231,-9.46,-3.25,-0.98,-0.16,-0.38,-0.19,-35.25,-27.77,13.74
8242,-9.46,-3.25,-0.98,-0.16,-0.38,-0.19,-35.25,-27.77,13.74
8253,-9.10,-3.30,-1.05,-0.28,-0.45,-0.32,-35.25,-27.77,13.74
8264,-9.10,-3.30,-1.05,-0.28,-0.45,-0.32,-35.25,-27.77,13.74
8275,-9.36,-3.76,-0.87,-0.27,-0.40,-0.46,-35.25,-27.77,13.74
8286,-9.36,-3.76,-0.87,-0.27,-0.40,-0.46,-35.25,-27.77,13.74
8297,-9.15,-3.47,-1.63,-0.17,-0.32,-0.45,-35.25,-27.77,13.74
8308,-9.14,-3.84,-0.98,-0.08,-0.27,-0.40,-35.25,-27.77,13.74
8451,-9.07,-4.57,-1.60,0.45,-0.18,-0.74,-33.05,-29.51,14.94
8461,-9.07,-4.57,-1.60,0.45,-0.18,-0.74,-33.05,-29.51,14.94
8472,-9.20,-4.82,0.29,0.29,-0.14,-0.49,-29.84,-31.74,14.94
8483,-9.20,-4.82,0.29,0.29,-0.14,-0.49,-29.84,-31.74,14.94
8494,-9.39,-4.27,-0.24,0.00,0.16,-0.29,-29.84,-31.74,14.94
8505,-9.39,-4.27,-0.24,0.00,0.16,-0.29,-29.84,-31.74,14.94
8516,-9.16,-4.36,-1.21,-0.20,0.24,-0.18,-29.84,-31.74,14.94
8527,-9.16,-4.36,-1.21,-0.20,0.24,-0.18,-29.84,-31.74,14.94
8538,-9.23,-4.94,-0.86,-0.38,0.22,-0.08,-29.84,-31.74,14.94
8549,-9.09,-4.82,-0.90,-0.51,0.31,0.14,-29.84,-31.74,14.94
8560,-9.09,-4.82,-0.90,-0.51,0.31,0.14,-29.84,-31.74,14.94
8571,-9.19,-3.40,-1.90,-0.53,0.43,0.38,-29.84,-31.74,14.94
8685,-9.19,-3.40,-1.90,-0.53,0.43,0.38,-29.84,-31.74,14.94
8687,-9.12,-3.22,-2.01,-0.14,0.35,0.54,-30.64,-30.78,13.57
8697,-8.91,-4.41,-0.84,-0.08,0.29,0.52,-30.64,-30.78,13.57
8708,-9.10,-3.48,-1.84,-0.16,0.27,0.51,-30.64,-30.78,13.57
8719,-9.10,-3.48,-1.84,-0.16,0.27,0.51,-33.25,-29.04,9.95
8730,-9.08,-3.39,-2.07,-0.06,0.21,0.42,-33.25,-29.04,9.95
8741,-9.08,-3.39,-2.07,-0.06,0.21,0.42,-33.25,-29.04,9.95
8752,-9.18,-3.71,-1.81,0.03,0.11,0.30,-33.25,-29.04,9.95
8763,-9.18,-3.71,-1.81,0.03,0.11,0.30,-33.25,-29.04,9.95
8774,-9.08,-3.60,-1.22,0.08,0.03,0.32,-33.25,-29.04,9.95
8785,-9.08,-3.60,-1.22,0.08,0.03,0.32,-33.25,-29.04,9.95
8796,-9.38,-2.15,-2.45,0.05,0.09,0.30,-33.25,-29.04,9.95
8807,-9.38,-2.15,-2.45,0.05,0.09,0.30,-33.25,-29.04,9.95
8818,-9.37,-3.44,-1.61,0.13,0.06,0.18,-33.25,-29.04,9.95
8829,-9.50,-2.55,-2.49,0.07,0.06,0.21,-35.05,-28.88,10.13
8840,-9.50,-2.55,-2.49,0.07,0.06,0.21,-35.05,-28.88,10.13
8851,-9.33,-2.94,-2.15,0.10,0.02,0.15,-35.05,-28.88,10.13
8862,-9.33,-2.94,-2.15,0.10,0.02,0.15,-35.05,-28.88,10.13
8967,-9.57,-3.27,-1.07,0.05,-0.42,-0.11,-35.05,-28.88,10.13
8977,-9.34,-3.65,-0.66,-0.00,-0.43,-0.16,-33.85,-26.65,11.85
8988,-9.34,-3.65,-0.66,-0.00,-0.43,-0.16,-33.85,-26.65,11.85
8999,-9.65,-3.05,-1.31,-0.11,-0.38,-0.17,-33.85,-26.65,11.85
9010,-9.22,-3.50,-1.78,-0.13,-0.37,-0.17,-33.85,-26.65,11.85
9021,-9.22,-3.50,-1.78,-0.13,-0.37,-0.17,-33.85,-26.65,11.85
9032,-9.10,-2.54,-1.82,-0.10,-0.47,-0.21,-33.85,-26.65,11.85
9043,-9.10,-2.54,-1.82,-0.10,-0.47,-0.21,-33.85,-26.65,11.85
9054,-8.79,-3.38,0.05,-0.09,-0.52,-0.38,-33.85,-26.65,11.85
9065,-8.79,-3.38,0.05,-0.09,-0.52,-0.38,-33.85,-26.65,11.85
9076,-8.62,-3.54,-1.52,-0.26,-0.36,-0.58,-33.85,-26.65,11.85
9087,-8.62,-3.54,-1.52,-0.26,-0.36,-0.58,-33.85,-26.65,11.85
9190,-9.10,-3.80,-2.15,0.18,-0.04,-0.78,-32.85,-29.99,13.05
9200,-9.10,-3.80,-2.15,0.18,-0.04,-0.78,-32.85,-29.99,13.05
9211,-9.45,-4.86,-0.75,0.29,-0.10,-0.69,-30.04,-31.58,13.74
9222,-9.45,-4.86,-0.75,0.29,-0.10,-0.69,-30.04,-31.58,13.74
9233,-9.15,-3.87,-1.42,0.14,0.07,-0.46,-30.04,-31.58,13.74
9244,-9.15,-3.87,-1.42,0.14,0.07,-0.46,-30.04,-31.58,13.74
9255,-9.46,-3.98,-1.35,-0.02,0.15,-0.34,-30.04,-31.58,13.74
9266,-9.46,-3.98,-1.35,-0.02,0.15,-0.34,-30.04,-31.58,13.74
9277,-9.05,-5.00,-0.13,-0.15,0.15,-0.23,-30.04,-31.58,13.74
9288,-9.05,-5.00,-0.13,-0.15,0.15,-0.23,-30.04,-31.58,13.74
9299,-8.96,-5.43,-0.57,-0.25,0.28,-0.09,-30.04,-31.58,13.74
9310,-8.97,-4.05,-2.30,-0.29,0.37,0.10,-30.04,-31.58,13.74
9321,-8.97,-4.05,-2.30,-0.29,0.37,0.10,-30.04,-31.58,13.74
9332,-8.99,-4.18,-1.76,-0.20,0.28,0.13,-30.04,-31.58,13.74
9343,-8.99,-4.18,-1.76,-0.20,0.28,0.13,-30.04,-31.58,13.74
9354,-9.27,-4.50,-1.39,-0.27,0.29,0.18,-29.24,-31.90,12.36
9365,-9.27,-4.50,-1.39,-0.27,0.29,0.18,-29.24,-31.90,12.36
9468,-9.02,-3.59,-1.98,-0.11,0.29,0.60,-29.24,-31.90,12.36
9478,-9.35,-2.22,-3.66,-0.07,0.25,0.58,-31.44,-30.78,10.47
9489,-9.01,-3.39,-2.14,0.07,0.13,0.54,-31.44,-30.78,10.47
9500,-9.01,-3.39,-2.14,0.07,0.13,0.54,-31.44,-30.78,10.47
9511,-9.17,-3.38,-1.34,0.05,0.13,0.46,-31.44,-30.78,10.47
9522,-9.17,-3.38,-1.34,0.05,0.13,0.46,-31.44,-30.78,10.47
9533,-9.10,-3.67,-1.59,0.09,0.08,0.37,-31.44,-30.78,10.47
9544,-9.10,-3.67,-1.59,0.09,0.08,0.37,-31.44,-30.78,10.47
9555,-9.39,-3.37,-2.38,0.07,0.11,0.33,-31.44,-30.78,10.47
9566,-9.39,-3.37,-2.38,0.07,0.11,0.33,-31.44,-30.78,10.47
9577,-9.19,-3.16,-1.98,0.05,0.08,0.36,-31.44,-30.78,10.47
9588,-9.19,-3.16,-1.98,0.05,0.08,0.36,-31.44,-30.78,10.47
9599,-9.08,-3.71,-1.87,-0.01,0.08,0.27,-34.05,-28.40,10.30
9706,-9.33,-2.80,-2.21,0.15,-0.16,0.14,-34.05,-28.40,10.30
9716,-9.11,-2.49,-2.61,0.12,-0.29,0.02,-34.05,-28.40,10.30
9727,-9.11,-2.49,-2.61,0.12,-0.29,0.02,-34.05,-28.40,10.30
9738,-9.00,-3.25,-2.21,0.08,-0.41,-0.11,-35.05,-27.29,9.78
9754,-9.33,-3.33,-1.70,-0.00,-0.37,-0.15,-35.05,-27.29,9.78
9760,-9.33,-3.33,-1.70,-0.00,-0.37,-0.15,-35.05,-27.29,9.78
9771,-9.31,-3.02,-1.67,-0.02,-0.42,-0.18,-35.05,-27.29,9.78
9782,-9.31,-3.02,-1.67,-0.02,-0.42,-0.18,-35.05,-27.29,9.78
9793,-9.23,-3.38,-1.13,-0.02,-0.52,-0.26,-35.05,-27.29,9.78
9804,-9.23,-3.38,-1.13,-0.02,-0.52,-0.26,-35.05,-27.29,9.78
9815,-9.23,-2.62,-1.37,-0.03,-0.57,-0.31,-35.05,-27.29,9.78
9826,-9.23,-2.62,-1.37,-0.03,-0.57,-0.31,-35.05,-27.29,9.78
9837,-9.36,-3.47,-1.10,-0.00,-0.63,-0.44,-35.05,-27.29,9.78
9936,-9.09,-4.08,-0.75,0.34,-0.36,-0.81,-31.84,-29.83,13.22
9946,-9.09,-4.08,-0.75,0.34,-0.36,-0.81,-31.84,-29.83,13.22
9957,-9.15,-4.09,-1.02,0.21,-0.24,-0.93,-31.84,-29.83,13.22
9968,-9.15,-4.09,-1.02,0.21,-0.24,-0.93,-31.84,-29.83,13.22
9979,-9.46,-4.71,-1.93,0.38,-0.13,-0.85,-31.04,-32.37,13.57
9990,-9.15,-4.06,-0.67,0.46,-0.08,-0.64,-31.04,-32.37,13.57
10001,-9.15,-4.06,-0.67,0.46,-0.08,-0.64,-31.04,-32.37,13.57
10012,-9.26,-4.14,-0.89,0.30,0.01,-0.55,-31.04,-32.37,13.57
10023,-9.26,-4.14,-0.89,0.30,0.01,-0.55,-31.04,-32.37,13.57
10034,-9.05,-5.65,0.23,0.05,0.09,-0.38,-31.04,-32.37,13.57
10045,-9.05,-5.65,0.23,0.05,0.09,-0.38,-31.04,-32.37,13.57
10056,-8.94,-5.36,-1.19,-0.37,0.36,-0.06,-31.04,-32.37,13.57
10072,-8.94,-5.36,-1.19,-0.37,0.36,-0.06,-31.04,-32.37,13.57
10078,-9.11,-4.38,-0.99,-0.51,0.38,0.18,-31.04,-32.37,13.57
10089,-9.11,-4.38,-0.99,-0.51,0.38,0.18,-31.04,-32.37,13.57
10100,-8.99,-4.12,-1.74,-0.56,0.46,0.31,-31.04,-32.37,13.57
10111,-9.16,-5.05,-1.28,-0.50,0.42,0.38,-29.64,-33.48,13.74
10214,-9.07,-3.82,-2.19,-0.08,0.24,0.46,-29.64,-33.48,13.74
10224,-9.07,-3.82,-2.19,-0.08,0.24,0.46,-29.64,-33.48,13.74
10235,-9.04,-3.74,-1.75,-0.06,0.21,0.46,-30.24,-30.47,10.13
10246,-9.04,-3.74,-1.75,-0.06,0.21,0.46,-30.24,-30.47,10.13
10257,-9.16,-3.01,-2.52,-0.08,0.15,0.39,-30.24,-30.47,10.13
10268,-9.16,-3.01,-2.52,-0.08,0.15,0.39,-30.24,-30.47,10.13
10279,-9.07,-3.80,-1.19,-0.03,0.05,0.30,-30.24,-30.47,10.13
10290,-9.41,-3.43,-1.88,-0.12,0.07,0.22,-30.24,-30.47,10.13
10301,-9.41,-3.43,-1.88,-0.12,0.07,0.22,-30.24,-30.47,10.13
10312,-9.26,-2.78,-1.89,-0.17,0.14,0.26,-30.24,-30.47,10.13
10323,-9.26,-2.78,-1.89,-0.17,0.14,0.26,-30.24,-30.47,10.13
10334,-9.21,-3.15,-1.89,-0.21,0.13,0.24,-30.24,-30.47,10.13
10476,-9.33,-3.11,-1.79,0.09,-0.07,0.08,-34.65,-29.20,8.06
10486,-9.33,-3.11,-1.79,0.09,-0.07,0.08,-34.65,-29.20,8.06
10497,-9.38,-3.26,-2.08,0.05,-0.04,0.09,-34.65,-29.20,8.06
10508,-9.38,-3.26,-2.08,0.05,-0.04,0.09,-34.65,-29.20,8.06
10519,-9.27,-3.25,-1.66,0.03,-0.07,0.11,-34.65,-29.20,8.06
10530,-9.34,-3.04,-1.14,0.03,-0.11,0.09,-34.65,-29.20,8.06
10541,-9.34,-3.04,-1.14,0.03,-0.11,0.09,-34.65,-29.20,8.06
10552,-9.27,-3.14,-2.04,0.04,-0.10,0.02,-34.65,-29.20,8.06
10563,-9.27,-3.14,-2.04,0.04,-0.10,0.02,-34.65,-29.20,8.06
10574,-9.46,-2.64,-2.24,0.07,-0.23,-0.03,-34.65,-29.20,8.06
10585,-9.46,-2.64,-2.24,0.07,-0.23,-0.03,-34.65,-29.20,8.06
10596,-9.11,-3.17,-1.27,0.03,-0.38,-0.12,-34.65,-29.20,8.06
10607,-9.11,-3.17,-1.27,0.03,-0.38,-0.12,-34.65,-29.20,8.06
10711,-8.75,-3.33,-2.44,-0.11,-0.26,-0.57,-33.65,-29.04,11.33
10722,-8.75,-3.33,-2.44,-0.11,-0.26,-0.57,-33.65,-29.04,11.33
10733,-8.81,-3.97,-1.29,0.11,-0.35,-0.63,-30.64,-30.15,12.19
10744,-8.81,-3.97,-1.29,0.11,-0.35,-0.63,-30.64,-30.15,12.19
10755,-9.11,-4.04,-0.92,0.13,-0.30,-0.60,-30.64,-30.15,12.19
10766,-9.11,-4.04,-0.92,0.13,-0.30,-0.60,-30.64,-30.15,12.19
10777,-9.21,-4.24,-1.59,0.13,-0.15,-0.55,-30.64,-30.15,12.19
10788,-9.21,-4.24,-1.59,0.13,-0.15,-0.55,-30.64,-30.15,12.19
10799,-8.49,-2.94,-2.80,0.07,-0.02,-0.47,-30.64,-30.15,12.19
10810,-8.49,-2.94,-2.80,0.07,-0.02,-0.47,-30.64,-30.15,12.19
10821,-8.63,-3.99,-1.85,0.23,-0.04,-0.64,-30.64,-30.15,12.19
10832,-9.54,-4.35,-2.11,0.33,-0.12,-0.68,-30.64,-30.15,12.19
10843,-9.54,-4.35,-2.11,0.33,-0.12,-0.68,-30.64,-30.15,12.19
10854,-9.34,-4.31,-0.32,0.39,-0.15,-0.51,-29.64,-33.17,12.02
10865,-9.34,-4.31,-0.32,0.39,-0.15,-0.51,-29.64,-33.17,12.02
10876,-9.27,-5.39,0.91,0.08,0.01,-0.29,-29.64,-33.17,12.02
10887,-9.27,-5.39,0.91,0.08,0.01,-0.29,-29.64,-33.17,12.02
10990,-9.01,-3.38,-2.26,-0.51,0.42,0.41,-29.64,-33.17,12.02
11000,-9.18,-5.17,-0.96,-0.43,0.36,0.42,-30.64,-31.74,9.78
11011,-9.09,-2.88,-3.09,-0.45,0.37,0.62,-30.64,-31.74,9.78
11022,-9.09,-2.88,-3.09,-0.45,0.37,0.62,-30.64,-31.74,9.78
11033,-9.19,-4.11,-1.79,-0.16,0.15,0.54,-30.64,-31.74,9.78
11044,-9.19,-4.11,-1.79,-0.16,0.15,0.54,-30.64,-31.74,9.78
11055,-9.32,-3.00,-2.34,-0.14,0.14,0.56,-30.64,-31.74,9.78
11066,-9.32,-3.00,-2.34,-0.14,0.14,0.56,-30.64,-31.74,9.78
11077,-9.10,-3.80,-1.18,-0.01,0.10,0.53,-30.64,-31.74,9.78
11088,-9.10,-3.80,-1.18,-0.01,0.10,0.53,-30.64,-31.74,9.78
11099,-9.27,-3.72,-1.73,0.00,0.16,0.50,-30.64,-31.74,9.78
11110,-9.27,-3.72,-1.73,0.00,0.16,0.50,-30.64,-31.74,9.78
11212,-9.02,-3.65,-1.47,-0.15,-0.02,0.15,-32.05,-29.99,9.61
11223,-9.02,-3.65,-1.47,-0.15,-0.02,0.15,-32.05,-29.99,9.61
11234,-9.31,-2.55,-2.57,-0.20,-0.02,0.08,-33.05,-30.15,10.47
11245,-9.31,-2.55,-2.57,-0.20,-0.02,0.08,-33.05,-30.15,10.47
11261,-9.24,-3.49,-2.60,0.01,-0.10,-0.01,-33.05,-30.15,10.47
11267,-9.24,-3.49,-2.60,0.01,-0.10,-0.01,-33.05,-30.15,10.47
11278,-9.40,-2.89,-2.38,0.16,-0.18,-0.00,-33.05,-30.15,10.47
11289,-9.40,-2.89,-2.38,0.16,-0.18,-0.00,-33.05,-30.15,10.47
11300,-9.31,-3.27,-1.45,0.20,-0.30,-0.04,-33.05,-30.15,10.47
11311,-9.39,-3.08,-1.90,0.16,-0.28,-0.09,-33.05,-30.15,10.47
11322,-9.39,-3.08,-1.90,0.16,-0.28,-0.09,-33.05,-30.15,10.47
11333,-9.36,-3.25,-1.23,0.10,-0.36,-0.13,-33.05,-30.15,10.47
11344,-9.36,-3.25,-1.23,0.10,-0.36,-0.13,-33.05,-30.15,10.47
11355,-9.43,-3.70,-1.13,0.03,-0.37,-0.16,-33.05,-30.15,10.47
11366,-9.43,-3.70,-1.13,0.03,-0.37,-0.16,-33.05,-30.15,10.47
11377,-9.09,-2.90,-2.10,-0.02,-0.31,-0.15,-34.85,-30.94,10.30
11388,-9.09,-2.90,-2.10,-0.02,-0.31,-0.15,-34.85,-30.94,10.30
11490,-9.27,-3.51,0.37,-0.10,-0.43,-0.36,-34.85,-30.94,10.30
11501,-9.15,-3.99,-0.70,-0.23,-0.21,-0.45,-31.64,-29.35,12.02
11512,-8.88,-3.65,-1.76,-0.22,-0.11,-0.47,-31.64,-29.35,12.02
11523,-8.88,-3.65,-1.76,-0.22,-0.11,-0.47,-31.64,-29.35,12.02
11534,-9.00,-3.72,-1.10,-0.09,-0.23,-0.59,-31.64,-29.35,12.02
11545,-9.00,-3.72,-1.10,-0.09,-0.23,-0.59,-31.64,-29.35,12.02
11556,-9.32,-4.79,-1.11,0.12,-0.24,-0.63,-31.64,-29.35,12.02
11567,-9.32,-4.79,-1.11,0.12,-0.24,-0.63,-31.64,-29.35,12.02
11578,-8.87,-4.16,-1.39,0.16,-0.06,-0.47,-31.64,-29.35,12.02
11589,-8.87,-4.16,-1.39,0.16,-0.06,-0.47,-31.64,-29.35,12.02
11600,-8.74,-3.08,-2.40,0.14,-0.02,-0.46,-31.64,-29.35,12.02
11611,-9.41,-3.73,-2.44,0.15,-0.05,-0.61,-28.84,-31.90,12.71
11713,-9.17,-4.07,-1.44,-0.24,0.33,0.06,-28.84,-31.90,12.71
11724,-9.17,-4.07,-1.44,-0.24,0.33,0.06,-28.84,-31.90,12.71
11735,-9.02,-5.06,-0.88,-0.29,0.28,0.13,-28.84,-31.90,12.71
11746,-9.02,-5.06,-0.88,-0.29,0.28,0.13,-28.84,-31.90,12.71
11757,-9.32,-4.49,-1.51,-0.42,0.38,0.33,-29.04,-33.64,11.16
11768,-9.32,-4.49,-1.51,-0.42,0.38,0.33,-29.04,-33.64,11.16
11779,-8.89,-4.50,-0.91,-0.46,0.40,0.54,-29.04,-33.64,11.16
11790,-8.89,-4.50,-0.91,-0.46,0.40,0.54,-29.04,-33.64,11.16
11801,-8.90,-3.24,-1.87,-0.43,0.38,0.59,-29.04,-33.64,11.16
11812,-9.23,-3.79,-1.90,-0.25,0.27,0.47,-29.04,-33.64,11.16
11823,-9.23,-3.79,-1.90,-0.25,0.27,0.47,-29.04,-33.64,11.16
11834,-9.05,-4.25,-1.78,-0.20,0.27,0.50,-29.04,-33.64,11.16
11845,-9.05,-4.25,-1.78,-0.20,0.27,0.50,-29.04,-33.64,11.16
11856,-9.17,-3.56,-1.20,-0.11,0.20,0.52,-29.04,-33.64,11.16
11867,-9.17,-3.56,-1.20,-0.11,0.20,0.52,-29.04,-33.64,11.16
11878,-9.06,-3.43,-1.54,-0.05,0.12,0.42,-31.44,-31.74,8.06
11889,-9.06,-3.43,-1.54,-0.05,0.12,0.42,-31.44,-31.74,8.06
11993,-9.26,-2.77,-1.87,-0.05,0.08,0.19,-33.25,-29.35,9.61
12003,-9.26,-2.77,-1.87,-0.05,0.08,0.19,-33.25,-29.35,9.61
12014,-9.30,-3.41,-2.01,-0.01,0.10,0.17,-33.25,-29.35,9.61
12025,-9.30,-3.41,-2.01,-0.01,0.10,0.17,-33.25,-29.35,9.61
12036,-9.43,-3.87,-1.77,0.01,0.06,0.15,-33.25,-29.35,9.61
12047,-9.43,-3.87,-1.77,0.01,0.06,0.15,-33.25,-29.35,9.61
12058,-9.37,-3.12,-1.47,-0.04,0.06,0.24,-33.25,-29.35,9.61
12069,-9.37,-3.12,-1.47,-0.04,0.06,0.24,-33.25,-29.35,9.61
12080,-9.42,-2.95,-2.04,-0.02,0.09,0.23,-33.25,-29.35,9.61
12091,-9.42,-2.95,-2.04,-0.02,0.09,0.23,-33.25,-29.35,9.61
12102,-9.40,-2.66,-2.62,-0.02,0.08,0.18,-33.25,-29.35,9.61
12113,-9.45,-3.18,-2.27,0.00,0.01,0.16,-34.45,-29.04,8.92
12124,-9.45,-3.18,-2.27,0.00,0.01,0.16,-34.45,-29.04,8.92
12231,-9.39,-2.88,-1.90,-0.06,-0.13,0.09,-34.45,-29.04,8.92
12241,-9.23,-3.00,-2.35,-0.07,-0.15,0.04,-34.45,-29.04,8.92
12252,-9.52,-2.34,-1.77,-0.16,-0.23,-0.02,-32.05,-28.72,7.89
12263,-9.52,-2.34,-1.77,-0.16,-0.23,-0.02,-32.05,-28.72,7.89
12274,-9.17,-3.17,-1.68,-0.13,-0.34,-0.16,-32.05,-28.72,7.89
12285,-9.17,-3.17,-1.68,-0.13,-0.34,-0.16,-32.05,-28.72,7.89
12296,-9.48,-2.89,-1.36,-0.12,-0.37,-0.21,-32.05,-28.72,7.89
12307,-9.48,-2.89,-1.36,-0.12,-0.37,-0.21,-32.05,-28.72,7.89
12318,-9.09,-3.34,-1.43,-0.13,-0.36,-0.22,-32.05,-28.72,7.89
12329,-9.09,-3.34,-1.43,-0.13,-0.36,-0.22,-32.05,-28.72,7.89
12340,-9.64,-2.71,-1.24,-0.22,-0.43,-0.30,-32.05,-28.72,7.89
12351,-9.64,-2.71,-1.24,-0.22,-0.43,-0.30,-32.05,-28.72,7.89
12362,-9.11,-2.80,-1.22,-0.36,-0.48,-0.54,-32.05,-28.72,7.89
12373,-9.01,-3.35,-1.92,-0.30,-0.48,-0.79,-32.05,-28.72,9.95
12384,-9.01,-3.35,-1.92,-0.30,-0.48,-0.79,-32.05,-28.72,9.95
12395,-9.19,-4.35,-1.21,0.05,-0.36,-0.77,-32.05,-28.72,9.95
12537,-9.64,-4.61,-1.28,0.34,0.04,-0.43,-29.24,-33.48,11.33
12547,-9.64,-4.61,-1.28,0.34,0.04,-0.43,-29.24,-33.48,11.33
12558,-9.27,-4.49,-0.94,0.07,0.17,-0.23,-29.24,-33.48,11.33
12569,-9.27,-4.49,-0.94,0.07,0.17,-0.23,-29.24,-33.48,11.33
12580,-9.40,-5.35,-0.56,-0.17,0.23,-0.07,-29.24,-33.48,11.33
12591,-9.40,-5.35,-0.56,-0.17,0.23,-0.07,-29.24,-33.48,11.33
12602,-9.18,-4.66,-0.92,-0.42,0.37,0.24,-29.24,-33.48,11.33
12613,-9.08,-4.82,-1.47,-0.54,0.49,0.44,-29.24,-33.48,11.33
12624,-9.08,-4.82,-1.47,-0.54,0.49,0.44,-29.24,-33.48,11.33
12635,-9.12,-4.52,-1.14,-0.56,0.44,0.60,-27.23,-32.85,10.64
12646,-9.12,-4.52,-1.14,-0.56,0.44,0.60,-27.23,-32.85,10.64
12657,-9.18,-3.27,-2.36,-0.50,0.41,0.71,-27.23,-32.85,10.64
12668,-9.18,-3.27,-2.36,-0.50,0.41,0.71,-27.23,-32.85,10.64
12771,-8.95,-4.20,-0.91,-0.03,0.17,0.49,-31.64,-31.90,7.89
12781,-9.12,-3.29,-1.12,-0.08,0.17,0.48,-31.64,-31.90,7.89
12792,-9.04,-3.31,-1.38,-0.14,0.13,0.38,-31.64,-31.90,7.89
12803,-9.04,-3.31,-1.38,-0.14,0.13,0.38,-31.64,-31.90,7.89
12814,-9.23,-3.16,-2.10,-0.22,0.14,0.30,-31.64,-31.90,7.89
12825,-9.23,-3.16,-2.10,-0.22,0.14,0.30,-31.64,-31.90,7.89
12836,-9.51,-2.69,-1.35,-0.13,0.06,0.30,-31.64,-31.90,7.89
12847,-9.51,-2.69,-1.35,-0.13,0.06,0.30,-31.64,-31.90,7.89
12864,-9.20,-3.58,-1.79,-0.07,0.04,0.21,-31.64,-31.90,7.89
12869,-9.20,-3.58,-1.79,-0.07,0.04,0.21,-31.64,-31.90,7.89
12880,-9.12,-2.67,-2.40,-0.13,-0.01,0.17,-34.25,-29.51,7.37
12891,-9.12,-2.67,-2.40,-0.13,-0.01,0.17,-34.25,-29.51,7.37
12902,-9.09,-3.23,-1.87,-0.14,-0.09,0.06,-34.25,-29.51,7.37
13002,-9.39,-3.43,-1.46,-0.01,-0.34,-0.11,-34.25,-29.51,7.37
13012,-9.39,-3.43,-1.46,-0.01,-0.34,-0.11,-34.25,-29.51,7.37
13023,-9.11,-3.52,-1.62,-0.04,-0.34,-0.15,-33.25,-30.94,7.89
13034,-9.37,-3.04,-1.35,-0.12,-0.33,-0.22,-33.25,-30.94,7.89
13045,-9.37,-3.04,-1.35,-0.12,-0.33,-0.22,-33.25,-30.94,7.89
13056,-9.14,-3.52,-2.07,-0.15,-0.35,-0.34,-33.25,-30.94,7.89
13067,-9.14,-3.52,-2.07,-0.15,-0.35,-0.34,-33.25,-30.94,7.89
13078,-9.41,-3.55,-2.15,-0.03,-0.37,-0.41,-33.25,-30.94,7.89
13089,-9.41,-3.55,-2.15,-0.03,-0.37,-0.41,-33.25,-30.94,7.89
13100,-9.23,-3.25,-2.12,0.07,-0.32,-0.36,-33.25,-30.94,7.89
13111,-9.23,-3.25,-2.12,0.07,-0.32,-0.36,-33.25,-30.94,7.89
13122,-8.78,-3.55,-1.09,0.10,-0.35,-0.42,-33.25,-30.94,7.89
13133,-9.56,-3.16,-1.51,0.05,-0.38,-0.56,-31.04,-30.78,9.78
13144,-9.56,-3.16,-1.51,0.05,-0.38,-0.56,-31.04,-30.78,9.78
13155,-9.38,-3.41,-2.61,0.16,-0.36,-0.63,-31.04,-30.78,9.78
13166,-9.38,-3.41,-2.61,0.16,-0.36,-0.63,-31.04,-30.78,9.78
13268,-9.04,-4.80,-0.98,0.40,-0.13,-0.79,-27.84,-32.69,12.19
13279,-9.12,-4.07,-1.21,0.39,-0.02,-0.59,-27.84,-32.69,12.19
13290,-9.12,-4.07,-1.21,0.39,-0.02,-0.59,-27.84,-32.69,12.19
13301,-9.39,-4.51,-0.50,0.23,0.10,-0.41,-27.84,-32.69,12.19
13312,-9.39,-4.51,-0.50,0.23,0.10,-0.41,-27.84,-32.69,12.19
13323,-9.15,-4.47,-0.70,0.02,0.26,-0.22,-27.84,-32.69,12.19
13334,-8.94,-4.31,-0.75,-0.12,0.27,-0.09,-27.84,-32.69,12.19
13345,-8.94,-4.31,-0.75,-0.12,0.27,-0.09,-27.84,-32.69,12.19
13356,-9.18,-4.35,-0.92,-0.14,0.24,-0.03,-27.84,-32.69,12.19
13367,-9.18,-4.35,-0.92,-0.14,0.24,-0.03,-27.84,-32.69,12.19
13378,-9.17,-4.47,-0.57,-0.21,0.32,0.14,-27.84,-32.69,12.19
13389,-9.17,-4.47,-0.57,-0.21,0.32,0.14,-27.84,-32.69,12.19
13400,-9.41,-4.87,-1.16,-0.48,0.41,0.33,-27.84,-33.64,11.85
13502,-8.98,-3.21,-2.27,-0.10,0.22,0.69,-27.84,-33.64,11.85
13512,-8.98,-3.21,-2.27,-0.10,0.22,0.69,-27.84,-33.64,11.85
13523,-9.28,-4.08,-1.02,-0.11,0.15,0.56,-31.44,-31.74,8.06
13534,-9.10,-3.19,-2.28,-0.23,0.20,0.55,-31.44,-31.74,8.06
13545,-9.10,-3.19,-2.28,-0.23,0.20,0.55,-31.44,-31.74,8.06
13556,-9.17,-3.51,-1.67,-0.20,0.15,0.41,-31.44,-31.74,8.06
13567,-9.17,-3.51,-1.67,-0.20,0.15,0.41,-31.44,-31.74,8.06
13578,-9.18,-2.94,-2.04,-0.16,0.12,0.37,-31.44,-31.74,8.06
13589,-9.18,-2.94,-2.04,-0.16,0.12,0.37,-31.44,-31.74,8.06
13600,-9.26,-3.35,-2.30,-0.10,0.11,0.29,-31.44,-31.74,8.06
13611,-9.26,-3.35,-2.30,-0.10,0.11,0.29,-31.44,-31.74,8.06
13622,-9.18,-3.42,-1.84,-0.09,0.05,0.27,-31.44,-31.74,8.06
13633,-9.24,-2.46,-2.28,-0.11,0.05,0.25,-32.85,-29.67,7.89
13749,-9.22,-3.09,-2.29,-0.14,-0.19,0.09,-32.85,-29.67,7.89
13760,-9.42,-3.03,-1.85,-0.06,-0.24,0.05,-32.85,-29.67,7.89
13771,-9.42,-3.03,-1.85,-0.06,-0.24,0.05,-32.85,-29.67,7.89
13782,-9.43,-3.02,-1.52,-0.00,-0.31,-0.01,-33.05,-29.83,7.72
13793,-9.02,-2.61,-1.84,-0.07,-0.33,-0.07,-33.05,-29.83,7.72
13804,-9.02,-2.61,-1.84,-0.07,-0.33,-0.07,-33.05,-29.83,7.72
13815,-9.05,-3.20,-1.82,-0.02,-0.42,-0.18,-33.05,-29.83,7.72
13826,-9.05,-3.20,-1.82,-0.02,-0.42,-0.18,-33.05,-29.83,7.72
13837,-9.19,-2.79,-1.25,-0.00,-0.47,-0.21,-33.05,-29.83,7.72
13848,-9.19,-2.79,-1.25,-0.00,-0.47,-0.21,-33.05,-29.83,7.72
13859,-9.14,-2.79,-1.36,-0.08,-0.44,-0.30,-33.05,-29.83,7.72
13870,-9.14,-2.79,-1.36,-0.08,-0.44,-0.30,-33.05,-29.83,7.72
14000,-9.26,-3.96,-1.58,0.25,-0.20,-0.71,-32.65,-30.78,8.75
14010,-9.26,-3.96,-1.58,0.25,-0.20,-0.71,-32.65,-30.78,8.75
14021,-9.21,-4.24,-1.78,0.32,-0.11,-0.72,-28.24,-33.33,10.47
14032,-9.21,-4.24,-1.78,0.32,-0.11,-0.72,-28.24,-33.33,10.47
14043,-8.71,-4.24,-1.36,0.41,-0.09,-0.72,-28.24,-33.33,10.47
14054,-9.72,-4.28,-1.74,0.44,-0.04,-0.73,-28.24,-33.33,10.47
14065,-9.72,-4.28,-1.74,0.44,-0.04,-0.73,-28.24,-33.33,10.47
14076,-9.38,-4.87,-0.66,0.34,0.02,-0.53,-28.24,-33.33,10.47
14087,-9.38,-4.87,-0.66,0.34,0.02,-0.53,-28.24,-33.33,10.47
14098,-9.35,-4.16,-0.72,0.06,0.12,-0.24,-28.24,-33.33,10.47
14109,-9.35,-4.16,-0.72,0.06,0.12,-0.24,-28.24,-33.33,10.47
14120,-9.19,-5.23,0.42,-0.12,0.27,-0.07,-28.24,-33.33,10.47
14131,-9.19,-5.23,0.42,-0.12,0.27,-0.07,-28.24,-33.33,10.47
14142,-9.14,-4.44,-0.87,-0.37,0.47,0.13,-27.84,-35.55,10.81
14153,-9.14,-4.44,-0.87,-0.37,0.47,0.13,-27.84,-35.55,10.81
14164,-8.86,-4.94,-0.32,-0.42,0.41,0.19,-27.84,-35.55,10.81
14175,-9.17,-4.52,-2.00,-0.51,0.45,0.31,-27.84,-35.55,10.81
14278,-8.89,-4.12,-1.90,-0.15,0.20,0.67,-30.44,-31.90,7.20
14288,-8.89,-4.12,-1.90,-0.15,0.20,0.67,-30.44,-31.90,7.20
14299,-9.22,-3.25,-1.79,-0.02,0.14,0.63,-30.44,-31.90,7.20
14310,-9.22,-3.25,-1.79,-0.02,0.14,0.63,-30.44,-31.90,7.20
14321,-9.13,-2.66,-1.24,0.04,0.08,0.59,-30.44,-31.90,7.20
14332,-9.13,-2.66,-1.24,0.04,0.08,0.59,-30.44,-31.90,7.20
14343,-9.24,-4.06,-2.12,0.01,0.07,0.43,-30.44,-31.90,7.20
14354,-9.11,-2.87,-1.97,-0.05,-0.01,0.40,-30.44,-31.90,7.20
14365,-9.11,-2.87,-1.97,-0.05,-0.01,0.40,-30.44,-31.90,7.20
14376,-9.18,-3.11,-2.11,-0.00,-0.03,0.31,-30.44,-31.90,7.20
14387,-9.18,-3.11,-2.11,-0.00,-0.03,0.31,-30.44,-31.90,7.20
14398,-9.40,-3.57,-1.47,0.04,-0.05,0.28,-32.45,-31.58,7.55
14409,-9.40,-3.57,-1.47,0.04,-0.05,0.28,-32.45,-31.58,7.55
14512,-9.38,-3.17,-1.18,0.03,-0.12,0.17,-32.45,-31.58,7.55
14522,-9.49,-2.95,-1.05,-0.09,-0.06,0.18,-32.85,-28.72,8.23
14533,-9.49,-2.95,-1.05,-0.09,-0.06,0.18,-32.85,-28.72,8.23
14544,-9.64,-2.60,-2.36,-0.22,0.00,0.12,-32.85,-28.72,8.23
14555,-9.63,-2.90,-1.60,-0.13,-0.24,0.05,-32.85,-28.72,8.23
14566,-9.63,-2.90,-1.60,-0.13,-0.24,0.05,-32.85,-28.72,8.23
14577,-9.25,-2.82,-2.03,-0.05,-0.34,-0.00,-32.85,-28.72,8.23
14588,-9.25,-2.82,-2.03,-0.05,-0.34,-0.00,-32.85,-28.72,8.23
14599,-9.49,-2.51,-1.61,-0.02,-0.38,-0.07,-32.85,-28.72,8.23
14610,-9.49,-2.51,-1.61,-0.02,-0.38,-0.07,-32.85,-28.72,8.23
14621,-8.97,-2.96,-1.26,-0.05,-0.46,-0.16,-32.85,-28.72,8.23
14632,-8.97,-2.96,-1.26,-0.05,-0.46,-0.16,-32.85,-28.72,8.23
14643,-9.05,-3.45,-1.13,-0.10,-0.56,-0.31,-32.85,-28.72,8.23
14654,-9.28,-2.94,-0.60,-0.15,-0.66,-0.44,-31.64,-30.63,8.23
14665,-9.28,-2.94,-0.60,-0.15,-0.66,-0.44,-31.64,-30.63,8.23
14676,-9.07,-3.72,-0.44,-0.07,-0.58,-0.48,-31.64,-30.63,8.23
14779,-8.81,-3.99,-2.01,0.39,-0.22,-0.89,-27.63,-32.85,10.99
14789,-8.81,-3.99,-2.01,0.39,-0.22,-0.89,-27.63,-32.85,10.99
14800,-8.81,-4.17,-0.96,0.44,-0.25,-0.92,-27.63,-32.85,10.99
14811,-8.81,-4.17,-0.96,0.44,-0.25,-0.92,-27.63,-32.85,10.99
14822,-9.46,-4.09,-1.84,0.41,-0.19,-0.92,-27.63,-32.85,10.99
14833,-9.46,-4.09,-1.84,0.41,-0.19,-0.92,-27.63,-32.85,10.99
14844,-9.29,-5.06,-0.45,0.53,-0.20,-0.82,-27.63,-32.85,10.99
14855,-9.50,-4.15,-1.39,0.40,0.02,-0.62,-27.63,-32.85,10.99
14967,-9.50,-4.15,-1.39,0.40,0.02,-0.62,-27.63,-32.85,10.99
14968,-9.01,-5.13,-0.63,-0.67,0.53,0.49,-25.23,-34.44,11.67
14978,-8.96,-4.14,-1.89,-0.69,0.52,0.69,-25.23,-34.44,11.67
14989,-8.96,-4.14,-1.89,-0.69,0.52,0.69,-25.23,-34.44,11.67
15000,-8.88,-3.66,-1.22,-0.49,0.44,0.72,-25.23,-34.44,11.67
15011,-8.88,-3.66,-1.22,-0.49,0.44,0.72,-25.23,-34.44,11.67
15022,-8.98,-3.83,-1.86,-0.29,0.37,0.69,-25.23,-34.44,11.67
15033,-8.98,-3.83,-1.86,-0.29,0.37,0.69,-25.23,-34.44,11.67
15044,-9.06,-4.03,-0.76,-0.11,0.24,0.67,-29.84,-33.01,8.41
15055,-9.28,-3.25,-1.81,-0.11,0.25,0.67,-29.84,-33.01,8.41
15066,-9.28,-3.25,-1.81,-0.11,0.25,0.67,-29.84,-33.01,8.41
15077,-9.05,-3.90,-1.20,-0.06,0.18,0.58,-29.84,-33.01,8.41
15088,-9.05,-3.90,-1.20,-0.06,0.18,0.58,-29.84,-33.01,8.41
15099,-9.19,-3.44,-1.06,-0.12,0.14,0.52,-29.84,-33.01,8.41
15110,-9.19,-3.44,-1.06,-0.12,0.14,0.52,-29.84,-33.01,8.41
15121,-9.14,-4.03,-1.03,-0.13,0.13,0.40,-29.84,-33.01,8.41
15132,-9.14,-4.03,-1.03,-0.13,0.13,0.40,-29.84,-33.01,8.41
15234,-9.30,-3.63,-2.27,-0.10,-0.10,0.19,-30.84,-30.63,7.55
15245,-9.42,-2.81,-1.32,-0.10,-0.22,0.22,-30.84,-30.63,7.55
15256,-9.52,-2.59,-0.35,-0.15,-0.24,0.16,-30.84,-30.63,7.55
15267,-9.52,-2.59,-0.35,-0.15,-0.24,0.16,-30.84,-30.63,7.55
15278,-9.57,-3.06,-0.77,-0.21,-0.18,0.08,-33.65,-29.99,7.20
15289,-9.57,-3.06,-0.77,-0.21,-0.18,0.08,-33.65,-29.99,7.20
15300,-9.41,-3.06,-1.94,-0.20,-0.16,0.04,-33.65,-29.99,7.20
15311,-9.41,-3.06,-1.94,-0.20,-0.16,0.04,-33.65,-29.99,7.20
15322,-9.43,-2.80,-1.41,-0.14,-0.33,-0.01,-33.65,-29.99,7.20
15333,-9.43,-2.80,-1.41,-0.14,-0.33,-0.01,-33.65,-29.99,7.20
15344,-9.66,-3.12,-0.51,-0.11,-0.37,-0.04,-33.65,-29.99,7.20
15355,-9.38,-3.00,-1.64,-0.17,-0.32,-0.08,-33.65,-29.99,7.20
15366,-9.38,-3.00,-1.64,-0.17,-0.32,-0.08,-33.65,-29.99,7.20
15470,-9.44,-3.46,-1.27,-0.16,-0.26,-0.12,-31.44,-30.15,7.72
15480,-9.38,-4.15,-0.46,-0.14,-0.26,-0.09,-31.44,-30.15,7.72
15491,-9.38,-4.15,-0.46,-0.14,-0.26,-0.09,-31.44,-30.15,7.72
15502,-9.52,-3.07,-1.02,-0.23,-0.16,-0.00,-31.44,-30.15,7.72
15513,-9.52,-3.07,-1.02,-0.23,-0.16,-0.00,-31.44,-30.15,7.72
15524,-9.57,-2.75,-1.09,-0.24,-0.14,0.02,-31.44,-30.15,7.72
15535,-9.47,-3.06,-0.51,-0.21,-0.13,0.02,-30.64,-30.78,7.37
15546,-9.47,-3.06,-0.51,-0.21,-0.13,0.02,-30.64,-30.78,7.37
15557,-9.31,-2.73,-1.64,-0.17,-0.07,-0.05,-30.64,-30.78,7.37
15568,-9.31,-2.73,-1.64,-0.17,-0.07,-0.05,-30.64,-30.78,7.37
15579,-9.67,-2.16,-1.62,0.01,-0.09,-0.20,-30.64,-30.78,7.37
15590,-9.67,-2.16,-1.62,0.01,-0.09,-0.20,-30.64,-30.78,7.37
15601,-10.19,-3.09,-0.87,0.30,-0.01,-0.50,-30.64,-30.78,7.37
15612,-10.19,-3.09,-0.87,0.30,-0.01,-0.50,-30.64,-30.78,7.37
15623,-12.04,-2.60,0.26,0.14,0.26,-0.56,-30.64,-30.78,7.37
15634,-12.04,-2.60,0.26,0.14,0.26,-0.56,-30.64,-30.78,7.37
15645,-10.13,-2.76,-2.42,-0.17,0.29,-0.69,-30.64,-30.78,7.37
15788,-7.78,-6.28,-2.65,0.88,-1.47,-3.32,-31.84,-32.69,9.09
15798,-7.28,-7.66,-4.08,1.09,-1.59,-3.37,-19.82,-38.73,10.13
15809,-7.28,-7.66,-4.08,1.09,-1.59,-3.37,-19.82,-38.73,10.13
15820,-6.38,-6.92,-5.47,1.34,-2.02,-3.26,-19.82,-38.73,10.13
15831,-6.38,-6.92,-5.47,1.34,-2.02,-3.26,-19.82,-38.73,10.13
15842,-4.25,-5.92,-6.79,3.18,-2.57,-3.15,-19.82,-38.73,10.13
15853,-4.25,-5.92,-6.79,3.18,-2.57,-3.15,-19.82,-38.73,10.13
15864,-3.32,-5.20,-5.64,6.39,-3.32,-2.69,-19.82,-38.73,10.13
15875,-0.66,-4.25,-3.48,9.18,-4.35,-1.92,-19.82,-38.73,10.13
15886,-0.66,-4.25,-3.48,9.18,-4.35,-1.92,-19.82,-38.73,10.13
15897,1.56,2.85,0.10,12.75,-5.12,-0.54,-19.82,-38.73,10.13
15908,1.56,2.85,0.10,12.75,-5.12,-0.54,-19.82,-38.73,10.13
16008,-4.30,17.29,6.29,11.98,1.07,0.51,2.84,-27.45,44.36
16018,-5.05,10.33,8.96,7.34,1.46,-1.89,2.84,-27.45,44.36
16029,-5.05,10.33,8.96,7.34,1.46,-1.89,2.84,-27.45,44.36
16040,-0.09,8.31,4.75,-2.16,2.22,-3.27,11.46,30.85,16.32
16051,-0.09,8.31,4.75,-2.16,2.22,-3.27,11.46,30.85,16.32
16062,0.87,9.40,-1.49,-4.76,3.22,-2.84,11.46,30.85,16.32
16073,0.87,9.40,-1.49,-4.76,3.22,-2.84,11.46,30.85,16.32
16084,-0.87,8.35,-0.51,0.63,3.68,-1.52,11.46,30.85,16.32
16095,-0.87,8.35,-0.51,0.63,3.68,-1.52,11.46,30.85,16.32
16106,-2.05,6.90,1.49,4.19,3.62,-0.83,11.46,30.85,16.32
16117,-3.75,6.74,1.74,3.65,3.59,-0.71,11.46,30.85,16.32
16128,-3.75,6.74,1.74,3.65,3.59,-0.71,11.46,30.85,16.32
16139,-3.59,8.06,0.61,0.98,3.62,-0.50,11.46,30.85,16.32
16242,-3.75,11.57,-3.69,-0.39,2.01,-0.31,-0.77,34.51,14.77
16252,-3.75,11.57,-3.69,-0.39,2.01,-0.31,-0.77,34.51,14.77
16263,-2.97,11.85,-4.04,-0.44,1.59,-0.68,-0.77,34.51,14.77
16274,-2.97,11.85,-4.04,-0.44,1.59,-0.68,-0.77,34.51,14.77
16285,-4.19,9.67,-2.75,0.80,1.22,-1.15,-0.77,34.51,14.77
16296,-5.10,8.16,-2.37,1.70,1.10,-1.16,-6.78,35.14,4.11
16307,-5.10,8.16,-2.37,1.70,1.10,-1.16,-6.78,35.14,4.11
16318,-5.94,8.77,-3.11,1.44,1.14,-0.88,-6.78,35.14,4.11
16329,-5.94,8.77,-3.11,1.44,1.14,-0.88,-6.78,35.14,4.11
16340,-4.66,11.42,-5.51,0.77,1.12,-0.66,-6.78,35.14,4.11
16351,-4.66,11.42,-5.51,0.77,1.12,-0.66,-6.78,35.14,4.11
16362,-5.04,13.48,-7.77,0.87,0.66,-1.02,-6.78,35.14,4.11
16373,-5.04,13.48,-7.77,0.87,0.66,-1.02,-6.78,35.14,4.11
16384,-5.89,14.73,-10.39,0.93,-0.44,-2.06,-6.78,35.14,4.11
16395,-5.89,14.73,-10.39,0.93,-0.44,-2.06,-6.78,35.14,4.11
16406,-4.78,12.87,-10.46,0.83,-2.09,-3.32,-6.78,35.14,4.11
16417,-2.86,9.63,-7.90,-1.28,-3.67,-4.60,-17.81,32.12,0.84
16428,-2.86,9.63,-7.90,-1.28,-3.67,-4.60,-17.81,32.12,0.84
16533,-4.72,0.86,1.05,0.36,-3.21,-3.56,-17.81,32.12,0.84
16543,-5.14,2.45,0.97,2.27,-3.05,-2.51,-33.65,14.49,23.71
16554,-5.14,2.45,0.97,2.27,-3.05,-2.51,-33.65,14.49,23.71
16565,-5.39,1.60,4.27,3.63,-2.87,-1.81,-33.65,14.49,23.71
16576,-7.16,2.38,3.92,1.09,-2.34,-1.92,-33.65,14.49,23.71
16587,-7.16,2.38,3.92,1.09,-2.34,-1.92,-33.65,14.49,23.71
16598,-10.87,1.34,4.43,0.51,-1.74,-1.94,-33.65,14.49,23.71
16609,-10.87,1.34,4.43,0.51,-1.74,-1.94,-33.65,14.49,23.71
16620,-10.61,0.97,5.21,0.28,-1.08,-1.51,-33.65,14.49,23.71
16631,-10.61,0.97,5.21,0.28,-1.08,-1.51,-33.65,14.49,23.71
16642,-8.63,3.29,3.59,-1.12,-0.33,-1.20,-33.65,14.49,23.71
16653,-8.63,3.29,3.59,-1.12,-0.33,-1.20,-33.65,14.49,23.71
16664,-8.29,4.63,1.70,-2.11,0.03,-1.73,-33.65,14.49,23.71
16766,-8.82,-4.48,3.26,-1.04,0.20,-1.34,-36.06,9.72,27.84
16777,-9.49,-2.92,3.30,-0.68,0.32,-0.62,-36.06,9.72,27.84
16788,-9.49,-2.92,3.30,-0.68,0.32,-0.62,-36.06,9.72,27.84
16799,-9.47,-1.64,2.51,-0.50,0.35,-0.40,-39.06,-2.83,30.77
16810,-9.47,-1.64,2.51,-0.50,0.35,-0.40,-39.06,-2.83,30.77
16821,-9.33,-1.72,2.25,-0.22,0.21,-0.53,-39.06,-2.83,30.77
16832,-9.33,-1.72,2.25,-0.22,0.21,-0.53,-39.06,-2.83,30.77
16843,-9.68,-2.91,2.67,-0.03,0.07,-0.59,-39.06,-2.83,30.77
16854,-9.68,-2.91,2.67,-0.03,0.07,-0.59,-39.06,-2.83,30.77
16865,-9.55,-3.77,2.62,0.01,0.04,-0.39,-39.06,-2.83,30.77
16876,-9.16,-3.09,2.33,0.07,-0.02,-0.03,-39.06,-2.83,30.77
16887,-9.16,-3.09,2.33,0.07,-0.02,-0.03,-39.06,-2.83,30.77
16898,-8.95,-1.79,2.85,0.17,-0.11,0.18,-39.06,-2.83,30.77
16909,-8.95,-1.79,2.85,0.17,-0.11,0.18,-39.06,-2.83,30.77
16920,-9.12,-1.35,3.72,0.08,-0.06,0.12,-39.86,-4.41,30.08
16931,-9.12,-1.35,3.72,0.08,-0.06,0.12,-39.86,-4.41,30.08
16942,-9.14,-1.31,3.83,-0.20,0.21,0.03,-39.86,-4.41,30.08
17045,-2.07,0.44,0.76,0.33,1.27,7.30,-39.86,-4.41,30.08
17055,-2.07,0.44,0.76,0.33,1.27,7.30,-39.86,-4.41,30.08
17066,-0.90,1.38,1.30,1.40,1.48,9.22,-37.86,7.66,22.85
17077,-2.85,3.86,0.07,1.24,1.71,10.07,-37.86,7.66,22.85
17088,-2.85,3.86,0.07,1.24,1.71,10.07,-37.86,7.66,22.85
17099,2.36,6.67,-1.13,2.49,2.01,10.56,-37.86,7.66,22.85
17110,2.36,6.67,-1.13,2.49,2.01,10.56,-37.86,7.66,22.85
17121,-1.42,10.08,-1.01,5.65,3.33,10.64,-37.86,7.66,22.85
17132,-1.42,10.08,-1.01,5.65,3.33,10.64,-37.86,7.66,22.85
17143,-3.65,17.15,-4.98,8.53,5.18,9.59,-37.86,7.66,22.85
17154,-3.65,17.15,-4.98,8.53,5.18,9.59,-37.86,7.66,22.85
17165,-2.39,19.40,-5.74,13.00,6.59,6.99,-37.86,7.66,22.85
17176,-2.39,19.40,-5.74,13.00,6.59,6.99,-37.86,7.66,22.85
17278,0.48,-3.16,-12.03,3.63,-0.17,-4.11,6.65,31.49,-15.33
17289,0.48,-3.16,-12.03,3.63,-0.17,-4.11,6.65,31.49,-15.33
17300,-0.85,-3.20,-9.77,3.91,-0.90,-3.54,-1.57,10.36,-38.55
17311,-0.85,-3.20,-9.77,3.91,-0.90,-3.54,-1.57,10.36,-38.55
17322,-1.31,-3.46,-8.26,3.52,-0.92,-2.99,-1.57,10.36,-38.55
17333,-1.31,-3.46,-8.26,3.52,-0.92,-2.99,-1.57,10.36,-38.55
17344,-2.38,-1.59,-12.43,2.55,-0.67,-2.79,-1.57,10.36,-38.55
17355,-2.38,-1.59,-12.43,2.55,-0.67,-2.79,-1.57,10.36,-38.55
17366,-0.07,-2.31,-11.18,2.10,-0.70,-2.96,-1.57,10.36,-38.55
17377,-1.17,-3.91,-7.96,1.80,-0.74,-3.20,-1.57,10.36,-38.55
17388,-1.17,-3.91,-7.96,1.80,-0.74,-3.20,-1.57,10.36,-38.55
17399,-1.99,-5.04,-6.87,1.47,-0.49,-3.08,-1.57,10.36,-38.55
17410,-1.99,-5.04,-6.87,1.47,-0.49,-3.08,-1.57,10.36,-38.55
17516,-1.17,-1.55,-8.06,2.58,1.11,-1.60,-4.38,-2.98,-38.21
17527,-0.39,-4.63,-8.64,5.80,0.63,-1.59,-4.38,-2.98,-38.21
17538,-0.95,-9.91,-4.85,3.69,-0.70,-1.37,-4.38,-2.98,-38.21
17549,-0.95,-9.91,-4.85,3.69,-0.70,-1.37,-4.38,-2.98,-38.21
17560,0.10,-6.74,-7.35,0.23,-0.33,-0.53,-2.57,-16.17,-36.66
17571,0.10,-6.74,-7.35,0.23,-0.33,-0.53,-2.57,-16.17,-36.66
17582,0.06,-5.95,-8.19,0.07,-0.12,-0.08,-2.57,-16.17,-36.66
17593,0.06,-5.95,-8.19,0.07,-0.12,-0.08,-2.57,-16.17,-36.66
17604,0.14,-6.08,-7.99,0.05,0.02,0.05,-2.57,-16.17,-36.66
17615,0.14,-6.08,-7.99,0.05,0.02,0.05,-2.57,-16.17,-36.66
17626,-0.01,-5.74,-8.24,0.07,0.08,0.13,-2.57,-16.17,-36.66
17637,-0.21,-5.36,-8.51,0.04,0.04,0.08,-2.57,-16.17,-36.66
17648,-0.21,-5.36,-8.51,0.04,0.04,0.08,-2.57,-16.17,-36.66
17659,0.92,-4.88,-8.66,0.07,-0.10,-0.01,-2.57,-16.17,-36.66
17670,0.92,-4.88,-8.66,0.07,-0.10,-0.01,-2.57,-16.17,-36.66
17681,0.79,-7.21,-7.13,0.47,-0.42,0.38,-2.77,-16.33,-36.49
17692,0.79,-7.21,-7.13,0.47,-0.42,0.38,-2.77,-16.33,-36.49
17796,-0.48,-6.05,-8.62,-0.14,0.07,-0.06,-2.77,-16.33,-36.49
17806,-0.57,-6.17,-8.24,0.12,-0.09,0.06,-5.78,-17.76,-34.94
17817,-1.15,-6.50,-6.88,0.19,-0.12,0.08,-5.78,-17.76,-34.94
17828,-1.15,-6.50,-6.88,0.19,-0.12,0.08,-5.78,-17.76,-34.94
17839,-0.81,-6.15,-7.95,-0.12,0.04,-0.05,-5.78,-17.76,-34.94
17850,-0.81,-6.15,-7.95,-0.12,0.04,-0.05,-5.78,-17.76,-34.94
17861,-0.63,-6.12,-8.27,-0.15,-0.04,-0.22,-5.78,-17.76,-34.94
17872,-0.63,-6.12,-8.27,-0.15,-0.04,-0.22,-5.78,-17.76,-34.94
17883,-0.52,-6.34,-7.91,-0.03,-0.24,-0.30,-5.78,-17.76,-34.94
17894,-0.52,-6.34,-7.91,-0.03,-0.24,-0.30,-5.78,-17.76,-34.94
17905,-1.22,-6.73,-6.67,0.19,-0.24,-0.06,-5.78,-17.76,-34.94
17916,-1.22,-6.73,-6.67,0.19,-0.24,-0.06,-5.78,-17.76,-34.94
18016,-0.75,-6.26,-7.85,-0.02,0.02,-0.02,-6.38,-19.19,-34.43
18026,-0.77,-6.26,-7.82,-0.01,0.01,-0.02,-6.38,-19.19,-34.43
18037,-0.77,-6.26,-7.82,-0.01,0.01,-0.02,-6.38,-19.19,-34.43
18048,-0.77,-6.27,-7.83,-0.01,0.01,-0.02,-6.38,-19.19,-34.43
18059,-0.75,-6.27,-7.83,-0.01,0.01,-0.02,-7.59,-17.60,-35.80
18070,-0.75,-6.27,-7.83,-0.01,0.01,-0.02,-7.59,-17.60,-35.80
18081,-0.74,-6.28,-7.86,-0.01,0.01,-0.02,-7.59,-17.60,-35.80
18092,-0.74,-6.28,-7.86,-0.01,0.01,-0.02,-7.59,-17.60,-35.80
18103,-0.74,-6.26,-7.84,-0.01,0.01,-0.01,-7.59,-17.60,-35.80
18114,-0.74,-6.26,-7.84,-0.01,0.01,-0.01,-7.59,-17.60,-35.80
18125,-0.75,-6.27,-7.85,-0.01,0.01,-0.01,-7.59,-17.60,-35.80
18136,-0.75,-6.27,-7.85,-0.01,0.01,-0.01,-7.59,-17.60,-35.80
18147,-0.75,-6.26,-7.87,-0.01,0.01,-0.01,-7.59,-17.60,-35.80
18158,-0.75,-6.27,-7.85,-0.01,0.01,-0.01,-7.59,-17.60,-35.80
18169,-0.75,-6.27,-7.85,-0.01,0.01,-0.01,-7.59,-17.60,-35.80
18180,-0.72,-6.26,-7.86,-0.01,0.01,-0.01,-6.78,-19.19,-34.08
18191,-0.72,-6.26,-7.86,-0.01,0.01,-0.01,-6.78,-19.19,-34.08
18293,-0.72,-6.25,-7.87,-0.01,0.01,-0.01,-6.78,-19.19,-34.08
18304,-0.68,-6.24,-7.87,-0.01,0.01,-0.01,-6.78,-19.19,-34.08
18315,-0.68,-6.24,-7.87,-0.01,0.01,-0.01,-6.78,-19.19,-34.08
18326,-0.99,-6.29,-7.62,0.10,-0.06,0.04,-7.59,-18.87,-33.74
18337,-0.99,-6.29,-7.62,0.10,-0.06,0.04,-7.59,-18.87,-33.74
18348,-0.57,-6.18,-8.19,-0.03,0.01,-0.01,-7.59,-18.87,-33.74
18359,-0.89,-6.33,-7.64,0.06,-0.02,0.01,-7.59,-18.87,-33.74
18370,-0.89,-6.33,-7.64,0.06,-0.02,0.01,-7.59,-18.87,-33.74
18381,-0.65,-6.19,-8.18,-0.11,0.06,-0.05,-7.59,-18.87,-33.74
18392,-0.65,-6.19,-8.18,-0.11,0.06,-0.05,-7.59,-18.87,-33.74
18403,-0.57,-6.20,-8.06,-0.07,0.05,-0.05,-7.59,-18.87,-33.74
18414,-0.57,-6.20,-8.06,-0.07,0.05,-0.05,-7.59,-18.87,-33.74
18516,-0.71,-6.23,-7.89,-0.01,0.01,-0.01,-6.18,-16.49,-33.22
18527,-0.74,-6.25,-7.88,-0.01,0.01,-0.01,-6.18,-16.49,-33.22
18538,-0.94,-5.96,-8.65,-0.01,-0.03,0.02,-6.18,-16.49,-33.22
18549,-0.94,-5.96,-8.65,-0.01,-0.03,0.02,-6.18,-16.49,-33.22
18560,-0.84,-6.42,-7.26,0.02,-0.01,-0.01,-6.38,-17.92,-35.11
18571,-0.84,-6.42,-7.26,0.02,-0.01,-0.01,-6.38,-17.92,-35.11
18582,-0.53,-6.12,-8.30,-0.16,0.07,-0.07,-6.38,-17.92,-35.11
18593,-0.53,-6.12,-8.30,-0.16,0.07,-0.07,-6.38,-17.92,-35.11
18604,-1.44,-6.34,-8.09,0.01,-0.05,-0.04,-6.38,-17.92,-35.11
18615,-1.44,-6.34,-8.09,0.01,-0.05,-0.04,-6.38,-17.92,-35.11
18626,-2.56,-6.65,-6.37,0.15,-0.38,-0.28,-6.38,-17.92,-35.11
18637,-2.56,-6.65,-6.37,0.15,-0.38,-0.28,-6.38,-17.92,-35.11
18648,1.14,-4.71,-8.74,-0.20,-0.47,-0.65,-6.38,-17.92,-35.11
18659,-0.46,-5.84,-7.26,-0.09,-0.41,-0.41,-6.38,-17.92,-35.11
18670,-0.46,-5.84,-7.26,-0.09,-0.41,-0.41,-6.38,-17.92,-35.11
18681,-0.71,-5.69,-8.31,-0.33,-0.21,-0.40,-6.38,-17.92,-35.11
18692,-0.71,-5.69,-8.31,-0.33,-0.21,-0.40,-6.38,-17.92,-35.11
18796,1.96,-3.73,-9.01,-3.41,-2.63,-3.99,-6.18,-17.44,-35.63
18807,1.50,-5.29,-8.27,-2.31,-2.05,-3.71,-6.18,-17.44,-35.63
18818,-0.36,-7.76,-7.26,-1.88,-1.18,-2.49,-13.80,-17.44,-35.63
18829,-0.36,-7.76,-7.26,-1.88,-1.18,-2.49,-13.80,-14.90,-33.57
18840,-1.50,-6.74,-6.42,-3.81,-0.28,-1.03,-13.80,-14.90,-33.57
18851,-1.50,-6.74,-6.42,-3.81,-0.28,-1.03,-13.80,-14.90,-33.57
18862,0.14,-3.72,-7.41,-6.50,0.49,-0.20,-13.80,-14.90,-33.57
18873,0.14,-3.72,-7.41,-6.50,0.49,-0.20,-13.80,-14.90,-33.57
18884,-1.30,0.48,-7.40,-9.93,0.66,-0.51,-13.80,-14.90,-33.57
18895,-1.30,0.48,-7.40,-9.93,0.66,-0.51,-13.80,-14.90,-33.57
18906,-1.96,7.53,-13.82,-11.20,0.90,-1.50,-13.80,-14.90,-33.57
18917,-1.96,7.53,-13.82,-11.20,0.90,-1.50,-13.80,-14.90,-33.57
19019,0.23,6.81,-8.27,-3.04,0.13,-1.37,-12.40,11.63,-33.05
19029,0.23,6.81,-8.27,-3.04,0.13,-1.37,-12.40,11.63,-33.05
19040,0.59,6.87,-7.54,-4.12,-0.16,-0.93,-12.40,11.63,-33.05
19051,0.59,6.87,-7.54,-4.12,-0.16,-0.93,-12.40,11.63,-33.05
19062,-0.29,7.47,-8.63,-3.05,-0.48,-0.34,-12.40,11.63,-33.05
19073,-0.29,7.47,-8.63,-3.05,-0.48,-0.34,-12.40,11.63,-33.05
19084,-0.18,6.86,-7.92,0.71,-0.61,0.64,-13.40,23.86,-19.80
19095,-0.18,6.86,-7.92,0.71,-0.61,0.64,-13.40,23.86,-19.80
19106,-0.23,7.79,-6.57,2.40,-0.74,1.03,-13.40,23.86,-19.80
19117,-0.23,7.79,-6.57,2.40,-0.74,1.03,-13.40,23.86,-19.80
19128,0.20,8.14,-6.33,2.48,-0.39,0.60,-13.40,23.86,-19.80
19139,0.08,6.82,-8.03,2.65,0.22,-0.08,-13.40,23.86,-19.80
19155,0.08,6.82,-8.03,2.65,0.22,-0.08,-13.40,23.86,-19.80
19161,0.21,3.60,-8.66,1.87,0.27,-0.54,-13.40,23.86,-19.80
19172,0.21,3.60,-8.66,1.87,0.27,-0.54,-13.40,23.86,-19.80
19183,0.40,6.07,-8.57,-0.67,-0.15,-0.30,-13.40,23.86,-19.80
19194,0.40,6.07,-8.57,-0.67,-0.15,-0.30,-13.40,23.86,-19.80
19297,-0.35,6.42,-8.27,1.44,0.89,0.24,-13.20,20.53,-24.45
19307,-0.05,6.31,-8.26,0.16,0.30,-0.26,-13.20,20.53,-24.45
19318,-0.05,6.31,-8.26,0.16,0.30,-0.26,-13.20,20.53,-24.45
19329,-0.54,6.57,-7.75,-0.29,-0.05,-0.32,-17.81,19.73,-25.31
19340,-0.44,6.31,-8.15,0.19,0.28,-0.12,-17.81,19.73,-25.31
19351,-0.44,6.31,-8.15,0.19,0.28,-0.12,-17.81,19.73,-25.31
19362,-0.59,6.24,-8.19,0.03,0.22,-0.23,-17.81,19.73,-25.31
19373,-0.59,6.24,-8.19,0.03,0.22,-0.23,-17.81,19.73,-25.31
19384,-1.36,6.49,-7.82,-0.15,0.08,-0.27,-17.81,19.73,-25.31
19395,-1.36,6.49,-7.82,-0.15,0.08,-0.27,-17.81,19.73,-25.31
19406,-1.30,6.39,-7.89,0.07,0.10,-0.08,-17.81,19.73,-25.31
19417,-1.30,6.39,-7.89,0.07,0.10,-0.08,-17.81,19.73,-25.31
19428,0.90,6.41,-8.00,0.12,0.02,0.09,-17.81,19.73,-25.31
19570,-0.22,6.33,-8.12,0.09,-0.03,0.13,-16.41,19.57,-24.79
19580,-0.35,6.25,-8.14,-0.01,-0.07,0.05,-18.41,18.30,-23.42
19591,-0.35,6.25,-8.14,-0.01,-0.07,0.05,-18.41,18.30,-23.42
19602,-0.43,6.37,-8.05,0.01,-0.03,0.03,-18.41,18.30,-23.42
19613,-0.43,6.37,-8.05,0.01,-0.03,0.03,-18.41,18.30,-23.42
19624,-0.54,6.46,-7.93,-0.02,-0.05,0.03,-18.41,18.30,-23.42
19635,-0.54,6.46,-7.93,-0.02,-0.05,0.03,-18.41,18.30,-23.42
19646,-0.09,6.12,-8.24,0.04,-0.03,0.06,-18.41,18.30,-23.42
19657,-0.09,6.12,-8.24,0.04,-0.03,0.06,-18.41,18.30,-23.42
19668,-0.34,6.33,-8.08,0.01,-0.00,0.01,-18.41,18.30,-23.42
19679,-0.43,6.37,-8.00,-0.02,-0.01,-0.01,-18.41,18.30,-23.42
19690,-0.43,6.37,-8.00,-0.02,-0.01,-0.01,-18.41,18.30,-23.42
19792,-0.41,6.35,-8.06,0.00,0.00,-0.01,-17.41,19.41,-25.65
19802,-0.41,6.34,-8.02,0.00,0.00,-0.01,-17.41,19.41,-25.65
19813,-0.41,6.34,-8.02,0.00,0.00,-0.01,-17.41,19.41,-25.65
19824,-0.40,6.35,-8.04,0.00,0.00,-0.01,-16.41,19.26,-24.10
19840,-0.40,6.35,-8.04,0.00,0.00,-0.01,-16.41,19.26,-24.10
19846,-0.40,6.37,-8.03,0.00,0.00,-0.01,-16.41,19.26,-24.10
19857,-0.40,6.37,-8.03,0.00,0.00,-0.01,-16.41,19.26,-24.10
19868,-0.40,6.37,-8.01,0.00,0.00,-0.01,-16.41,19.26,-24.10
19879,-0.41,6.34,-8.05,0.00,0.00,-0.01,-16.41,19.26,-24.10
19890,-0.41,6.34,-8.05,0.00,0.00,-0.01,-16.41,19.26,-24.10
19901,-0.39,6.32,-8.06,0.00,0.00,-0.01,-16.41,19.26,-24.10
19912,-0.39,6.32,-8.06,0.00,0.00,-0.01,-16.41,19.26,-24.10
19923,-0.49,6.44,-8.07,0.03,0.05,-0.02,-16.41,19.26,-24.10
19934,-0.49,6.44,-8.07,0.03,0.05,-0.02,-16.41,19.26,-24.10
19945,-0.62,6.58,-7.79,-0.08,0.03,-0.13,-16.41,19.26,-24.10
19956,-0.62,6.58,-7.79,-0.08,0.03,-0.13,-16.41,19.26,-24.10
19967,-0.36,6.34,-8.10,0.06,0.06,-0.01,-16.81,18.94,-25.48
20071,-0.49,6.33,-8.08,0.02,-0.03,0.04,-16.81,18.94,-25.48
20081,-0.44,6.35,-8.07,-0.01,-0.01,-0.01,-15.81,19.10,-25.65
20092,-0.44,6.35,-8.07,-0.01,-0.01,-0.01,-15.81,19.10,-25.65
20103,-0.38,6.33,-8.04,0.01,0.00,-0.01,-15.81,19.10,-25.65
20114,-0.38,6.33,-8.04,0.01,0.00,-0.01,-15.81,19.10,-25.65
20125,-0.39,6.35,-8.06,0.00,0.00,-0.01,-15.81,19.10,-25.65
20136,-0.39,6.35,-8.06,0.00,0.00,-0.01,-15.81,19.10,-25.65
20147,-0.40,6.36,-8.02,0.00,0.00,-0.01,-15.81,19.10,-25.65
20158,-0.40,6.36,-8.02,0.00,0.00,-0.01,-15.81,19.10,-25.65
20169,-0.41,6.35,-8.05,0.00,0.00,-0.01,-15.81,19.10,-25.65
20180,-0.40,6.34,-8.07,0.00,0.00,-0.01,-15.81,19.10,-25.65
20191,-0.40,6.34,-8.07,0.00,0.00,-0.01,-15.81,19.10,-25.65
20202,-0.40,6.33,-8.05,0.00,0.00,-0.01,-18.01,18.30,-26.17
20304,-0.39,6.33,-8.05,0.00,0.00,-0.01,-18.01,18.30,-26.17
20314,-0.39,6.33,-8.05,0.00,0.00,-0.01,-18.01,18.30,-26.17
20325,-0.38,6.36,-8.02,0.00,0.00,-0.01,-18.01,18.30,-26.17
20336,-0.38,6.36,-8.02,0.00,0.00,-0.01,-18.01,18.30,-26.17
20347,-0.41,6.37,-8.03,0.00,0.00,-0.01,-16.41,19.26,-23.42
20358,-0.41,6.37,-8.03,0.00,0.00,-0.01,-16.41,19.26,-23.42
20369,-0.41,6.36,-8.04,0.00,0.00,-0.01,-16.41,19.26,-23.42
20380,-0.40,6.34,-8.04,0.00,0.00,-0.01,-16.41,19.26,-23.42
20391,-0.40,6.34,-8.04,0.00,0.00,-0.01,-16.41,19.26,-23.42
20402,-0.38,6.35,-8.03,0.00,0.00,-0.01,-16.41,19.26,-23.42
20413,-0.38,6.35,-8.03,0.00,0.00,-0.01,-16.41,19.26,-23.42
20424,-0.38,6.35,-8.03,0.00,0.00,-0.01,-16.41,19.26,-23.42
20435,-0.38,6.35,-8.03,0.00,0.00,-0.01,-16.41,19.26,-23.42
20446,-0.40,6.36,-8.02,0.00,0.00,-0.01,-16.41,19.26,-23.42
20457,-0.40,6.36,-8.02,0.00,0.00,-0.01,-16.41,19.26,-23.42
20468,-0.41,6.34,-8.05,0.00,0.00,-0.01,-16.21,19.73,-26.34
20479,-0.41,6.34,-8.05,0.00,0.00,-0.01,-16.21,19.73,-26.34
20581,-0.96,6.20,-8.22,0.01,-0.58,0.72,-15.40,20.05,-24.28
20591,-0.96,6.20,-8.22,0.01,-0.58,0.72,-15.40,20.05,-24.28
20602,-0.83,6.29,-8.17,0.03,-0.52,0.53,-15.40,20.05,-24.28
20613,-0.83,6.29,-8.17,0.03,-0.52,0.53,-15.40,20.05,-24.28
20624,-0.92,6.59,-7.79,0.00,-0.22,0.07,-15.40,20.05,-24.28
20635,-0.92,6.59,-7.79,0.00,-0.22,0.07,-15.40,20.05,-24.28
20646,-0.08,6.36,-8.08,0.00,0.18,-0.23,-15.40,20.05,-24.28
20657,-0.08,6.36,-8.08,0.00,0.18,-0.23,-15.40,20.05,-24.28
20668,-0.19,5.98,-8.35,-0.03,0.47,-0.62,-15.40,20.05,-24.28
20679,-0.19,5.98,-8.35,-0.03,0.47,-0.62,-15.40,20.05,-24.28
20690,-0.84,6.36,-8.03,-0.05,0.58,-0.76,-15.40,20.05,-24.28
20701,-1.05,6.52,-7.90,0.05,0.19,-0.24,-16.61,18.78,-24.96
20712,-1.05,6.52,-7.90,0.05,0.19,-0.24,-16.61,18.78,-24.96
20814,-0.27,6.08,-8.27,0.06,0.26,-0.29,-16.61,18.78,-24.96
20824,-0.43,6.37,-8.01,0.09,-0.08,0.10,-16.61,18.78,-24.96
20835,-0.43,6.37,-8.01,0.09,-0.08,0.10,-16.61,18.78,-24.96
20846,0.33,6.34,-8.05,0.04,-0.08,0.03,-16.81,18.30,-26.51
20857,0.33,6.34,-8.05,0.04,-0.08,0.03,-16.81,18.30,-26.51
20868,-0.82,6.25,-8.11,0.02,-0.01,0.06,-16.81,18.30,-26.51
20879,-0.82,6.25,-8.11,0.02,-0.01,0.06,-16.81,18.30,-26.51
20890,-0.74,6.29,-8.08,-0.00,-0.01,0.09,-16.81,18.30,-26.51
20901,-0.43,6.35,-8.05,0.00,-0.08,0.13,-16.81,18.30,-26.51
20912,-0.43,6.35,-8.05,0.00,-0.08,0.13,-16.81,18.30,-26.51
20923,-0.61,6.26,-8.09,0.00,-0.09,0.12,-16.81,18.30,-26.51
20934,-0.61,6.26,-8.09,0.00,-0.09,0.12,-16.81,18.30,-26.51
20945,-0.41,6.32,-8.08,-0.01,-0.01,0.02,-16.81,18.30,-26.51
21044,-0.15,5.89,-8.39,0.00,0.03,-0.06,-17.81,18.14,-25.31
21054,-0.15,5.89,-8.39,0.00,0.03,-0.06,-17.81,18.14,-25.31
21065,-0.37,6.31,-8.11,0.04,0.12,-0.19,-17.81,18.14,-25.31
21076,-0.37,6.31,-8.11,0.04,0.12,-0.19,-17.81,18.14,-25.31
21087,-0.62,6.38,-8.04,0.02,0.15,-0.18,-18.01,17.03,-26.86
21098,-0.62,6.38,-8.04,0.02,0.15,-0.18,-18.01,17.03,-26.86
21109,-0.31,6.22,-8.15,-0.00,0.04,-0.02,-18.01,17.03,-26.86
21120,-0.31,6.22,-8.15,-0.00,0.04,-0.02,-18.01,17.03,-26.86
21131,-0.30,6.35,-8.11,0.04,-0.06,0.08,-18.01,17.03,-26.86
21142,-0.06,6.34,-8.10,0.09,-0.14,0.12,-18.01,17.03,-26.86
21153,-0.06,6.34,-8.10,0.09,-0.14,0.12,-18.01,17.03,-26.86
21164,-0.80,6.23,-8.13,0.12,-0.26,0.30,-18.01,17.03,-26.86
21175,-0.80,6.23,-8.13,0.12,-0.26,0.30,-18.01,17.03,-26.86
21186,-0.54,6.21,-8.17,0.05,-0.17,0.19,-18.01,17.03,-26.86
21197,-0.54,6.21,-8.17,0.05,-0.17,0.19,-18.01,17.03,-26.86
21208,-0.45,6.27,-8.13,-0.02,-0.02,0.08,-18.01,17.03,-26.86
21219,-0.45,6.27,-8.13,-0.02,-0.02,0.08,-18.01,17.03,-26.86
