time,ax,ay,az,gx,gy,gz,mx,my,mz
402,0.23,6.85,-7.98,0.02,-0.00,0.03,-48.94,21.25,-24.99
412,0.23,6.85,-7.98,0.02,-0.00,0.03,-48.94,21.25,-24.99
423,-1.44,6.37,-8.04,-0.02,-0.07,0.04,-48.94,21.25,-24.99
434,-1.44,6.37,-8.04,-0.02,-0.07,0.04,-48.94,21.25,-24.99
445,-0.55,6.37,-8.07,0.02,0.00,0.01,-48.94,21.25,-24.99
456,-0.55,6.37,-8.07,0.02,0.00,0.01,-48.94,21.25,-24.99
467,-0.51,6.39,-8.00,-0.00,-0.00,-0.01,-47.65,19.92,-23.28
478,-0.51,6.39,-8.00,-0.00,-0.00,-0.01,-47.65,19.92,-23.28
489,-0.50,6.38,-7.99,0.00,0.00,-0.01,-47.65,19.92,-23.28
500,-0.50,6.38,-7.99,0.00,0.00,-0.01,-47.65,19.92,-23.28
511,-0.49,6.38,-8.02,0.00,0.00,-0.01,-47.65,19.92,-23.28
522,-0.52,6.39,-7.99,-0.00,-0.00,-0.01,-47.65,19.92,-23.28
533,-0.52,6.39,-7.99,-0.00,-0.00,-0.01,-47.65,19.92,-23.28
544,-0.52,6.39,-7.99,-0.00,0.00,-0.01,-47.65,19.92,-23.28
555,-0.52,6.39,-7.99,-0.00,0.00,-0.01,-47.65,19.92,-23.28
566,-0.50,6.38,-8.00,0.00,0.00,-0.01,-47.65,19.92,-23.28
577,-0.50,6.38,-8.00,0.00,0.00,-0.01,-47.65,19.92,-23.28
588,-0.51,6.38,-8.05,-0.00,0.00,-0.01,-50.48,20.95,-23.13
599,-0.51,6.38,-8.05,-0.00,0.00,-0.01,-50.48,20.95,-23.13
610,-0.53,6.38,-8.02,0.00,0.00,-0.01,-50.48,20.95,-23.13
621,-0.53,6.38,-8.01,-0.00,0.00,-0.01,-50.48,20.95,-23.13
632,-0.53,6.38,-8.01,-0.00,0.00,-0.01,-50.48,20.95,-23.13
643,-0.52,6.38,-8.00,-0.00,-0.00,-0.01,-50.48,20.95,-23.13
654,-0.52,6.38,-8.00,-0.00,-0.00,-0.01,-50.48,20.95,-23.13
665,-0.51,6.38,-7.98,-0.00,0.00,-0.01,-50.48,20.95,-23.13
676,-0.51,6.38,-7.98,-0.00,0.00,-0.01,-50.48,20.95,-23.13
687,-0.51,6.37,-8.01,-0.00,0.00,-0.01,-50.48,20.95,-23.13
698,-0.51,6.37,-8.01,-0.00,0.00,-0.01,-50.48,20.95,-23.13
709,-0.52,6.37,-7.99,-0.00,-0.00,-0.01,-48.42,21.54,-24.37
720,-0.52,6.37,-7.99,-0.00,-0.00,-0.01,-48.42,21.54,-24.37
731,-0.53,6.39,-8.01,-0.00,0.00,-0.01,-48.42,21.54,-24.37
742,-0.51,6.37,-7.99,0.00,0.00,-0.01,-48.42,21.54,-24.37
753,-0.51,6.37,-7.99,0.00,0.00,-0.01,-48.42,21.54,-24.37
764,-0.50,6.37,-7.99,0.00,0.00,-0.01,-48.42,21.54,-24.37
775,-0.50,6.37,-7.99,0.00,0.00,-0.01,-48.42,21.54,-24.37
786,-0.50,6.39,-7.97,-0.00,0.00,-0.01,-48.42,21.54,-24.37
797,-0.50,6.39,-7.97,-0.00,0.00,-0.01,-48.42,21.54,-24.37
808,-0.50,6.39,-7.99,-0.00,0.00,-0.01,-48.42,21.54,-24.37
819,-0.50,6.39,-7.99,-0.00,0.00,-0.01,-48.42,21.54,-24.37
830,-0.52,6.39,-8.00,-0.00,0.00,-0.01,-48.42,21.54,-24.37
841,-0.52,6.39,-8.00,-0.00,0.00,-0.01,-48.42,21.54,-24.37
852,-0.51,6.40,-8.02,-0.00,0.00,-0.01,-46.88,21.25,-23.75
863,-0.51,6.37,-8.03,-0.00,0.00,-0.01,-46.88,21.25,-23.75
874,-0.51,6.37,-8.03,-0.00,0.00,-0.01,-46.88,21.25,-23.75
885,-0.52,6.38,-8.00,-0.00,0.00,-0.01,-46.88,21.25,-23.75
896,-0.52,6.38,-8.00,-0.00,0.00,-0.01,-46.88,21.25,-23.75
907,-0.51,6.38,-7.99,-0.00,0.00,-0.01,-46.88,21.25,-23.75
918,-0.51,6.38,-7.99,-0.00,0.00,-0.01,-46.88,21.25,-23.75
929,-0.51,6.39,-8.00,-0.00,0.00,-0.01,-46.88,21.25,-23.75
940,-0.51,6.39,-8.00,-0.00,0.00,-0.01,-46.88,21.25,-23.75
951,-0.51,6.36,-8.01,-0.00,0.00,-0.01,-46.88,21.25,-23.75
962,-0.51,6.39,-8.02,-0.00,0.00,-0.01,-49.71,21.39,-23.28
973,-0.51,6.39,-8.02,-0.00,0.00,-0.01,-49.71,21.39,-23.28
984,-0.51,6.37,-8.00,-0.00,0.00,-0.01,-49.71,21.39,-23.28
996,-0.51,6.37,-8.00,-0.00,0.00,-0.01,-49.71,21.39,-23.28
1006,-0.52,6.39,-8.03,-0.00,-0.00,-0.01,-49.71,21.39,-23.28
1017,-0.52,6.39,-8.03,-0.00,-0.00,-0.01,-49.71,21.39,-23.28
1028,-0.50,6.39,-7.98,-0.00,0.00,-0.01,-49.71,21.39,-23.28
1039,-0.50,6.39,-7.98,-0.00,0.00,-0.01,-49.71,21.39,-23.28
1050,-0.50,6.38,-8.00,-0.00,0.00,-0.01,-49.71,21.39,-23.28
1061,-0.50,6.38,-8.00,-0.00,0.00,-0.01,-49.71,21.39,-23.28
1072,-0.50,6.38,-8.00,-0.00,0.00,-0.01,-49.71,21.39,-23.28
1083,-0.51,6.38,-7.99,-0.00,0.00,-0.01,-49.19,21.39,-24.21
1094,-0.51,6.38,-7.99,-0.00,0.00,-0.01,-49.19,21.39,-24.21
1105,-0.51,6.37,-8.02,-0.00,0.00,-0.01,-49.19,21.39,-24.21
1116,-0.51,6.37,-8.02,-0.00,0.00,-0.01,-49.19,21.39,-24.21
1127,-0.50,6.39,-8.01,-0.00,0.00,-0.01,-49.19,21.39,-24.21
1138,-0.50,6.39,-8.01,-0.00,0.00,-0.01,-49.19,21.39,-24.21
1149,-0.49,6.37,-8.00,-0.00,-0.00,-0.01,-49.19,21.39,-24.21
1160,-0.49,6.37,-8.00,-0.00,-0.00,-0.01,-49.19,21.39,-24.21
1171,-0.51,6.38,-7.99,-0.00,0.00,-0.01,-49.19,21.39,-24.21
1182,-0.52,6.38,-8.02,-0.00,0.00,-0.01,-49.19,21.39,-24.21
1193,-0.52,6.38,-8.02,-0.00,0.00,-0.01,-49.19,21.39,-24.21
1204,-0.51,6.38,-8.02,-0.00,0.00,-0.01,-49.19,21.39,-24.21
1215,-0.51,6.38,-8.02,-0.00,0.00,-0.01,-49.19,21.39,-24.21
1227,-0.52,6.39,-8.01,-0.00,0.00,-0.01,-47.40,21.25,-23.13
1237,-0.52,6.39,-8.01,-0.00,0.00,-0.01,-47.40,21.25,-23.13
1248,-0.52,6.40,-8.00,-0.00,0.00,-0.01,-47.40,21.25,-23.13
1259,-0.52,6.40,-8.00,-0.00,0.00,-0.01,-47.40,21.25,-23.13
1270,-0.51,6.39,-7.99,-0.00,0.00,-0.01,-47.40,21.25,-23.13
1281,-0.51,6.39,-7.99,-0.00,0.00,-0.01,-47.40,21.25,-23.13
1292,-0.52,6.38,-7.99,-0.00,-0.00,-0.01,-47.40,21.25,-23.13
1303,-0.52,6.39,-8.00,-0.00,0.00,-0.01,-47.40,21.25,-23.13
1314,-0.52,6.39,-8.00,-0.00,0.00,-0.01,-47.40,21.25,-23.13
1325,-0.52,6.38,-7.99,-0.00,0.00,-0.01,-47.40,21.25,-23.13
1336,-0.52,6.38,-7.99,-0.00,0.00,-0.01,-47.40,21.25,-23.13
1347,-0.51,6.38,-8.02,-0.00,0.00,-0.01,-47.91,20.95,-24.68
1358,-0.51,6.38,-8.02,-0.00,0.00,-0.01,-47.91,20.95,-24.68
1369,-0.52,6.38,-8.01,-0.00,0.00,-0.01,-47.91,20.95,-24.68
1380,-0.52,6.38,-8.01,-0.00,0.00,-0.01,-47.91,20.95,-24.68
1391,-0.53,6.39,-8.01,-0.00,0.00,-0.01,-47.91,20.95,-24.68
1402,-0.51,6.41,-7.98,-0.00,0.00,-0.01,-47.91,20.95,-24.68
1413,-0.51,6.41,-7.98,-0.00,0.00,-0.01,-47.91,20.95,-24.68
1424,-0.50,6.40,-7.99,-0.00,0.00,-0.01,-47.91,20.95,-24.68
1435,-0.50,6.40,-7.99,-0.00,0.00,-0.01,-47.91,20.95,-24.68
1446,-0.50,6.38,-8.01,-0.00,0.00,-0.01,-47.91,20.95,-24.68
1457,-0.50,6.38,-8.01,-0.00,0.00,-0.01,-47.91,20.95,-24.68
1468,-0.52,6.38,-8.02,-0.00,0.00,-0.01,-46.11,20.80,-22.97
1479,-0.52,6.38,-8.02,-0.00,0.00,-0.01,-46.11,20.80,-22.97
1490,-0.52,6.39,-8.01,-0.00,0.00,-0.01,-46.11,20.80,-22.97
1501,-0.52,6.39,-8.01,-0.00,0.00,-0.01,-46.11,20.80,-22.97
1512,-0.52,6.38,-8.00,-0.00,0.00,-0.01,-46.11,20.80,-22.97
1523,-0.51,6.39,-7.99,-0.00,0.00,-0.01,-46.11,20.80,-22.97
1534,-0.51,6.39,-7.99,-0.00,0.00,-0.01,-46.11,20.80,-22.97
1545,-0.51,6.39,-7.99,-0.00,0.00,-0.01,-46.11,20.80,-22.97
1560,-0.51,6.39,-7.99,-0.00,0.00,-0.01,-46.11,20.80,-22.97
1567,-0.51,6.38,-7.99,-0.00,-0.00,-0.01,-46.11,20.80,-22.97
1578,-0.51,6.38,-7.99,-0.00,-0.00,-0.01,-46.11,20.80,-22.97
1589,-0.52,6.38,-7.99,-0.00,-0.00,-0.01,-46.11,20.80,-22.97
1600,-0.52,6.38,-7.99,-0.00,-0.00,-0.01,-46.11,20.80,-22.97
1611,-0.52,6.40,-8.02,-0.00,0.00,-0.01,-48.94,20.95,-24.06
1622,-0.52,6.40,-8.02,-0.00,0.00,-0.01,-48.94,20.95,-24.06
1634,-0.51,6.39,-8.03,-0.00,0.00,-0.01,-48.94,20.95,-24.06
1644,-0.51,6.38,-8.03,-0.00,0.00,-0.01,-48.94,20.95,-24.06
1655,-0.51,6.38,-8.03,-0.00,0.00,-0.01,-48.94,20.95,-24.06
1666,-0.51,6.38,-7.99,-0.00,0.00,-0.01,-48.94,20.95,-24.06
1677,-0.51,6.38,-7.99,-0.00,0.00,-0.01,-48.94,20.95,-24.06
1688,-0.51,6.39,-8.00,-0.00,-0.00,-0.01,-48.94,20.95,-24.06
1699,-0.51,6.39,-8.00,-0.00,-0.00,-0.01,-48.94,20.95,-24.06
1710,-0.51,6.39,-8.01,0.00,0.00,-0.01,-48.94,20.95,-24.06
1721,-0.51,6.39,-8.01,0.00,0.00,-0.01,-48.94,20.95,-24.06
1732,-0.51,6.39,-8.03,-0.00,0.00,-0.01,-48.94,22.13,-23.44
1747,-0.51,6.39,-8.01,-0.00,0.00,-0.01,-48.94,22.13,-23.44
1754,-0.51,6.39,-8.01,-0.00,0.00,-0.01,-48.94,22.13,-23.44
1765,-0.53,6.39,-8.02,-0.00,0.00,-0.01,-48.94,22.13,-23.44
1776,-0.53,6.39,-8.02,-0.00,0.00,-0.01,-48.94,22.13,-23.44
1787,-0.52,6.37,-8.00,-0.00,0.00,-0.01,-48.94,22.13,-23.44
1798,-0.52,6.37,-8.00,-0.00,0.00,-0.01,-48.94,22.13,-23.44
1809,-0.51,6.38,-8.01,-0.00,0.00,-0.01,-48.94,22.13,-23.44
1820,-0.51,6.38,-8.01,-0.00,0.00,-0.01,-48.94,22.13,-23.44
1831,-0.51,6.40,-7.99,-0.00,0.00,-0.01,-48.94,22.13,-23.44
1842,-0.51,6.40,-7.99,-0.00,0.00,-0.01,-48.94,22.13,-23.44
1853,-0.53,6.39,-8.00,-0.00,0.00,-0.01,-48.42,20.95,-23.75
1864,-0.52,6.40,-8.01,-0.00,0.00,-0.01,-48.42,20.95,-23.75
1875,-0.52,6.40,-8.01,-0.00,0.00,-0.01,-48.42,20.95,-23.75
1886,-0.52,6.38,-8.02,-0.00,-0.00,-0.01,-48.42,20.95,-23.75
1897,-0.52,6.38,-8.02,-0.00,-0.00,-0.01,-48.42,20.95,-23.75
1908,-0.52,6.37,-8.01,-0.00,0.00,-0.01,-48.42,20.95,-23.75
1919,-0.52,6.37,-8.01,-0.00,0.00,-0.01,-48.42,20.95,-23.75
1930,-0.51,6.38,-8.00,-0.00,0.00,-0.01,-48.42,20.95,-23.75
1941,-0.51,6.38,-8.00,-0.00,0.00,-0.01,-48.42,20.95,-23.75
1952,-0.52,6.39,-7.99,-0.00,0.00,-0.01,-48.42,20.95,-23.75
1963,-0.53,6.39,-8.01,-0.00,0.00,-0.01,-49.19,21.39,-23.59
1974,-0.53,6.39,-8.01,-0.00,0.00,-0.01,-49.19,21.39,-23.59
1985,-0.52,6.40,-8.01,-0.00,0.00,-0.01,-49.19,21.39,-23.59
1996,-0.52,6.40,-8.01,-0.00,0.00,-0.01,-49.19,21.39,-23.59
2007,-0.51,6.38,-8.01,-0.00,0.00,-0.01,-49.19,21.39,-23.59
2018,-0.51,6.38,-8.01,-0.00,0.00,-0.01,-49.19,21.39,-23.59
2029,-0.52,6.38,-8.00,-0.00,0.00,-0.01,-49.19,21.39,-23.59
2040,-0.52,6.38,-8.00,-0.00,0.00,-0.01,-49.19,21.39,-23.59
2051,-0.53,6.39,-7.98,-0.00,0.00,-0.01,-49.19,21.39,-23.59
2062,-0.53,6.39,-7.98,-0.00,0.00,-0.01,-49.19,21.39,-23.59
2073,-0.51,6.38,-8.01,-0.00,0.00,-0.01,-49.19,21.39,-23.59
2084,-0.53,6.39,-7.99,-0.00,0.00,-0.01,-49.19,21.39,-23.59
2095,-0.53,6.39,-7.99,-0.00,0.00,-0.01,-49.19,21.39,-23.59
2106,-0.50,6.40,-8.03,-0.00,0.00,-0.01,-48.42,22.13,-23.75
2117,-0.50,6.40,-8.03,-0.00,0.00,-0.01,-48.42,22.13,-23.75
2128,-0.51,6.40,-8.03,-0.00,0.00,-0.01,-48.42,22.13,-23.75
2139,-0.51,6.40,-8.03,-0.00,0.00,-0.01,-48.42,22.13,-23.75
2150,-0.51,6.39,-8.00,-0.00,0.00,-0.01,-48.42,22.13,-23.75
2161,-0.51,6.39,-8.00,-0.00,0.00,-0.01,-48.42,22.13,-23.75
2173,-0.51,6.37,-7.98,-0.00,0.00,-0.01,-48.42,22.13,-23.75
2183,-0.50,6.38,-8.00,0.00,0.00,-0.01,-48.42,22.13,-23.75
2194,-0.50,6.38,-8.00,0.00,0.00,-0.01,-48.42,22.13,-23.75
2205,-0.51,6.39,-8.02,-0.00,0.00,-0.01,-48.42,22.13,-23.75
2216,-0.51,6.39,-8.02,-0.00,0.00,-0.01,-48.42,22.13,-23.75
2227,-0.51,6.39,-8.03,-0.00,0.00,-0.01,-47.14,21.99,-23.59
2238,-0.51,6.39,-8.03,-0.00,0.00,-0.01,-47.14,21.99,-23.59
2249,-0.51,6.40,-8.03,-0.00,0.00,-0.01,-47.14,21.99,-23.59
2260,-0.51,6.40,-8.03,-0.00,0.00,-0.01,-47.14,21.99,-23.59
2271,-0.53,6.39,-7.99,-0.00,0.00,-0.01,-47.14,21.99,-23.59
2282,-0.53,6.39,-7.99,-0.00,0.00,-0.01,-47.14,21.99,-23.59
2293,-0.51,6.39,-7.99,-0.00,0.00,-0.01,-47.14,21.99,-23.59
2304,-0.53,6.39,-8.00,-0.00,0.00,-0.01,-47.14,21.99,-23.59
2315,-0.53,6.39,-8.00,-0.00,0.00,-0.01,-47.14,21.99,-23.59
2326,-0.51,6.39,-8.01,-0.00,0.00,-0.01,-47.14,21.99,-23.59
2337,-0.51,6.39,-8.01,-0.00,0.00,-0.01,-47.14,21.99,-23.59
2348,-0.51,6.40,-8.03,-0.00,0.00,-0.01,-47.91,20.95,-23.13
2359,-0.51,6.40,-8.03,-0.00,0.00,-0.01,-47.91,20.95,-23.13
2370,-0.50,6.38,-8.01,-0.00,0.00,-0.01,-47.91,20.95,-23.13
2381,-0.50,6.38,-8.01,-0.00,0.00,-0.01,-47.91,20.95,-23.13
2392,-0.51,6.39,-7.99,-0.00,-0.00,-0.01,-47.91,20.95,-23.13
2403,-0.51,6.38,-8.02,-0.00,0.00,-0.01,-47.91,20.95,-23.13
2414,-0.51,6.38,-8.02,-0.00,0.00,-0.01,-47.91,20.95,-23.13
2425,-0.52,6.37,-8.01,-0.00,0.00,-0.01,-47.91,20.95,-23.13
2436,-0.52,6.37,-8.01,-0.00,0.00,-0.01,-47.91,20.95,-23.13
2447,-0.51,6.38,-8.00,-0.00,0.00,-0.01,-47.91,20.95,-23.13
2458,-0.51,6.38,-8.00,-0.00,0.00,-0.01,-47.91,20.95,-23.13
2469,-0.51,6.39,-8.00,-0.00,0.00,-0.01,-47.91,20.95,-23.13
2480,-0.51,6.39,-8.00,-0.00,0.00,-0.01,-47.91,20.95,-23.13
2492,-0.52,6.39,-8.03,-0.00,0.00,-0.01,-47.65,20.80,-23.59
2502,-0.52,6.39,-8.03,-0.00,0.00,-0.01,-47.65,20.80,-23.59
2513,-0.51,6.38,-8.00,-0.00,0.00,-0.01,-47.65,20.80,-23.59
2524,-0.52,6.39,-8.00,-0.00,0.00,-0.01,-47.65,20.80,-23.59
2535,-0.52,6.39,-8.00,-0.00,0.00,-0.01,-47.65,20.80,-23.59
2546,-0.51,6.39,-7.99,-0.00,0.00,-0.01,-47.65,20.80,-23.59
2557,-0.51,6.39,-7.99,-0.00,0.00,-0.01,-47.65,20.80,-23.59
2568,-0.51,6.37,-8.00,-0.00,0.00,-0.01,-47.65,20.80,-23.59
2579,-0.51,6.37,-8.00,-0.00,0.00,-0.01,-47.65,20.80,-23.59
2590,-0.51,6.38,-7.98,-0.00,0.00,-0.01,-47.65,20.80,-23.59
2601,-0.51,6.38,-7.98,-0.00,0.00,-0.01,-47.65,20.80,-23.59
2612,-0.52,6.39,-8.01,-0.00,0.00,-0.01,-49.45,21.54,-24.06
2623,-0.52,6.39,-8.01,-0.00,0.00,-0.01,-49.45,21.54,-24.06
2634,-0.52,6.37,-8.01,-0.00,0.00,-0.01,-49.45,21.54,-24.06
2645,-0.52,6.39,-7.99,-0.00,0.00,-0.01,-49.45,21.54,-24.06
2656,-0.52,6.39,-7.99,-0.00,0.00,-0.01,-49.45,21.54,-24.06
2667,-0.51,6.39,-8.01,-0.00,0.00,-0.01,-49.45,21.54,-24.06
2678,-0.51,6.39,-8.01,-0.00,0.00,-0.01,-49.45,21.54,-24.06
2689,-0.51,6.38,-8.01,-0.00,-0.00,-0.01,-49.45,21.54,-24.06
2700,-0.51,6.38,-8.01,-0.00,-0.00,-0.01,-49.45,21.54,-24.06
2711,-0.52,6.40,-8.00,-0.00,0.00,-0.01,-49.45,21.54,-24.06
2722,-0.52,6.40,-8.00,-0.00,0.00,-0.01,-49.45,21.54,-24.06
2733,-0.52,6.39,-8.01,-0.00,0.00,-0.01,-47.65,21.39,-24.21
2744,-0.52,6.39,-8.03,-0.00,0.00,-0.01,-47.65,21.39,-24.21
2755,-0.52,6.39,-8.03,-0.00,0.00,-0.01,-47.65,21.39,-24.21
2766,-0.52,6.39,-7.99,-0.00,0.00,-0.01,-47.65,21.39,-24.21
2777,-0.52,6.39,-7.99,-0.00,0.00,-0.01,-47.65,21.39,-24.21
2788,-0.52,6.38,-7.99,-0.00,0.00,-0.01,-47.65,21.39,-24.21
2799,-0.52,6.38,-7.99,-0.00,0.00,-0.01,-47.65,21.39,-24.21
2810,-0.52,6.38,-7.98,-0.00,0.00,-0.01,-47.65,21.39,-24.21
2821,-0.52,6.38,-7.98,-0.00,0.00,-0.01,-47.65,21.39,-24.21
2832,-0.51,6.39,-7.96,-0.00,0.00,-0.01,-47.65,21.39,-24.21
2843,-0.51,6.39,-7.96,-0.00,0.00,-0.01,-47.65,21.39,-24.21
2854,-0.52,6.38,-7.99,-0.00,0.00,-0.01,-47.65,21.39,-24.21
2865,-0.51,6.40,-8.00,-0.00,0.00,-0.01,-49.19,20.51,-23.28
2877,-0.51,6.40,-8.00,-0.00,0.00,-0.01,-49.19,20.51,-23.28
2887,-0.51,6.40,-8.01,-0.00,0.00,-0.01,-49.19,20.51,-23.28
2898,-0.51,6.40,-8.01,-0.00,0.00,-0.01,-49.19,20.51,-23.28
2909,-0.51,6.38,-7.99,-0.00,0.00,-0.01,-49.19,20.51,-23.28
2920,-0.51,6.38,-7.99,-0.00,0.00,-0.01,-49.19,20.51,-23.28
2931,-0.52,6.39,-7.99,-0.00,0.00,-0.01,-49.19,20.51,-23.28
2942,-0.52,6.39,-7.99,-0.00,0.00,-0.01,-49.19,20.51,-23.28
2953,-0.51,6.38,-8.01,-0.00,0.00,-0.01,-49.19,20.51,-23.28
2964,-0.53,6.40,-8.02,-0.00,0.00,-0.01,-49.19,20.51,-23.28
2975,-0.53,6.40,-8.02,-0.00,0.00,-0.01,-49.19,20.51,-23.28
2986,-0.52,6.38,-8.03,-0.00,0.00,-0.01,-48.94,21.25,-24.37
2997,-0.52,6.38,-8.03,-0.00,0.00,-0.01,-48.94,21.25,-24.37
3008,-0.51,6.39,-8.01,-0.00,0.00,-0.01,-48.94,21.25,-24.37
3019,-0.51,6.39,-8.01,-0.00,0.00,-0.01,-48.94,21.25,-24.37
3030,-0.52,6.40,-7.98,-0.00,0.00,-0.01,-48.94,21.25,-24.37
3041,-0.52,6.40,-7.98,-0.00,0.00,-0.01,-48.94,21.25,-24.37
3052,-0.51,6.39,-7.98,-0.00,0.00,-0.01,-48.94,21.25,-24.37
3063,-0.51,6.39,-7.98,-0.00,0.00,-0.01,-48.94,21.25,-24.37
3074,-0.52,6.37,-7.99,-0.00,0.00,-0.01,-48.94,21.25,-24.37
3085,-0.51,6.39,-8.02,-0.00,0.00,-0.01,-48.94,21.25,-24.37
3096,-0.51,6.39,-8.02,-0.00,0.00,-0.01,-48.94,21.25,-24.37
3107,-0.51,6.39,-7.99,0.00,0.00,-0.01,-45.60,22.87,-22.97
3118,-0.51,6.39,-7.99,0.00,0.00,-0.01,-45.60,22.87,-22.97
3129,-0.51,6.40,-8.01,-0.00,0.00,-0.01,-45.60,22.87,-22.97
3140,-0.51,6.40,-8.01,-0.00,0.00,-0.01,-45.60,22.87,-22.97
3151,-0.50,6.38,-8.00,-0.00,0.00,-0.01,-45.60,22.87,-22.97
3162,-0.50,6.38,-8.00,-0.00,0.00,-0.01,-45.60,22.87,-22.97
3173,-0.53,6.38,-7.99,0.00,0.00,-0.01,-45.60,22.87,-22.97
3184,-0.51,6.39,-8.00,-0.00,0.00,-0.01,-45.60,22.87,-22.97
3195,-0.51,6.39,-8.00,-0.00,0.00,-0.01,-45.60,22.87,-22.97
3206,-0.52,6.39,-7.98,-0.00,0.00,-0.01,-45.60,22.87,-22.97
3217,-0.52,6.39,-7.98,-0.00,0.00,-0.01,-45.60,22.87,-22.97
3228,-0.51,6.40,-7.97,-0.00,0.00,-0.01,-45.60,22.87,-22.97
3239,-0.51,6.40,-7.97,-0.00,0.00,-0.01,-45.60,22.87,-22.97
3250,-0.51,6.39,-8.01,-0.00,0.00,-0.01,-48.94,20.95,-23.13
3261,-0.51,6.39,-8.01,-0.00,0.00,-0.01,-48.94,20.95,-23.13
3272,-0.51,6.38,-8.00,-0.00,0.00,-0.01,-48.94,20.95,-23.13
3283,-0.51,6.38,-8.00,-0.00,0.00,-0.01,-48.94,20.95,-23.13
3294,-0.52,6.38,-8.01,-0.00,0.00,-0.01,-48.94,20.95,-23.13
3305,-0.53,6.38,-7.99,-0.00,0.00,-0.01,-48.94,20.95,-23.13
3316,-0.53,6.38,-7.99,-0.00,0.00,-0.01,-48.94,20.95,-23.13
3327,-0.51,6.40,-7.99,-0.00,0.00,-0.01,-48.94,20.95,-23.13
3338,-0.51,6.40,-7.99,-0.00,0.00,-0.01,-48.94,20.95,-23.13
3349,-0.51,6.39,-7.98,-0.00,0.00,-0.01,-48.94,20.95,-23.13
3360,-0.51,6.39,-7.98,-0.00,0.00,-0.01,-48.94,20.95,-23.13
3371,-0.52,6.39,-7.99,-0.00,0.00,-0.01,-46.37,20.07,-24.37
3382,-0.52,6.39,-7.99,-0.00,0.00,-0.01,-46.37,20.07,-24.37
3393,-0.52,6.38,-7.99,-0.00,0.00,-0.01,-46.37,20.07,-24.37
3404,-0.52,6.39,-8.00,-0.00,-0.00,-0.01,-46.37,20.07,-24.37
3415,-0.52,6.39,-8.00,-0.00,-0.00,-0.01,-46.37,20.07,-24.37
3426,-0.52,6.40,-7.98,-0.00,-0.00,-0.01,-46.37,20.07,-24.37
3437,-0.52,6.40,-7.98,-0.00,-0.00,-0.01,-46.37,20.07,-24.37
3448,-0.52,6.40,-8.01,-0.00,0.00,-0.01,-46.37,20.07,-24.37
3459,-0.52,6.40,-8.01,-0.00,0.00,-0.01,-46.37,20.07,-24.37
3470,-0.52,6.38,-7.98,-0.00,0.00,-0.01,-46.37,20.07,-24.37
3481,-0.52,6.38,-7.98,-0.00,0.00,-0.01,-46.37,20.07,-24.37
3492,-0.52,6.39,-8.02,-0.00,0.00,-0.01,-47.65,21.10,-25.14
3503,-0.52,6.39,-8.02,-0.00,0.00,-0.01,-47.65,21.10,-25.14
3514,-0.53,6.39,-8.01,-0.00,0.00,-0.01,-47.65,21.10,-25.14
3525,-0.51,6.39,-7.98,-0.00,0.00,-0.01,-47.65,21.10,-25.14
3536,-0.51,6.39,-7.98,-0.00,0.00,-0.01,-47.65,21.10,-25.14
3547,-0.51,6.37,-8.00,-0.00,0.00,-0.01,-47.65,21.10,-25.14
3558,-0.51,6.37,-8.00,-0.00,0.00,-0.01,-47.65,21.10,-25.14
3569,-0.51,6.39,-8.01,-0.00,0.00,-0.01,-47.65,21.10,-25.14
3580,-0.51,6.39,-8.01,-0.00,0.00,-0.01,-47.65,21.10,-25.14
3591,-0.51,6.37,-8.01,-0.00,0.00,-0.01,-47.65,21.10,-25.14
3602,-0.51,6.37,-8.01,-0.00,0.00,-0.01,-47.65,21.10,-25.14
3613,-0.50,6.37,-8.00,-0.00,0.00,-0.01,-46.37,20.95,-24.68
3625,-0.50,6.40,-7.99,-0.00,0.00,-0.01,-46.37,20.95,-24.68
3635,-0.50,6.40,-7.99,-0.00,0.00,-0.01,-46.37,20.95,-24.68
3646,-0.52,6.39,-8.01,-0.00,0.00,-0.01,-46.37,20.95,-24.68
3657,-0.52,6.39,-8.01,-0.00,0.00,-0.01,-46.37,20.95,-24.68
3668,-0.53,6.39,-8.00,-0.00,0.00,-0.01,-46.37,20.95,-24.68
3679,-0.53,6.39,-8.00,-0.00,0.00,-0.01,-46.37,20.95,-24.68
3690,-0.51,6.39,-7.99,-0.00,0.00,-0.01,-46.37,20.95,-24.68
3701,-0.51,6.39,-7.99,-0.00,0.00,-0.01,-46.37,20.95,-24.68
3712,-0.51,6.40,-8.02,-0.00,0.00,-0.01,-46.37,20.95,-24.68
3723,-0.51,6.40,-8.02,-0.00,0.00,-0.01,-46.37,20.95,-24.68
3734,-0.50,6.40,-7.99,-0.00,0.00,-0.01,-46.37,20.95,-24.68
3745,-0.50,6.39,-8.01,-0.00,0.00,-0.01,-48.94,21.54,-23.44
3756,-0.50,6.39,-8.01,-0.00,0.00,-0.01,-48.94,21.54,-23.44
3767,-0.53,6.37,-8.01,-0.00,0.00,-0.01,-48.94,21.54,-23.44
3778,-0.53,6.37,-8.01,-0.00,0.00,-0.01,-48.94,21.54,-23.44
3789,-0.52,6.39,-8.00,-0.00,0.00,-0.01,-48.94,21.54,-23.44
3800,-0.52,6.39,-8.00,-0.00,0.00,-0.01,-48.94,21.54,-23.44
3811,-0.51,6.39,-8.00,-0.00,0.00,-0.01,-48.94,21.54,-23.44
3822,-0.51,6.39,-8.00,-0.00,0.00,-0.01,-48.94,21.54,-23.44
3833,-0.51,6.40,-7.99,-0.00,0.00,-0.01,-48.94,21.54,-23.44
3844,-0.51,6.40,-7.99,-0.00,0.00,-0.01,-48.94,21.54,-23.44
3855,-0.51,6.40,-8.00,-0.00,0.00,-0.01,-48.94,21.54,-23.44
3866,-0.51,6.39,-8.00,-0.00,0.00,-0.01,-48.94,21.25,-23.75
3878,-0.51,6.39,-8.00,-0.00,0.00,-0.01,-48.94,21.25,-23.75
3888,-0.52,6.38,-7.99,-0.00,0.00,-0.01,-48.94,21.25,-23.75
3899,-0.52,6.38,-7.99,-0.00,0.00,-0.01,-48.94,21.25,-23.75
3910,-0.51,6.37,-7.99,-0.00,0.00,-0.01,-48.94,21.25,-23.75
3921,-0.51,6.37,-7.99,-0.00,0.00,-0.01,-48.94,21.25,-23.75
3932,-0.52,6.38,-8.01,0.00,0.00,-0.01,-48.94,21.25,-23.75
3943,-0.52,6.38,-8.01,0.00,0.00,-0.01,-48.94,21.25,-23.75
3954,-0.51,6.38,-8.00,0.00,0.00,-0.01,-48.94,21.25,-23.75
3965,-0.51,6.39,-7.98,-0.00,0.00,-0.01,-48.94,21.25,-23.75
3976,-0.51,6.39,-7.98,-0.00,0.00,-0.01,-48.94,21.25,-23.75
3987,-0.51,6.39,-8.00,0.00,0.00,-0.01,-47.91,20.95,-23.44
3998,-0.51,6.39,-8.00,0.00,0.00,-0.01,-47.91,20.95,-23.44
4009,-0.52,6.39,-8.01,-0.00,0.00,-0.01,-47.91,20.95,-23.44
4020,-0.52,6.39,-8.01,-0.00,0.00,-0.01,-47.91,20.95,-23.44
4031,-0.52,6.37,-7.99,-0.00,0.00,-0.01,-47.91,20.95,-23.44
4042,-0.52,6.37,-7.99,-0.00,0.00,-0.01,-47.91,20.95,-23.44
4053,-0.51,6.39,-7.99,-0.00,0.00,-0.01,-47.91,20.95,-23.44
4064,-0.51,6.39,-7.99,-0.00,0.00,-0.01,-47.91,20.95,-23.44
4075,-0.50,6.39,-8.00,-0.00,0.00,-0.01,-47.91,20.95,-23.44
4086,-0.51,6.38,-8.00,-0.00,0.00,-0.01,-47.91,20.95,-23.44
4097,-0.51,6.38,-8.00,-0.00,0.00,-0.01,-47.91,20.95,-23.44
4108,-0.51,6.40,-7.99,-0.00,0.00,-0.01,-47.91,20.95,-23.44
4119,-0.51,6.40,-7.99,-0.00,0.00,-0.01,-47.91,20.95,-23.44
4130,-0.51,6.39,-8.03,-0.00,0.00,-0.01,-50.22,20.80,-23.90
4141,-0.51,6.39,-8.03,-0.00,0.00,-0.01,-50.22,20.80,-23.90
4152,-0.52,6.39,-7.99,-0.00,0.00,-0.01,-50.22,20.80,-23.90
4163,-0.52,6.39,-7.99,-0.00,0.00,-0.01,-50.22,20.80,-23.90
4174,-0.51,6.39,-7.99,-0.00,0.00,-0.01,-50.22,20.80,-23.90
4185,-0.50,6.38,-8.00,0.00,0.00,-0.01,-50.22,20.80,-23.90
4196,-0.50,6.38,-8.00,0.00,0.00,-0.01,-50.22,20.80,-23.90
4207,-0.52,6.39,-7.99,0.00,0.00,-0.01,-50.22,20.80,-23.90
4218,-0.52,6.39,-7.99,0.00,0.00,-0.01,-50.22,20.80,-23.90
4229,-0.52,6.41,-8.00,-0.00,0.00,-0.01,-50.22,20.80,-23.90
4240,-0.52,6.41,-8.00,-0.00,0.00,-0.01,-50.22,20.80,-23.90
4251,-0.52,6.39,-8.02,-0.00,0.00,-0.01,-47.40,21.54,-23.44
4262,-0.52,6.39,-8.02,-0.00,0.00,-0.01,-47.40,21.54,-23.44
4273,-0.51,6.39,-7.99,-0.00,-0.00,-0.01,-47.40,21.54,-23.44
4284,-0.51,6.39,-7.99,-0.00,-0.00,-0.01,-47.40,21.54,-23.44
4295,-0.51,6.41,-8.01,-0.00,0.00,-0.01,-47.40,21.54,-23.44
4306,-0.52,6.37,-8.01,0.00,0.00,-0.01,-47.40,21.54,-23.44
4317,-0.52,6.37,-8.01,0.00,0.00,-0.01,-47.40,21.54,-23.44
4329,-0.51,6.40,-8.00,-0.00,-0.00,-0.01,-47.40,21.54,-23.44
4339,-0.51,6.40,-8.00,-0.00,-0.00,-0.01,-47.40,21.54,-23.44
4350,-0.52,6.40,-8.00,-0.00,0.00,-0.01,-47.40,21.54,-23.44
4361,-0.52,6.40,-8.00,-0.00,0.00,-0.01,-47.40,21.54,-23.44
4372,-0.52,6.38,-8.00,-0.00,0.00,-0.01,-47.40,21.84,-23.44
4383,-0.52,6.38,-8.00,-0.00,0.00,-0.01,-47.40,21.84,-23.44
4394,-0.51,6.38,-8.02,-0.00,-0.00,-0.01,-47.40,21.84,-23.44
4405,-0.51,6.39,-8.00,-0.00,0.00,-0.01,-47.40,21.84,-23.44
4416,-0.51,6.39,-8.00,-0.00,0.00,-0.01,-47.40,21.84,-23.44
4427,-0.52,6.40,-8.02,-0.00,0.00,-0.01,-47.40,21.84,-23.44
4438,-0.52,6.40,-8.02,-0.00,0.00,-0.01,-47.40,21.84,-23.44
4449,-0.52,6.40,-8.01,-0.00,0.00,-0.01,-47.40,21.84,-23.44
4460,-0.52,6.40,-8.01,-0.00,0.00,-0.01,-47.40,21.84,-23.44
4471,-0.52,6.39,-8.00,-0.00,0.00,-0.01,-47.40,21.84,-23.44
4482,-0.52,6.39,-8.00,-0.00,0.00,-0.01,-47.40,21.84,-23.44
4493,-0.51,6.40,-8.01,-0.00,0.00,-0.01,-47.40,21.84,-23.44
4504,-0.51,6.40,-8.01,-0.00,0.00,-0.01,-47.40,21.84,-23.44
4515,-0.52,6.38,-8.01,-0.00,0.00,-0.01,-46.88,21.25,-24.37
4526,-0.53,6.38,-8.02,-0.00,0.00,-0.01,-46.88,21.25,-24.37
4537,-0.53,6.38,-8.02,-0.00,0.00,-0.01,-46.88,21.25,-24.37
4548,-0.52,6.39,-8.00,-0.00,0.00,-0.01,-46.88,21.25,-24.37
4559,-0.52,6.39,-8.00,-0.00,0.00,-0.01,-46.88,21.25,-24.37
4570,-0.51,6.39,-7.99,0.00,0.00,-0.01,-46.88,21.25,-24.37
4581,-0.51,6.39,-7.99,0.00,0.00,-0.01,-46.88,21.25,-24.37
4592,-0.51,6.39,-7.99,-0.00,0.00,-0.01,-46.88,21.25,-24.37
4603,-0.51,6.39,-7.99,-0.00,0.00,-0.01,-46.88,21.25,-24.37
4614,-0.52,6.39,-7.99,-0.00,0.00,-0.01,-46.88,21.25,-24.37
4625,-0.52,6.39,-7.99,-0.00,0.00,-0.01,-46.88,21.25,-24.37
4636,-0.52,6.40,-8.02,-0.00,0.00,-0.01,-48.42,20.66,-23.75
4647,-0.51,6.39,-8.01,-0.00,0.00,-0.01,-48.42,20.66,-23.75
4658,-0.51,6.39,-8.01,-0.00,0.00,-0.01,-48.42,20.66,-23.75
4669,-0.51,6.38,-7.99,-0.00,0.00,-0.01,-48.42,20.66,-23.75
4680,-0.51,6.38,-7.99,-0.00,0.00,-0.01,-48.42,20.66,-23.75
4691,-0.50,6.40,-8.01,-0.00,0.00,-0.01,-48.42,20.66,-23.75
4702,-0.50,6.40,-8.01,-0.00,0.00,-0.01,-48.42,20.66,-23.75
4713,-0.51,6.38,-8.00,-0.00,0.00,-0.01,-48.42,20.66,-23.75
4724,-0.51,6.38,-8.00,-0.00,0.00,-0.01,-48.42,20.66,-23.75
4735,-0.53,6.38,-7.99,-0.00,0.00,-0.01,-48.42,20.66,-23.75
4746,-0.51,6.38,-8.03,-0.00,-0.00,-0.01,-48.68,21.69,-22.35
4757,-0.51,6.38,-8.03,-0.00,-0.00,-0.01,-48.68,21.69,-22.35
4768,-0.51,6.39,-8.00,-0.00,0.00,-0.01,-48.68,21.69,-22.35
4779,-0.51,6.39,-8.00,-0.00,0.00,-0.01,-48.68,21.69,-22.35
4790,-0.52,6.39,-8.01,-0.00,0.00,-0.01,-48.68,21.69,-22.35
4801,-0.52,6.39,-8.01,-0.00,0.00,-0.01,-48.68,21.69,-22.35
4812,-0.53,6.37,-7.99,-0.00,0.00,-0.01,-48.68,21.69,-22.35
4823,-0.53,6.37,-7.99,-0.00,0.00,-0.01,-48.68,21.69,-22.35
4834,-0.53,6.39,-8.02,-0.00,0.00,-0.01,-48.68,21.69,-22.35
4845,-0.53,6.39,-8.02,-0.00,0.00,-0.01,-48.68,21.69,-22.35
4856,-0.51,6.39,-7.99,-0.00,0.00,-0.01,-48.68,21.69,-22.35
4867,-0.51,6.39,-7.99,-0.00,0.00,-0.01,-46.11,20.21,-23.59
4878,-0.51,6.39,-7.99,-0.00,0.00,-0.01,-46.11,20.21,-23.59
4889,-0.51,6.40,-8.02,-0.00,0.00,-0.01,-46.11,20.21,-23.59
4900,-0.51,6.40,-8.02,-0.00,0.00,-0.01,-46.11,20.21,-23.59
4911,-0.51,6.40,-7.97,-0.00,0.00,-0.01,-46.11,20.21,-23.59
4922,-0.51,6.40,-7.97,-0.00,0.00,-0.01,-46.11,20.21,-23.59
4933,-0.53,6.40,-7.98,-0.00,0.00,-0.01,-46.11,20.21,-23.59
4944,-0.53,6.40,-7.98,-0.00,0.00,-0.01,-46.11,20.21,-23.59
4955,-0.51,6.40,-8.01,-0.00,0.00,-0.01,-46.11,20.21,-23.59
4966,-0.50,6.40,-8.01,-0.00,0.00,-0.01,-46.11,20.21,-23.59
4977,-0.50,6.40,-8.01,-0.00,0.00,-0.01,-46.11,20.21,-23.59
4988,-0.51,6.39,-7.99,-0.00,0.00,-0.01,-46.11,20.21,-23.59
4999,-0.51,6.39,-7.99,-0.00,0.00,-0.01,-46.11,20.21,-23.59
5010,-0.53,6.40,-8.02,-0.01,-0.00,-0.01,-48.17,20.80,-23.90
5021,-0.53,6.40,-8.02,-0.01,-0.00,-0.01,-48.17,20.80,-23.90
5032,-0.52,6.41,-8.00,-0.01,-0.00,-0.01,-48.17,20.80,-23.90
5043,-0.52,6.41,-8.00,-0.01,-0.00,-0.01,-48.17,20.80,-23.90
5054,-0.52,6.40,-7.99,0.00,0.00,-0.01,-48.17,20.80,-23.90
5065,-0.52,6.40,-7.99,0.00,0.00,-0.01,-48.17,20.80,-23.90
5076,-0.51,6.39,-7.99,-0.01,0.00,-0.01,-48.17,20.80,-23.90
5087,1.70,6.96,-8.70,-0.16,-0.16,-0.02,-48.17,20.80,-23.90
5098,1.70,6.96,-8.70,-0.16,-0.16,-0.02,-48.17,20.80,-23.90
5109,-3.95,7.06,-9.60,-2.13,-1.47,0.27,-48.17,20.80,-23.90
5121,-3.95,7.06,-9.60,-2.13,-1.47,0.27,-48.17,20.80,-23.90
5131,0.33,6.27,-10.76,0.70,-0.25,0.41,-48.68,22.87,-23.28
5142,0.33,6.27,-10.76,0.70,-0.25,0.41,-48.68,22.87,-23.28
5153,0.76,3.64,-8.38,3.29,-0.46,1.01,-48.68,22.87,-23.28
5164,0.76,3.64,-8.38,3.29,-0.46,1.01,-48.68,22.87,-23.28
5175,0.69,6.58,-12.57,4.75,-0.97,1.94,-48.68,22.87,-23.28
5186,-2.25,5.53,-2.76,7.01,-1.21,2.54,-48.68,22.87,-23.28
5197,-2.25,5.53,-2.76,7.01,-1.21,2.54,-48.68,22.87,-23.28
5208,-4.33,14.12,-7.23,3.12,-0.40,1.09,-48.68,22.87,-23.28
5219,-4.33,14.12,-7.23,3.12,-0.40,1.09,-48.68,22.87,-23.28
5230,-1.53,8.93,-9.82,4.48,0.61,-1.45,-48.68,22.87,-23.28
5241,-1.53,8.93,-9.82,4.48,0.61,-1.45,-48.68,22.87,-23.28
5252,1.83,-0.14,-12.16,5.63,0.96,-2.71,-46.88,9.43,-32.73
5263,1.83,-0.14,-12.16,5.63,0.96,-2.71,-46.88,9.43,-32.73
5274,0.52,-3.45,-11.26,5.40,0.28,-1.72,-46.88,9.43,-32.73
5285,0.52,-3.45,-11.26,5.40,0.28,-1.72,-46.88,9.43,-32.73
5296,-2.24,0.55,-13.13,3.66,-0.36,-0.65,-46.88,9.43,-32.73
5307,-1.81,-0.28,-15.83,3.15,-0.81,-0.74,-46.88,9.43,-32.73
5318,-1.81,-0.28,-15.83,3.15,-0.81,-0.74,-46.88,9.43,-32.73
5329,-1.67,-1.87,-13.83,3.46,-1.38,-1.05,-46.88,9.43,-32.73
5340,-1.67,-1.87,-13.83,3.46,-1.38,-1.05,-46.88,9.43,-32.73
5351,-2.04,-1.26,-12.85,3.39,-1.64,-1.16,-46.88,9.43,-32.73
5362,-2.04,-1.26,-12.85,3.39,-1.64,-1.16,-46.88,9.43,-32.73
5373,-1.43,-2.04,-13.41,3.44,-1.99,-1.25,-46.88,9.43,-32.73
5384,-1.43,-2.04,-13.41,3.44,-1.99,-1.25,-46.88,9.43,-32.73
5395,-1.30,-5.93,-12.27,4.08,-2.83,-1.10,-52.28,-9.62,-28.55
5406,-3.44,-4.70,-10.28,3.60,-3.62,-0.70,-52.28,-9.62,-28.55
5417,-3.44,-4.70,-10.28,3.60,-3.62,-0.70,-52.28,-9.62,-28.55
5428,-2.97,-3.06,-9.31,2.66,-4.01,-0.86,-52.28,-9.62,-28.55
5439,-2.97,-3.06,-9.31,2.66,-4.01,-0.86,-52.28,-9.62,-28.55
5450,-1.03,-4.11,-8.24,2.07,-4.43,-1.25,-52.28,-9.62,-28.55
5461,-1.03,-4.11,-8.24,2.07,-4.43,-1.25,-52.28,-9.62,-28.55
5472,-2.27,-6.86,-6.75,1.73,-4.99,-1.24,-52.28,-9.62,-28.55
5483,-2.27,-6.86,-6.75,1.73,-4.99,-1.24,-52.28,-9.62,-28.55
5494,-1.80,-5.00,-8.34,1.04,-5.47,-1.01,-52.28,-9.62,-28.55
5506,-1.80,-5.00,-8.34,1.04,-5.47,-1.01,-52.28,-9.62,-28.55
5516,-0.10,-5.22,-6.73,1.98,-6.24,-1.02,-67.43,-19.81,-10.11
5527,0.58,-5.49,-3.69,3.23,-6.90,-0.80,-67.43,-19.81,-10.11
5538,0.58,-5.49,-3.69,3.23,-6.90,-0.80,-67.43,-19.81,-10.11
5549,-0.44,-6.70,1.30,3.36,-7.17,-0.32,-67.43,-19.81,-10.11
5560,-0.44,-6.70,1.30,3.36,-7.17,-0.32,-67.43,-19.81,-10.11
5571,-2.96,-4.64,5.35,2.39,-6.36,0.20,-67.43,-19.81,-10.11
5582,-2.96,-4.64,5.35,2.39,-6.36,0.20,-67.43,-19.81,-10.11
5593,-5.68,-1.95,7.27,3.44,-4.57,0.45,-67.43,-19.81,-10.11
5604,-5.68,-1.95,7.27,3.44,-4.57,0.45,-67.43,-19.81,-10.11
5615,-5.42,-8.43,3.23,2.64,-2.88,0.18,-67.43,-19.81,-10.11
5626,-5.42,-8.43,3.23,2.64,-2.88,0.18,-67.43,-19.81,-10.11
5637,-2.15,-7.25,-3.44,1.08,-2.30,0.84,-67.69,-20.55,17.63
5648,-2.29,-2.81,-2.85,1.20,-3.12,1.65,-67.69,-20.55,17.63
5659,-2.29,-2.81,-2.85,1.20,-3.12,1.65,-67.69,-20.55,17.63
5670,-4.92,-4.44,2.21,2.30,-3.64,1.82,-67.69,-20.55,17.63
5681,-4.92,-4.44,2.21,2.30,-3.64,1.82,-67.69,-20.55,17.63
5692,-6.14,-5.16,7.42,2.21,-2.77,1.87,-67.69,-20.55,17.63
5703,-6.14,-5.16,7.42,2.21,-2.77,1.87,-67.69,-20.55,17.63
5714,-6.99,-5.42,3.42,0.60,-1.16,1.76,-67.69,-20.55,17.63
5725,-6.99,-5.42,3.42,0.60,-1.16,1.76,-67.69,-20.55,17.63
5736,-6.80,-2.86,-1.87,0.21,-0.90,1.87,-67.69,-20.55,17.63
5747,-6.90,-3.11,-0.57,1.21,-2.08,2.05,-67.69,-20.55,17.63
5758,-6.90,-3.11,-0.57,1.21,-2.08,2.05,-67.69,-20.55,17.63
5769,-8.48,-2.67,2.96,2.70,-2.46,2.18,-65.38,-11.24,28.32
5780,-8.48,-2.67,2.96,2.70,-2.46,2.18,-65.38,-11.24,28.32
5791,-10.18,-0.94,4.20,4.34,-1.77,1.97,-65.38,-11.24,28.32
5802,-10.18,-0.94,4.20,4.34,-1.77,1.97,-65.38,-11.24,28.32
5813,-12.04,-0.02,2.56,4.99,-1.41,1.21,-65.38,-11.24,28.32
5824,-12.04,-0.02,2.56,4.99,-1.41,1.21,-65.38,-11.24,28.32
5835,-10.95,-0.83,5.67,4.85,-1.68,0.50,-65.38,-11.24,28.32
5846,-10.95,-0.83,5.67,4.85,-1.68,0.50,-65.38,-11.24,28.32
5857,-10.08,-2.36,10.10,4.08,-1.27,0.22,-65.38,-11.24,28.32
5868,-11.04,-1.49,8.15,0.99,-0.43,0.05,-65.38,-11.24,28.32
5879,-11.04,-1.49,8.15,0.99,-0.43,0.05,-65.38,-11.24,28.32
5890,-8.99,-1.47,6.11,-0.55,0.02,-0.02,-58.18,5.89,33.58
5901,-8.99,-1.47,6.11,-0.55,0.02,-0.02,-58.18,5.89,33.58
5912,-6.46,-3.06,5.98,-1.63,0.03,-0.07,-58.18,5.89,33.58
5923,-6.46,-3.06,5.98,-1.63,0.03,-0.07,-58.18,5.89,33.58
5934,-7.54,-2.19,6.87,-2.40,0.11,-0.03,-58.18,5.89,33.58
5945,-7.54,-2.19,6.87,-2.40,0.11,-0.03,-58.18,5.89,33.58
5956,-8.35,-1.78,10.66,-3.41,0.46,-0.35,-58.18,5.89,33.58
5967,-8.23,-2.55,6.73,-5.22,1.08,-0.44,-58.18,5.89,33.58
5978,-8.23,-2.55,6.73,-5.22,1.08,-0.44,-58.18,5.89,33.58
5989,-8.38,-1.08,0.35,-4.75,1.17,-0.10,-58.18,5.89,33.58
6000,-8.38,-1.08,0.35,-4.75,1.17,-0.10,-58.18,5.89,33.58
6011,-5.73,-1.25,-1.70,-1.61,0.28,-0.21,-58.18,-5.63,33.89
6022,-5.73,-1.25,-1.70,-1.61,0.28,-0.21,-58.18,-5.63,33.89
6033,-6.96,-2.69,3.44,1.00,-0.87,-0.25,-58.18,-5.63,33.89
6044,-6.96,-2.69,3.44,1.00,-0.87,-0.25,-58.18,-5.63,33.89
6055,-7.93,-5.57,9.44,1.07,-0.95,-0.27,-58.18,-5.63,33.89
6067,-7.93,-5.57,9.44,1.07,-0.95,-0.27,-58.18,-5.63,33.89
6077,-10.03,-3.17,7.18,-1.16,0.02,-0.36,-58.18,-5.63,33.89
6088,-10.01,-4.49,5.76,-1.09,0.97,-0.62,-58.18,-5.63,33.89
6099,-10.01,-4.49,5.76,-1.09,0.97,-0.62,-58.18,-5.63,33.89
6110,-10.88,-4.88,4.58,-1.71,1.35,-0.73,-58.18,-5.63,33.89
6121,-10.88,-4.88,4.58,-1.71,1.35,-0.73,-58.18,-5.63,33.89
6132,-9.08,-4.70,3.05,-2.51,1.24,-0.75,-63.32,-11.24,30.80
6143,-9.08,-4.70,3.05,-2.51,1.24,-0.75,-63.32,-11.24,30.80
6154,-6.80,-4.40,2.31,-2.19,1.10,-0.62,-63.32,-11.24,30.80
6165,-6.80,-4.40,2.31,-2.19,1.10,-0.62,-63.32,-11.24,30.80
6176,-5.44,-5.80,2.49,-1.45,1.14,-0.38,-63.32,-11.24,30.80
6187,-4.95,-6.33,2.80,-0.72,1.24,0.20,-63.32,-11.24,30.80
6198,-4.95,-6.33,2.80,-0.72,1.24,0.20,-63.32,-11.24,30.80
6209,-6.25,-6.74,1.92,-0.07,1.30,1.02,-63.32,-11.24,30.80
6220,-6.25,-6.74,1.92,-0.07,1.30,1.02,-63.32,-11.24,30.80
6231,-8.92,-4.22,-0.39,0.13,0.80,1.73,-63.32,-11.24,30.80
6242,-8.92,-4.22,-0.39,0.13,0.80,1.73,-63.32,-11.24,30.80
6258,-10.81,-3.04,1.70,0.55,-0.03,1.44,-63.32,-11.24,30.80
6264,-10.81,-3.04,1.70,0.55,-0.03,1.44,-63.32,-11.24,30.80
6275,-10.27,-3.59,3.54,0.63,-0.28,0.50,-67.69,-9.62,26.61
6286,-10.27,-3.59,3.54,0.63,-0.28,0.50,-67.69,-9.62,26.61
6297,-7.69,-4.53,2.11,0.41,-0.08,-0.10,-67.69,-9.62,26.61
6308,-6.52,-4.48,2.46,0.56,-0.04,0.02,-67.69,-9.62,26.61
6319,-6.52,-4.48,2.46,0.56,-0.04,0.02,-67.69,-9.62,26.61
6330,-8.05,-3.96,3.07,0.66,0.02,0.40,-67.69,-9.62,26.61
6341,-8.05,-3.96,3.07,0.66,0.02,0.40,-67.69,-9.62,26.61
6352,-10.76,-3.97,2.13,0.54,0.10,0.42,-67.69,-9.62,26.61
6363,-10.76,-3.97,2.13,0.54,0.10,0.42,-67.69,-9.62,26.61
6374,-10.09,-3.34,2.34,0.40,-0.06,0.21,-67.69,-9.62,26.61
6385,-10.09,-3.34,2.34,0.40,-0.06,0.21,-67.69,-9.62,26.61
6396,-8.11,-3.67,2.97,0.37,-0.11,-0.05,-70.00,-9.47,27.39
6407,-8.11,-3.67,2.97,0.37,-0.11,-0.05,-70.00,-9.47,27.39
6418,-8.56,-3.64,2.44,0.25,-0.04,0.08,-70.00,-9.47,27.39
6429,-9.57,-3.24,3.00,0.29,-0.12,0.15,-70.00,-9.47,27.39
6440,-9.57,-3.24,3.00,0.29,-0.12,0.15,-70.00,-9.47,27.39
6451,-8.96,-3.32,3.27,0.19,-0.13,0.02,-70.00,-9.47,27.39
6462,-8.96,-3.32,3.27,0.19,-0.13,0.02,-70.00,-9.47,27.39
6474,-8.87,-3.35,2.91,0.01,-0.08,-0.04,-70.00,-9.47,27.39
6484,-8.87,-3.35,2.91,0.01,-0.08,-0.04,-70.00,-9.47,27.39
6495,-8.58,-3.43,3.25,-0.09,-0.08,-0.06,-70.00,-9.47,27.39
6506,-8.58,-3.43,3.25,-0.09,-0.08,-0.06,-70.00,-9.47,27.39
6517,-8.15,-3.92,3.01,-0.12,-0.01,-0.07,-65.89,-7.40,26.46
6528,-8.69,-4.03,2.75,-0.03,0.08,-0.08,-65.89,-7.40,26.46
6539,-8.69,-4.03,2.75,-0.03,0.08,-0.08,-65.89,-7.40,26.46
6550,-8.69,-3.98,2.82,0.02,0.12,-0.08,-65.89,-7.40,26.46
6561,-8.69,-3.98,2.82,0.02,0.12,-0.08,-65.89,-7.40,26.46
6572,-8.94,-3.52,2.95,0.02,0.08,-0.03,-65.89,-7.40,26.46
6583,-8.94,-3.52,2.95,0.02,0.08,-0.03,-65.89,-7.40,26.46
6594,-8.82,-3.44,2.95,-0.02,0.07,-0.06,-65.89,-7.40,26.46
6605,-8.82,-3.44,2.95,-0.02,0.07,-0.06,-65.89,-7.40,26.46
6616,-8.82,-3.81,2.87,-0.03,0.11,-0.10,-65.89,-7.40,26.46
6627,-8.82,-3.81,2.87,-0.03,0.11,-0.10,-65.89,-7.40,26.46
6638,-8.88,-3.54,3.31,-0.18,0.20,-0.07,-65.89,-7.40,26.46
6649,-8.82,-3.81,3.27,-0.49,0.31,-0.06,-68.20,-8.73,27.23
6660,-8.82,-3.81,3.27,-0.49,0.31,-0.06,-68.20,-8.73,27.23
6671,-9.11,-3.39,2.58,-0.83,0.34,0.01,-68.20,-8.73,27.23
6682,-9.11,-3.39,2.58,-0.83,0.34,0.01,-68.20,-8.73,27.23
6693,-9.15,-3.31,2.62,-1.00,0.31,0.10,-68.20,-8.73,27.23
6704,-9.15,-3.31,2.62,-1.00,0.31,0.10,-68.20,-8.73,27.23
6715,-8.74,-3.43,2.03,-1.15,0.27,0.15,-68.20,-8.73,27.23
6726,-8.74,-3.43,2.03,-1.15,0.27,0.15,-68.20,-8.73,27.23
6737,-8.69,-3.51,0.99,-0.97,0.13,0.14,-68.20,-8.73,27.23
6748,-8.91,-4.12,2.69,-0.54,-0.12,0.11,-68.20,-8.73,27.23
6759,-8.91,-4.12,2.69,-0.54,-0.12,0.11,-68.20,-8.73,27.23
6770,-8.45,-4.75,1.47,-0.65,-0.10,0.14,-68.20,-10.21,25.06
6781,-8.45,-4.75,1.47,-0.65,-0.10,0.14,-68.20,-10.21,25.06
6792,-8.96,-4.75,1.66,-0.64,-0.23,0.31,-68.20,-10.21,25.06
6803,-8.96,-4.75,1.66,-0.64,-0.23,0.31,-68.20,-10.21,25.06
6814,-8.49,-4.35,2.44,-0.51,-0.32,0.41,-68.20,-10.21,25.06
6825,-8.49,-4.35,2.44,-0.51,-0.32,0.41,-68.20,-10.21,25.06
6836,-9.04,-3.69,3.12,-0.46,-0.32,0.39,-68.20,-10.21,25.06
6847,-9.04,-3.69,3.12,-0.46,-0.32,0.39,-68.20,-10.21,25.06
6858,-8.54,-3.71,1.64,-0.43,-0.25,0.31,-68.20,-10.21,25.06
6869,-8.61,-4.24,1.65,-0.26,-0.36,0.22,-68.20,-10.21,25.06
6880,-8.61,-4.24,1.65,-0.26,-0.36,0.22,-68.20,-10.21,25.06
6891,-8.21,-4.45,0.57,-0.03,-0.52,0.31,-67.95,-10.95,27.39
6903,-8.21,-4.45,0.57,-0.03,-0.52,0.31,-67.95,-10.95,27.39
6913,-8.34,-4.26,2.62,0.34,-0.79,0.38,-67.95,-10.95,27.39
6924,-8.34,-4.26,2.62,0.34,-0.79,0.38,-67.95,-10.95,27.39
6935,-8.52,-4.64,2.54,0.44,-0.79,0.39,-67.95,-10.95,27.39
6946,-8.52,-4.64,2.54,0.44,-0.79,0.39,-67.95,-10.95,27.39
6957,-8.03,-4.42,2.23,0.65,-0.80,0.42,-67.95,-10.95,27.39
6968,-8.23,-3.76,3.30,0.80,-0.88,0.51,-67.95,-10.95,27.39
6979,-8.23,-3.76,3.30,0.80,-0.88,0.51,-67.95,-10.95,27.39
6990,-8.32,-3.16,2.07,0.72,-0.88,0.56,-67.95,-10.95,27.39
7001,-8.32,-3.16,2.07,0.72,-0.88,0.56,-67.95,-10.95,27.39
7012,-8.42,-3.05,3.95,1.01,-1.01,0.58,-67.95,-10.95,27.39
7023,-8.42,-3.05,3.95,1.01,-1.01,0.58,-67.95,-10.95,27.39
7034,-8.27,-3.11,1.16,1.15,-0.98,0.45,-65.63,-6.96,30.33
7045,-8.27,-3.11,1.16,1.15,-0.98,0.45,-65.63,-6.96,30.33
7056,-8.44,-2.67,3.16,1.71,-1.21,0.45,-65.63,-6.96,30.33
7067,-8.44,-2.67,3.16,1.71,-1.21,0.45,-65.63,-6.96,30.33
7078,-9.13,-2.09,4.68,1.97,-1.09,0.37,-65.63,-6.96,30.33
7089,-8.40,-2.31,4.64,1.75,-0.82,0.26,-65.63,-6.96,30.33
7100,-8.40,-2.31,4.64,1.75,-0.82,0.26,-65.63,-6.96,30.33
7111,-9.02,-1.40,6.03,1.45,-0.66,0.21,-65.63,-6.96,30.33
7122,-9.02,-1.40,6.03,1.45,-0.66,0.21,-65.63,-6.96,30.33
7133,-9.01,-1.19,6.72,1.01,-0.32,-0.09,-65.63,-6.96,30.33
7144,-9.01,-1.19,6.72,1.01,-0.32,-0.09,-65.63,-6.96,30.33
7155,-9.54,-0.98,5.95,0.30,0.07,-0.48,-59.98,-0.17,32.81
7166,-9.54,-0.98,5.95,0.30,0.07,-0.48,-59.98,-0.17,32.81
7177,-8.77,-1.50,5.65,-0.23,0.47,-0.72,-59.98,-0.17,32.81
7188,-9.09,-1.48,4.57,-0.44,0.77,-0.83,-59.98,-0.17,32.81
7199,-9.09,-1.48,4.57,-0.44,0.77,-0.83,-59.98,-0.17,32.81
7210,-8.47,-1.34,4.17,-0.52,0.98,-0.85,-59.98,-0.17,32.81
7221,-8.47,-1.34,4.17,-0.52,0.98,-0.85,-59.98,-0.17,32.81
7232,-8.95,-1.63,4.56,-0.58,1.06,-0.80,-59.98,-0.17,32.81
7243,-8.95,-1.63,4.56,-0.58,1.06,-0.80,-59.98,-0.17,32.81
7254,-9.37,-1.62,5.60,-0.87,1.32,-0.88,-59.98,-0.17,32.81
7265,-9.37,-1.62,5.60,-0.87,1.32,-0.88,-59.98,-0.17,32.81
7276,-8.59,-2.75,3.41,-1.27,1.66,-0.96,-66.15,-4.89,29.09
7287,-8.59,-2.75,3.41,-1.27,1.66,-0.96,-66.15,-4.89,29.09
7298,-8.21,-3.44,1.90,-1.26,1.67,-0.91,-66.15,-4.89,29.09
7310,-8.01,-4.30,1.97,-1.02,1.37,-0.72,-66.15,-4.89,29.09
7320,-8.01,-4.30,1.97,-1.02,1.37,-0.72,-66.15,-4.89,29.09
7331,-8.45,-4.47,1.97,-0.73,1.06,-0.43,-66.15,-4.89,29.09
7342,-8.45,-4.47,1.97,-0.73,1.06,-0.43,-66.15,-4.89,29.09
7353,-8.97,-3.94,2.10,-0.43,0.87,-0.23,-66.15,-4.89,29.09
7364,-8.97,-3.94,2.10,-0.43,0.87,-0.23,-66.15,-4.89,29.09
7375,-8.90,-3.01,2.31,-0.43,0.90,-0.09,-66.15,-4.89,29.09
7386,-8.90,-3.01,2.31,-0.43,0.90,-0.09,-66.15,-4.89,29.09
7397,-8.85,-3.25,1.55,-0.63,0.83,-0.07,-70.26,-10.21,23.20
7408,-8.85,-3.25,1.55,-0.63,0.83,-0.07,-70.26,-10.21,23.20
7419,-8.96,-3.68,1.72,-0.57,0.68,-0.08,-70.26,-10.21,23.20
7430,-9.04,-3.58,0.69,-0.53,0.60,-0.04,-70.26,-10.21,23.20
7441,-9.04,-3.58,0.69,-0.53,0.60,-0.04,-70.26,-10.21,23.20
7452,-9.50,-3.90,1.70,-0.46,0.56,0.05,-70.26,-10.21,23.20
7463,-9.50,-3.90,1.70,-0.46,0.56,0.05,-70.26,-10.21,23.20
7474,-8.86,-3.51,0.80,-0.64,0.64,0.15,-70.26,-10.21,23.20
7485,-8.86,-3.51,0.80,-0.64,0.64,0.15,-70.26,-10.21,23.20
7496,-9.18,-3.37,1.01,-0.63,0.56,0.13,-70.26,-10.21,23.20
7507,-9.18,-3.37,1.01,-0.63,0.56,0.13,-70.26,-10.21,23.20
7518,-9.00,-3.70,1.21,-0.62,0.42,0.08,-70.26,-10.21,23.20
7529,-9.15,-3.84,1.42,-0.69,0.34,0.10,-71.29,-10.21,21.65
7540,-9.15,-3.84,1.42,-0.69,0.34,0.10,-71.29,-10.21,21.65
7551,-9.10,-4.80,0.14,-0.77,0.29,0.19,-71.29,-10.21,21.65
7562,-9.10,-4.80,0.14,-0.77,0.29,0.19,-71.29,-10.21,21.65
7573,-9.02,-4.13,-0.22,-0.68,-0.04,0.46,-71.29,-10.21,21.65
7584,-9.02,-4.13,-0.22,-0.68,-0.04,0.46,-71.29,-10.21,21.65
7595,-9.08,-3.69,0.84,-0.50,-0.44,0.65,-71.29,-10.21,21.65
7606,-9.08,-3.69,0.84,-0.50,-0.44,0.65,-71.29,-10.21,21.65
7617,-8.30,-3.33,0.64,-0.40,-0.55,0.55,-71.29,-10.21,21.65
7628,-8.30,-3.33,0.64,-0.40,-0.55,0.55,-71.29,-10.21,21.65
7639,-8.68,-3.67,0.24,-0.27,-0.73,0.35,-71.29,-10.21,21.65
7650,-8.36,-4.36,1.33,0.01,-0.90,0.20,-72.57,-9.18,22.43
7661,-8.36,-4.36,1.33,0.01,-0.90,0.20,-72.57,-9.18,22.43
7672,-9.05,-4.15,1.40,0.12,-0.96,0.17,-72.57,-9.18,22.43
7683,-9.05,-4.15,1.40,0.12,-0.96,0.17,-72.57,-9.18,22.43
7694,-8.35,-4.30,1.13,0.18,-1.10,0.25,-72.57,-9.18,22.43
7705,-8.35,-4.30,1.13,0.18,-1.10,0.25,-72.57,-9.18,22.43
7716,-8.52,-4.39,2.25,0.34,-1.29,0.42,-72.57,-9.18,22.43
7727,-8.52,-4.39,2.25,0.34,-1.29,0.42,-72.57,-9.18,22.43
7738,-8.30,-3.61,1.75,0.42,-1.26,0.53,-72.57,-9.18,22.43
7749,-8.75,-3.76,2.53,0.50,-1.22,0.44,-72.57,-9.18,22.43
7760,-8.75,-3.76,2.53,0.50,-1.22,0.44,-72.57,-9.18,22.43
7771,-9.21,-3.38,2.31,0.44,-1.20,0.37,-67.95,-8.29,28.01
7782,-9.21,-3.38,2.31,0.44,-1.20,0.37,-67.95,-8.29,28.01
7793,-9.45,-3.26,3.09,0.51,-1.05,0.30,-67.95,-8.29,28.01
7804,-9.45,-3.26,3.09,0.51,-1.05,0.30,-67.95,-8.29,28.01
7815,-8.67,-3.25,2.26,0.54,-0.71,0.18,-67.95,-8.29,28.01
7826,-8.67,-3.25,2.26,0.54,-0.71,0.18,-67.95,-8.29,28.01
7837,-9.40,-3.29,3.06,0.77,-0.67,0.14,-67.95,-8.29,28.01
7848,-9.40,-3.29,3.06,0.77,-0.67,0.14,-67.95,-8.29,28.01
7859,-8.80,-3.00,3.07,0.95,-0.64,0.10,-67.95,-8.29,28.01
7870,-9.00,-2.50,4.60,1.05,-0.57,0.03,-67.95,-8.29,28.01
7881,-9.00,-2.50,4.60,1.05,-0.57,0.03,-67.95,-8.29,28.01
7892,-9.40,-2.07,3.91,0.85,-0.24,-0.08,-67.95,-8.29,28.01
7903,-9.40,-2.07,3.91,0.85,-0.24,-0.08,-67.95,-8.29,28.01
7914,-9.40,-1.26,4.76,0.54,0.13,-0.29,-62.04,-6.08,29.40
7925,-9.40,-1.26,4.76,0.54,0.13,-0.29,-62.04,-6.08,29.40
7936,-9.18,-1.62,4.12,0.12,0.51,-0.60,-62.04,-6.08,29.40
7947,-9.18,-1.62,4.12,0.12,0.51,-0.60,-62.04,-6.08,29.40
7958,-9.13,-1.91,3.01,-0.12,0.72,-0.76,-62.04,-6.08,29.40
7969,-9.23,-2.74,4.36,0.03,0.79,-0.74,-62.04,-6.08,29.40
7980,-9.23,-2.74,4.36,0.03,0.79,-0.74,-62.04,-6.08,29.40
7991,-9.89,-2.39,3.91,0.04,1.07,-0.66,-62.04,-6.08,29.40
8002,-9.89,-2.39,3.91,0.04,1.07,-0.66,-62.04,-6.08,29.40
8013,-9.08,-2.21,3.19,-0.04,1.45,-0.73,-62.04,-6.08,29.40
8025,-9.08,-2.21,3.19,-0.04,1.45,-0.73,-62.04,-6.08,29.40
8035,-8.15,-2.57,2.44,-0.28,1.71,-0.80,-68.72,-8.44,26.61
8046,-8.15,-2.57,2.44,-0.28,1.71,-0.80,-68.72,-8.44,26.61
8057,-8.49,-3.04,1.37,-0.60,1.48,-0.77,-68.72,-8.44,26.61
8068,-8.49,-3.04,1.37,-0.60,1.48,-0.77,-68.72,-8.44,26.61
8079,-9.12,-4.27,2.84,-0.52,1.25,-0.62,-68.72,-8.44,26.61
8090,-9.18,-4.81,2.36,-0.64,1.35,-0.36,-68.72,-8.44,26.61
8101,-9.18,-4.81,2.36,-0.64,1.35,-0.36,-68.72,-8.44,26.61
8112,-8.84,-4.80,0.09,-0.62,1.41,0.07,-68.72,-8.44,26.61
8123,-8.84,-4.80,0.09,-0.62,1.41,0.07,-68.72,-8.44,26.61
8134,-8.55,-3.29,0.26,-0.42,1.14,0.43,-68.72,-8.44,26.61
8145,-8.55,-3.29,0.26,-0.42,1.14,0.43,-68.72,-8.44,26.61
8156,-9.18,-2.93,1.59,-0.43,0.81,0.37,-76.94,-8.14,19.17
8167,-9.18,-2.93,1.59,-0.43,0.81,0.37,-76.94,-8.14,19.17
8178,-8.94,-2.53,0.45,-0.50,0.64,0.10,-76.94,-8.14,19.17
8189,-9.05,-3.33,0.66,-0.44,0.56,-0.16,-76.94,-8.14,19.17
8200,-9.05,-3.33,0.66,-0.44,0.56,-0.16,-76.94,-8.14,19.17
8211,-9.56,-3.87,0.85,-0.49,0.60,-0.22,-76.94,-8.14,19.17
8222,-9.56,-3.87,0.85,-0.49,0.60,-0.22,-76.94,-8.14,19.17
8233,-9.62,-4.25,0.45,-0.55,0.61,-0.05,-76.94,-8.14,19.17
8244,-9.62,-4.25,0.45,-0.55,0.61,-0.05,-76.94,-8.14,19.17
8255,-9.37,-3.74,-0.43,-0.74,0.42,0.16,-76.94,-8.14,19.17
8266,-9.37,-3.74,-0.43,-0.74,0.42,0.16,-76.94,-8.14,19.17
8277,-9.20,-3.28,-0.44,-0.73,-0.00,0.22,-76.94,-8.14,19.17
8288,-9.20,-3.28,-0.44,-0.73,-0.00,0.22,-76.94,-8.14,19.17
8299,-9.24,-3.09,-0.28,-0.70,-0.24,0.19,-76.17,-10.65,18.71
8310,-9.02,-4.33,-1.26,-0.71,-0.32,0.15,-76.17,-10.65,18.71
8321,-9.02,-4.33,-1.26,-0.71,-0.32,0.15,-76.17,-10.65,18.71
8332,-9.08,-4.55,-0.58,-0.57,-0.47,0.34,-76.17,-10.65,18.71
8343,-9.08,-4.55,-0.58,-0.57,-0.47,0.34,-76.17,-10.65,18.71
8354,-9.15,-3.71,-0.25,-0.48,-0.59,0.50,-76.17,-10.65,18.71
8365,-9.15,-3.71,-0.25,-0.48,-0.59,0.50,-76.17,-10.65,18.71
8376,-8.62,-3.81,-0.68,-0.40,-0.76,0.52,-76.17,-10.65,18.71
8387,-8.62,-3.81,-0.68,-0.40,-0.76,0.52,-76.17,-10.65,18.71
8398,-8.35,-2.97,-0.15,-0.30,-1.05,0.49,-76.17,-10.65,18.71
8410,-9.08,-3.48,1.19,-0.28,-1.19,0.34,-76.68,-9.18,18.71
8420,-9.08,-3.48,1.19,-0.28,-1.19,0.34,-76.68,-9.18,21.50
8431,-9.01,-4.00,1.61,-0.21,-0.93,0.11,-76.68,-9.18,21.50
8442,-9.01,-4.00,1.61,-0.21,-0.93,0.11,-76.68,-9.18,21.50
8453,-8.91,-4.44,-0.12,-0.20,-0.73,0.01,-76.68,-9.18,21.50
8464,-8.91,-4.44,-0.12,-0.20,-0.73,0.01,-76.68,-9.18,21.50
8475,-8.42,-4.68,-1.85,-0.16,-1.00,0.19,-76.68,-9.18,21.50
8486,-8.42,-4.68,-1.85,-0.16,-1.00,0.19,-76.68,-9.18,21.50
8497,-8.49,-3.68,-0.73,0.19,-1.85,0.61,-76.68,-9.18,21.50
8508,-8.49,-3.68,-0.73,0.19,-1.85,0.61,-76.68,-9.18,21.50
8519,-9.46,-3.36,5.65,0.92,-2.00,0.72,-76.68,-9.18,21.50
8530,-8.92,-3.74,0.52,0.88,-1.15,0.43,-70.00,-7.70,25.22
8541,-8.92,-3.74,0.52,0.88,-1.15,0.43,-70.00,-7.70,25.22
8552,-9.74,-2.10,3.72,1.30,-0.96,0.33,-70.00,-7.70,25.22
8563,-9.74,-2.10,3.72,1.30,-0.96,0.33,-70.00,-7.70,25.22
8574,-9.76,-1.49,3.33,1.02,-0.55,0.09,-70.00,-7.70,25.22
8585,-9.76,-1.49,3.33,1.02,-0.55,0.09,-70.00,-7.70,25.22
8596,-9.81,-2.16,2.58,0.66,-0.30,-0.16,-70.00,-7.70,25.22
8607,-9.81,-2.16,2.58,0.66,-0.30,-0.16,-70.00,-7.70,25.22
8618,-9.41,-2.50,4.06,0.59,-0.20,-0.28,-70.00,-7.70,25.22
8629,-9.41,-2.50,4.06,0.59,-0.20,-0.28,-70.00,-7.70,25.22
8640,-9.23,-2.61,3.42,0.60,0.01,-0.30,-70.00,-7.70,25.22
8651,-9.57,-1.71,3.35,0.65,0.26,-0.23,-66.15,-5.78,27.85
8662,-9.57,-1.71,3.35,0.65,0.26,-0.23,-66.15,-5.78,27.85
8673,-9.70,-0.86,3.86,0.52,0.48,-0.29,-66.15,-5.78,27.85
8684,-9.70,-0.86,3.86,0.52,0.48,-0.29,-66.15,-5.78,27.85
8695,-9.44,-1.85,3.41,0.25,0.76,-0.54,-66.15,-5.78,27.85
8706,-9.44,-1.85,3.41,0.25,0.76,-0.54,-66.15,-5.78,27.85
8717,-9.14,-2.19,3.06,-0.01,0.84,-0.65,-66.15,-5.78,27.85
8728,-9.14,-2.19,3.06,-0.01,0.84,-0.65,-66.15,-5.78,27.85
8739,-9.46,-3.03,2.98,-0.08,0.96,-0.67,-66.15,-5.78,27.85
8750,-9.42,-2.85,1.35,-0.22,1.24,-0.59,-66.15,-5.78,27.85
8761,-9.42,-2.85,1.35,-0.22,1.24,-0.59,-66.15,-5.78,27.85
8772,-9.17,-3.02,2.50,-0.15,1.29,-0.53,-66.15,-5.78,27.85
8783,-9.17,-3.02,2.50,-0.15,1.29,-0.53,-66.15,-5.78,27.85
8794,-9.04,-3.09,0.30,-0.30,1.31,-0.49,-72.57,-7.70,23.05
8805,-9.04,-3.09,0.30,-0.30,1.31,-0.49,-72.57,-7.70,23.05
8816,-9.16,-3.03,0.90,-0.23,1.11,-0.40,-72.57,-7.70,23.05
8827,-9.16,-3.03,0.90,-0.23,1.11,-0.40,-72.57,-7.70,23.05
8838,-9.43,-3.36,1.75,-0.16,1.03,-0.40,-72.57,-7.70,23.05
8849,-9.43,-3.36,1.75,-0.16,1.03,-0.40,-72.57,-7.70,23.05
8860,-9.48,-3.30,0.84,-0.29,1.13,-0.31,-72.57,-7.70,23.05
8871,-9.28,-3.19,0.23,-0.35,1.22,-0.21,-72.57,-7.70,23.05
8882,-9.28,-3.19,0.23,-0.35,1.22,-0.21,-72.57,-7.70,23.05
8893,-9.26,-3.01,-0.46,-0.47,1.05,-0.11,-72.57,-7.70,23.05
8904,-9.26,-3.01,-0.46,-0.47,1.05,-0.11,-72.57,-7.70,23.05
8915,-9.24,-3.81,0.85,-0.43,0.83,-0.10,-77.19,-9.77,18.71
8926,-9.24,-3.81,0.85,-0.43,0.83,-0.10,-77.19,-9.77,18.71
8937,-9.48,-3.45,0.83,-0.37,0.79,-0.17,-77.19,-9.77,18.71
8948,-9.48,-3.45,0.83,-0.37,0.79,-0.17,-77.19,-9.77,18.71
8959,-9.18,-3.35,-0.01,-0.35,0.82,-0.19,-77.19,-9.77,18.71
8970,-9.51,-3.49,-0.23,-0.48,0.82,-0.13,-77.19,-9.77,18.71
8981,-9.51,-3.49,-0.23,-0.48,0.82,-0.13,-77.19,-9.77,18.71
8992,-9.25,-3.56,-1.23,-0.66,0.71,0.00,-77.19,-9.77,18.71
9003,-9.25,-3.56,-1.23,-0.66,0.71,0.00,-77.19,-9.77,18.71
9014,-9.63,-3.22,-1.59,-0.66,0.39,0.11,-77.19,-9.77,18.71
9025,-9.63,-3.22,-1.59,-0.66,0.39,0.11,-77.19,-9.77,18.71
9036,-9.34,-3.19,-1.52,-0.61,0.19,0.14,-76.17,-10.36,15.92
9047,-9.34,-3.19,-1.52,-0.61,0.19,0.14,-76.17,-10.36,15.92
9058,-9.01,-4.02,-0.97,-0.59,0.08,0.19,-76.17,-10.36,15.92
9069,-9.01,-4.02,-0.97,-0.59,0.08,0.19,-76.17,-10.36,15.92
9080,-9.27,-3.92,-1.54,-0.63,-0.19,0.30,-76.17,-10.36,15.92
9091,-9.20,-3.40,-1.92,-0.58,-0.60,0.38,-76.17,-10.36,15.92
9102,-9.20,-3.40,-1.92,-0.58,-0.60,0.38,-76.17,-10.36,15.92
9113,-9.04,-3.45,-0.53,-0.32,-1.04,0.35,-76.17,-10.36,15.92
9124,-9.04,-3.45,-0.53,-0.32,-1.04,0.35,-76.17,-10.36,15.92
9135,-9.00,-2.90,0.35,-0.32,-1.05,0.14,-76.17,-10.36,15.92
9146,-9.00,-2.90,0.35,-0.32,-1.05,0.14,-76.17,-10.36,15.92
9157,-9.42,-4.45,0.04,-0.43,-0.90,-0.05,-76.17,-10.36,15.92
9168,-9.42,-4.45,0.04,-0.43,-0.90,-0.05,-76.17,-10.36,15.92
9179,-9.00,-5.10,-1.38,-0.32,-0.90,0.14,-77.45,-10.51,17.94
9191,-8.85,-4.25,-0.85,-0.12,-1.27,0.48,-77.45,-10.51,17.94
9201,-8.85,-4.25,-0.85,-0.12,-1.27,0.48,-77.45,-10.51,17.94
9212,-9.15,-3.65,0.19,-0.04,-1.65,0.69,-77.45,-10.51,17.94
9223,-9.15,-3.65,0.19,-0.04,-1.65,0.69,-77.45,-10.51,17.94
9234,-9.08,-3.13,2.10,0.17,-1.65,0.61,-77.45,-10.51,17.94
9245,-9.08,-3.13,2.10,0.17,-1.65,0.61,-77.45,-10.51,17.94
9256,-9.11,-3.55,0.95,0.15,-1.14,0.23,-77.45,-10.51,17.94
9267,-9.11,-3.55,0.95,0.15,-1.14,0.23,-77.45,-10.51,17.94
9278,-9.35,-3.78,2.52,0.23,-0.80,0.07,-77.45,-10.51,17.94
9289,-9.35,-3.78,2.52,0.23,-0.80,0.07,-77.45,-10.51,17.94
9300,-8.97,-3.96,-0.04,0.19,-0.67,0.10,-71.80,-8.14,22.27
9311,-8.76,-3.23,1.14,0.33,-0.99,0.25,-71.80,-8.14,22.27
9322,-8.76,-3.23,1.14,0.33,-0.99,0.25,-71.80,-8.14,22.27
9333,-8.63,-3.14,1.90,0.47,-1.07,0.25,-71.80,-8.14,22.27
9344,-8.63,-3.14,1.90,0.47,-1.07,0.25,-71.80,-8.14,22.27
9355,-9.65,-2.89,3.13,0.76,-1.06,0.19,-71.80,-8.14,22.27
9366,-9.65,-2.89,3.13,0.76,-1.06,0.19,-71.80,-8.14,22.27
9377,-9.49,-2.76,2.74,0.77,-0.68,0.16,-71.80,-8.14,22.27
9388,-9.49,-2.76,2.74,0.77,-0.68,0.16,-71.80,-8.14,22.27
9399,-9.70,-1.71,2.78,0.83,-0.35,0.22,-71.80,-8.14,22.27
9410,-9.70,-1.71,2.78,0.83,-0.35,0.22,-71.80,-8.14,22.27
9421,-10.16,-0.48,3.25,0.80,-0.03,0.09,-70.00,-6.81,27.08
9432,-9.79,-0.96,3.62,0.53,0.40,-0.29,-70.00,-6.81,27.08
9443,-9.79,-0.96,3.62,0.53,0.40,-0.29,-70.00,-6.81,27.08
9454,-9.23,-2.06,3.26,0.21,0.72,-0.66,-70.00,-6.81,27.08
9465,-9.23,-2.06,3.26,0.21,0.72,-0.66,-70.00,-6.81,27.08
9476,-9.15,-2.84,1.68,-0.03,0.83,-0.79,-70.00,-6.81,27.08
9487,-9.15,-2.84,1.68,-0.03,0.83,-0.79,-70.00,-6.81,27.08
9498,-9.56,-3.45,2.18,0.12,0.71,-0.73,-70.00,-6.81,27.08
9509,-9.56,-3.45,2.18,0.12,0.71,-0.73,-70.00,-6.81,27.08
9520,-9.61,-3.02,2.15,0.25,0.77,-0.56,-70.00,-6.81,27.08
9531,-9.44,-2.18,1.93,0.20,1.02,-0.42,-70.00,-6.81,27.08
9542,-9.44,-2.18,1.93,0.20,1.02,-0.42,-70.00,-6.81,27.08
9553,-9.39,-2.26,1.82,0.17,1.31,-0.44,-74.88,-8.73,22.89
9564,-9.39,-2.26,1.82,0.17,1.31,-0.44,-74.88,-8.73,22.89
9575,-9.05,-3.22,0.81,-0.17,1.31,-0.45,-74.88,-8.73,22.89
9586,-9.05,-3.22,0.81,-0.17,1.31,-0.45,-74.88,-8.73,22.89
9603,-9.33,-3.72,1.05,-0.26,1.10,-0.37,-74.88,-8.73,22.89
9608,-9.33,-3.72,1.05,-0.26,1.10,-0.37,-74.88,-8.73,22.89
9619,-9.25,-3.80,0.67,-0.27,0.98,-0.18,-74.88,-8.73,22.89
9630,-9.25,-3.80,0.67,-0.27,0.98,-0.18,-74.88,-8.73,22.89
9641,-9.51,-3.65,0.41,-0.20,0.91,0.04,-74.88,-8.73,22.89
9652,-9.40,-3.11,1.26,-0.05,0.96,0.17,-74.88,-8.73,22.89
9663,-9.40,-3.11,1.26,-0.05,0.96,0.17,-74.88,-8.73,22.89
9674,-9.40,-2.23,-0.53,-0.18,1.15,0.18,-75.65,-8.00,18.71
9685,-9.40,-2.23,-0.53,-0.18,1.15,0.18,-75.65,-8.00,18.71
9696,-9.73,-1.93,-0.07,-0.28,0.90,0.09,-75.65,-8.00,18.71
9707,-9.73,-1.93,-0.07,-0.28,0.90,0.09,-75.65,-8.00,18.71
9718,-9.39,-2.34,-0.55,-0.43,0.71,-0.06,-75.65,-8.00,18.71
9729,-9.39,-2.34,-0.55,-0.43,0.71,-0.06,-75.65,-8.00,18.71
9740,-9.83,-2.71,-0.70,-0.51,0.58,-0.17,-75.65,-8.00,18.71
9751,-9.56,-3.54,-1.58,-0.51,0.51,-0.06,-75.65,-8.00,18.71
9762,-9.56,-3.54,-1.58,-0.51,0.51,-0.06,-75.65,-8.00,18.71
9773,-9.57,-3.16,-1.90,-0.50,0.39,0.20,-75.65,-8.00,18.71
9784,-9.57,-3.16,-1.90,-0.50,0.39,0.20,-75.65,-8.00,18.71
9795,-9.64,-3.44,-0.98,-0.48,0.12,0.46,-78.74,-8.88,15.30
9806,-9.64,-3.44,-0.98,-0.48,0.12,0.46,-78.74,-8.88,15.30
9817,-9.73,-2.64,-1.35,-0.58,-0.14,0.60,-78.74,-8.88,15.30
9828,-9.73,-2.64,-1.35,-0.58,-0.14,0.60,-78.74,-8.88,15.30
9839,-9.63,-2.21,-1.16,-0.57,-0.37,0.52,-78.74,-8.88,15.30
9850,-9.63,-2.21,-1.16,-0.57,-0.37,0.52,-78.74,-8.88,15.30
9861,-9.95,-2.88,0.08,-0.54,-0.48,0.43,-78.74,-8.88,15.30
9872,-9.05,-3.45,-0.95,-0.51,-0.49,0.32,-78.74,-8.88,15.30
9883,-9.05,-3.45,-0.95,-0.51,-0.49,0.32,-78.74,-8.88,15.30
9894,-9.35,-3.31,-1.10,-0.40,-0.77,0.30,-78.74,-8.88,15.30
9905,-9.35,-3.31,-1.10,-0.40,-0.77,0.30,-78.74,-8.88,15.30
9916,-9.10,-3.28,0.27,-0.20,-1.10,0.28,-80.02,-7.55,16.70
9927,-9.10,-3.28,0.27,-0.20,-1.10,0.28,-80.02,-7.55,16.70
9938,-9.46,-2.60,1.18,-0.22,-1.25,0.15,-80.02,-7.55,16.70
9949,-9.46,-2.60,1.18,-0.22,-1.25,0.15,-80.02,-7.55,16.70
9960,-9.82,-3.55,-0.57,-0.42,-1.17,0.02,-80.02,-7.55,16.70
9971,-9.22,-3.94,-0.80,-0.38,-1.37,0.10,-80.02,-7.55,16.70
9982,-9.22,-3.94,-0.80,-0.38,-1.37,0.10,-80.02,-7.55,16.70
9993,-8.59,-3.47,-0.51,-0.17,-1.73,0.32,-80.02,-7.55,16.70
10005,-8.59,-3.47,-0.51,-0.17,-1.73,0.32,-80.02,-7.55,16.70
10015,-9.33,-2.78,1.64,0.13,-1.95,0.47,-80.02,-7.55,16.70
10026,-9.33,-2.78,1.64,0.13,-1.95,0.47,-80.02,-7.55,16.70
10037,-9.12,-3.11,1.83,0.27,-1.86,0.36,-80.02,-7.55,16.70
10048,-9.12,-3.11,1.83,0.27,-1.86,0.36,-80.02,-7.55,16.70
10059,-10.03,-2.47,2.38,0.54,-1.48,0.15,-71.29,-6.08,23.82
10070,-10.03,-2.47,2.38,0.54,-1.48,0.15,-71.29,-6.08,23.82
10081,-10.04,-2.60,1.92,0.76,-0.99,-0.10,-71.29,-6.08,23.82
10092,-9.72,-2.52,2.52,0.96,-0.64,-0.29,-71.29,-6.08,23.82
10103,-9.72,-2.52,2.52,0.96,-0.64,-0.29,-71.29,-6.08,23.82
10114,-9.96,-2.31,3.28,0.86,-0.37,-0.36,-71.29,-6.08,23.82
10125,-9.96,-2.31,3.28,0.86,-0.37,-0.36,-71.29,-6.08,23.82
10136,-9.34,-2.05,2.27,0.60,-0.06,-0.37,-71.29,-6.08,23.82
10147,-9.34,-2.05,2.27,0.60,-0.06,-0.37,-71.29,-6.08,23.82
10158,-10.25,-1.79,2.89,0.60,0.07,-0.36,-71.29,-6.08,23.82
10169,-10.25,-1.79,2.89,0.60,0.07,-0.36,-71.29,-6.08,23.82
10180,-10.12,-1.87,4.43,0.61,0.37,-0.34,-70.00,-6.81,26.46
10191,-10.12,-1.87,4.43,0.61,0.37,-0.34,-70.00,-6.81,26.46
10202,-10.50,-1.70,4.76,0.40,1.02,-0.48,-70.00,-6.81,26.46
10213,-8.90,-1.91,1.84,-0.08,1.73,-0.63,-70.00,-6.81,26.46
10224,-8.90,-1.91,1.84,-0.08,1.73,-0.63,-70.00,-6.81,26.46
10235,-8.97,-2.10,0.07,-0.35,1.60,-0.50,-70.00,-6.81,26.46
10246,-8.97,-2.10,0.07,-0.35,1.60,-0.50,-70.00,-6.81,26.46
10257,-9.57,-2.49,1.97,-0.34,1.15,-0.35,-70.00,-6.81,26.46
10268,-9.57,-2.49,1.97,-0.34,1.15,-0.35,-70.00,-6.81,26.46
10279,-9.23,-3.54,0.13,-0.45,1.22,-0.25,-70.00,-6.81,26.46
10290,-9.23,-3.54,0.13,-0.45,1.22,-0.25,-70.00,-6.81,26.46
10301,-9.25,-4.03,0.82,-0.27,1.22,0.00,-74.37,-7.26,21.34
10312,-9.42,-2.51,-0.06,-0.06,1.19,0.21,-74.37,-7.26,21.34
10323,-9.42,-2.51,-0.06,-0.06,1.19,0.21,-74.37,-7.26,21.34
10334,-9.32,-1.70,0.46,0.01,1.02,0.13,-74.37,-7.26,21.34
10345,-9.32,-1.70,0.46,0.01,1.02,0.13,-74.37,-7.26,21.34
10356,-9.87,-2.34,0.42,-0.11,0.95,-0.13,-74.37,-7.26,21.34
10367,-9.87,-2.34,0.42,-0.11,0.95,-0.13,-74.37,-7.26,21.34
10378,-9.50,-3.35,0.19,-0.29,0.92,-0.20,-74.37,-7.26,21.34
10389,-9.50,-3.35,0.19,-0.29,0.92,-0.20,-74.37,-7.26,21.34
10400,-9.73,-2.71,-1.35,-0.49,0.87,0.02,-74.37,-7.26,21.34
10411,-9.73,-2.71,-1.35,-0.49,0.87,0.02,-74.37,-7.26,21.34
10422,-9.62,-3.15,0.30,-0.37,0.67,0.17,-74.37,-7.26,21.34
10433,-9.44,-1.94,-1.62,-0.41,0.65,0.26,-78.99,-7.85,16.70
10444,-9.44,-1.94,-1.62,-0.41,0.65,0.26,-78.99,-7.85,16.70
10455,-9.65,-1.36,-0.83,-0.36,0.47,0.17,-78.99,-7.85,16.70
10466,-9.65,-1.36,-0.83,-0.36,0.47,0.17,-78.99,-7.85,16.70
10477,-9.54,-2.31,-1.74,-0.49,0.41,0.06,-78.99,-7.85,16.70
10488,-9.54,-2.31,-1.74,-0.49,0.41,0.06,-78.99,-7.85,16.70
10499,-9.91,-2.66,-1.40,-0.59,0.23,0.14,-78.99,-7.85,16.70
10510,-9.91,-2.66,-1.40,-0.59,0.23,0.14,-78.99,-7.85,16.70
10521,-9.66,-3.25,-1.13,-0.58,-0.03,0.31,-78.99,-7.85,16.70
10532,-9.91,-2.42,-1.27,-0.56,-0.26,0.50,-78.99,-7.85,16.70
10543,-9.91,-2.42,-1.27,-0.56,-0.26,0.50,-78.99,-7.85,16.70
10554,-9.57,-1.77,-1.09,-0.51,-0.45,0.50,-78.99,-6.96,13.91
10566,-9.57,-1.77,-1.09,-0.51,-0.45,0.50,-78.99,-6.96,13.91
10576,-9.27,-1.86,-1.14,-0.46,-0.58,0.42,-78.99,-6.96,13.91
10587,-9.27,-1.86,-1.14,-0.46,-0.58,0.42,-78.99,-6.96,13.91
10598,-9.68,-2.38,-1.07,-0.48,-0.68,0.36,-78.99,-6.96,13.91
10609,-9.68,-2.38,-1.07,-0.48,-0.68,0.36,-78.99,-6.96,13.91
10620,-9.70,-2.88,-1.27,-0.45,-0.74,0.35,-78.99,-6.96,13.91
10631,-9.70,-2.88,-1.27,-0.45,-0.74,0.35,-78.99,-6.96,13.91
10642,-8.94,-2.51,-0.41,-0.30,-0.98,0.38,-78.99,-6.96,13.91
10653,-9.40,-2.27,-0.08,-0.35,-1.14,0.39,-78.99,-6.96,13.91
10664,-9.40,-2.27,-0.08,-0.35,-1.14,0.39,-78.99,-6.96,13.91
10675,-10.03,-2.64,0.24,-0.28,-1.30,0.36,-75.40,-4.89,17.63
10686,-10.03,-2.64,0.24,-0.28,-1.30,0.36,-75.40,-4.89,17.63
10697,-9.61,-2.73,0.44,-0.21,-1.21,0.35,-75.40,-4.89,17.63
10708,-9.61,-2.73,0.44,-0.21,-1.21,0.35,-75.40,-4.89,17.63
10719,-8.64,-3.30,-0.87,-0.09,-1.30,0.37,-75.40,-4.89,17.63
10730,-8.64,-3.30,-0.87,-0.09,-1.30,0.37,-75.40,-4.89,17.63
10741,-9.96,-1.58,1.57,0.08,-1.67,0.50,-75.40,-4.89,17.63
10752,-9.44,-2.33,1.10,-0.15,-1.56,0.35,-75.40,-4.89,17.63
10763,-9.44,-2.33,1.10,-0.15,-1.56,0.35,-75.40,-4.89,17.63
10774,-9.32,-2.37,1.27,0.17,-1.35,0.16,-75.40,-4.89,17.63
10785,-9.32,-2.37,1.27,0.17,-1.35,0.16,-75.40,-4.89,17.63
10796,-9.81,-1.87,1.18,0.72,-1.06,-0.05,-75.40,-4.89,17.63
10807,-9.81,-1.87,1.18,0.72,-1.06,-0.05,-75.40,-4.89,17.63
10818,-10.15,-1.03,2.56,0.88,-0.80,-0.26,-72.31,-5.78,24.13
10829,-10.15,-1.03,2.56,0.88,-0.80,-0.26,-72.31,-5.78,24.13
10840,-9.92,-1.35,1.89,0.74,-0.57,-0.45,-72.31,-5.78,24.13
10851,-9.92,-1.35,1.89,0.74,-0.57,-0.45,-72.31,-5.78,24.13
10862,-9.87,-1.31,3.03,0.64,-0.43,-0.57,-72.31,-5.78,24.13
10873,-9.57,-2.01,2.23,0.48,-0.17,-0.60,-72.31,-5.78,24.13
10884,-9.57,-2.01,2.23,0.48,-0.17,-0.60,-72.31,-5.78,24.13
10895,-9.93,-1.53,3.15,0.56,-0.02,-0.50,-72.31,-5.78,24.13
10906,-9.93,-1.53,3.15,0.56,-0.02,-0.50,-72.31,-5.78,24.13
10917,-10.21,-1.10,3.10,0.54,0.24,-0.50,-72.31,-5.78,24.13
10928,-10.21,-1.10,3.10,0.54,0.24,-0.50,-72.31,-5.78,24.13
10939,-9.63,-0.69,4.23,0.43,0.74,-0.67,-70.77,-6.08,25.99
10950,-9.63,-0.69,4.23,0.43,0.74,-0.67,-70.77,-6.08,25.99
10969,-9.52,-0.94,2.43,0.03,1.34,-0.97,-70.77,-6.08,25.99
10972,-9.73,-2.36,1.34,-0.15,1.48,-1.02,-70.77,-6.08,25.99
10983,-9.73,-2.36,1.34,-0.15,1.48,-1.02,-70.77,-6.08,25.99
10994,-9.49,-3.22,1.04,-0.24,1.40,-0.64,-70.77,-6.08,25.99
11005,-9.49,-3.22,1.04,-0.24,1.40,-0.64,-70.77,-6.08,25.99
11016,-9.78,-3.04,0.81,-0.26,1.43,-0.28,-70.77,-6.08,25.99
11027,-9.78,-3.04,0.81,-0.26,1.43,-0.28,-70.77,-6.08,25.99
11038,-9.61,-2.42,1.01,-0.16,1.51,-0.12,-70.77,-6.08,25.99
11049,-9.61,-2.42,1.01,-0.16,1.51,-0.12,-70.77,-6.08,25.99
11060,-9.34,-2.02,0.07,-0.15,1.54,-0.10,-74.37,-7.85,21.03
11071,-9.34,-2.02,0.07,-0.15,1.54,-0.10,-74.37,-7.85,21.03
11082,-9.47,-2.10,-0.06,-0.26,1.31,-0.13,-74.37,-7.85,21.03
11093,-9.48,-2.38,-0.80,-0.39,1.11,-0.14,-74.37,-7.85,21.03
11104,-9.48,-2.38,-0.80,-0.39,1.11,-0.14,-74.37,-7.85,21.03
11115,-9.47,-2.47,0.12,-0.38,0.97,-0.02,-74.37,-7.85,21.03
11126,-9.47,-2.47,0.12,-0.38,0.97,-0.02,-74.37,-7.85,21.03
11137,-9.85,-2.33,-1.52,-0.42,1.04,0.14,-74.37,-7.85,21.03
11148,-9.85,-2.33,-1.52,-0.42,1.04,0.14,-74.37,-7.85,21.03
11159,-9.90,-2.16,-0.59,-0.41,0.98,0.29,-74.37,-7.85,21.03
11170,-9.90,-2.16,-0.59,-0.41,0.98,0.29,-74.37,-7.85,21.03
11181,-9.77,-2.35,-2.30,-0.54,0.77,0.42,-78.74,-7.11,14.06
11192,-9.77,-2.35,-2.30,-0.54,0.77,0.42,-78.74,-7.11,14.06
11203,-9.90,-1.74,-2.25,-0.62,0.27,0.56,-78.74,-7.11,14.06
11214,-9.51,-1.48,-1.62,-0.66,-0.08,0.61,-78.74,-7.11,14.06
11225,-9.51,-1.48,-1.62,-0.66,-0.08,0.61,-78.74,-7.11,14.06
11236,-9.89,-2.39,-0.87,-0.61,-0.20,0.52,-78.74,-7.11,14.06
11247,-9.89,-2.39,-0.87,-0.61,-0.20,0.52,-78.74,-7.11,14.06
11258,-9.83,-1.96,-0.48,-0.61,-0.28,0.49,-78.74,-7.11,14.06
11269,-9.83,-1.96,-0.48,-0.61,-0.28,0.49,-78.74,-7.11,14.06
11280,-9.98,-1.98,-0.88,-0.60,-0.26,0.43,-78.74,-7.11,14.06
11291,-9.98,-1.98,-0.88,-0.60,-0.26,0.43,-78.74,-7.11,14.06
11302,-9.53,-2.19,-1.79,-0.56,-0.23,0.38,-78.74,-7.11,14.06
11313,-10.25,-2.03,-1.26,-0.53,-0.45,0.33,-78.48,-5.19,15.46
11324,-10.25,-2.03,-1.26,-0.53,-0.45,0.33,-78.48,-5.19,15.46
11335,-9.72,-2.10,-1.37,-0.48,-0.72,0.26,-78.48,-5.19,15.46
11346,-9.72,-2.10,-1.37,-0.48,-0.72,0.26,-78.48,-5.19,15.46
11357,-9.07,-2.35,-0.90,-0.32,-0.91,0.12,-78.48,-5.19,15.46
11368,-9.07,-2.35,-0.90,-0.32,-0.91,0.12,-78.48,-5.19,15.46
11379,-9.65,-2.14,0.23,-0.19,-0.99,-0.07,-78.48,-5.19,15.46
11390,-9.65,-2.14,0.23,-0.19,-0.99,-0.07,-78.48,-5.19,15.46
11401,-9.59,-1.95,-0.60,-0.28,-1.00,-0.23,-78.48,-5.19,15.46
11412,-9.59,-1.95,-0.60,-0.28,-1.00,-0.23,-78.48,-5.19,15.46
11423,-9.15,-2.81,-0.24,-0.22,-1.32,-0.23,-78.48,-5.19,15.46
11434,-9.83,-3.19,1.35,-0.10,-1.56,-0.07,-76.68,-7.11,19.64
11445,-9.83,-3.19,1.35,-0.10,-1.56,-0.07,-76.68,-7.11,19.64
11456,-9.47,-2.96,-0.35,-0.23,-1.51,-0.03,-76.68,-7.11,19.64
11467,-9.47,-2.96,-0.35,-0.23,-1.51,-0.03,-76.68,-7.11,19.64
11478,-8.78,-2.39,0.41,0.03,-1.71,0.01,-76.68,-7.11,19.64
11489,-8.78,-2.39,0.41,0.03,-1.71,0.01,-76.68,-7.11,19.64
11501,-9.40,-1.71,1.58,0.16,-1.91,0.03,-76.68,-7.11,19.64
11511,-9.40,-1.71,1.58,0.16,-1.91,0.03,-76.68,-7.11,19.64
11522,-10.45,-1.89,3.53,0.22,-1.60,-0.03,-76.68,-7.11,19.64
11533,-9.99,-2.58,2.34,0.20,-0.86,-0.10,-76.68,-7.11,19.64
11544,-9.99,-2.58,2.34,0.20,-0.86,-0.10,-76.68,-7.11,19.64
11555,-9.50,-2.10,1.89,0.57,-0.44,-0.05,-72.06,-6.81,24.29
11566,-9.50,-2.10,1.89,0.57,-0.44,-0.05,-72.06,-6.81,24.29
11577,-10.04,-1.21,2.86,0.92,-0.27,-0.05,-72.06,-6.81,24.29
11588,-10.04,-1.21,2.86,0.92,-0.27,-0.05,-72.06,-6.81,24.29
11599,-9.74,-0.80,3.49,0.76,0.15,-0.35,-72.06,-6.81,24.29
11610,-9.74,-0.80,3.49,0.76,0.15,-0.35,-72.06,-6.81,24.29
11621,-9.55,-1.41,2.66,0.40,0.55,-0.76,-72.06,-6.81,24.29
11632,-9.55,-1.41,2.66,0.40,0.55,-0.76,-72.06,-6.81,24.29
11643,-9.57,-2.33,2.59,0.28,0.74,-0.92,-72.06,-6.81,24.29
11654,-9.93,-2.70,2.57,0.30,0.88,-0.74,-72.06,-6.81,24.29
11665,-9.93,-2.70,2.57,0.30,0.88,-0.74,-72.06,-6.81,24.29
11676,-9.78,-2.62,2.62,0.31,1.24,-0.51,-72.06,-6.81,24.29
11687,-9.78,-2.62,2.62,0.31,1.24,-0.51,-72.06,-6.81,24.29
11698,-9.23,-2.24,1.04,0.26,1.69,-0.36,-73.60,-7.70,22.12
11709,-9.23,-2.24,1.04,0.26,1.69,-0.36,-73.60,-7.70,22.12
11720,-9.87,-2.37,0.79,0.20,1.82,-0.30,-73.60,-7.70,22.12
11732,-9.87,-2.37,0.79,0.20,1.82,-0.30,-73.60,-7.70,22.12
11742,-9.13,-2.64,-0.86,0.04,1.53,-0.21,-73.60,-7.70,22.12
11753,-9.33,-2.20,-0.30,0.04,1.15,-0.04,-73.60,-7.70,22.12
11764,-9.33,-2.20,-0.30,0.04,1.15,-0.04,-73.60,-7.70,22.12
11775,-9.90,-2.68,1.31,0.08,1.08,0.00,-73.60,-7.70,22.12
11786,-9.90,-2.68,1.31,0.08,1.08,0.00,-73.60,-7.70,22.12
11797,-9.52,-3.04,-0.47,-0.13,1.33,0.19,-73.60,-7.70,22.12
11808,-9.52,-3.04,-0.47,-0.13,1.33,0.19,-73.60,-7.70,22.12
11819,-9.91,-2.16,-1.27,-0.15,1.36,0.47,-77.96,-6.67,16.70
11830,-9.91,-2.16,-1.27,-0.15,1.36,0.47,-77.96,-6.67,16.70
11841,-10.13,-1.06,-0.86,-0.24,1.15,0.56,-77.96,-6.67,16.70
11852,-10.13,-1.06,-0.86,-0.24,1.15,0.56,-77.96,-6.67,16.70
11863,-9.90,-1.29,-1.40,-0.41,0.89,0.55,-77.96,-6.67,16.70
11874,-9.81,-1.75,-1.28,-0.35,0.56,0.45,-77.96,-6.67,16.70
11885,-9.81,-1.75,-1.28,-0.35,0.56,0.45,-77.96,-6.67,16.70
11896,-9.82,-2.07,-1.28,-0.31,0.31,0.46,-77.96,-6.67,16.70
11907,-9.82,-2.07,-1.28,-0.31,0.31,0.46,-77.96,-6.67,16.70
11918,-9.88,-2.21,-0.30,-0.29,0.18,0.47,-77.96,-6.67,16.70
11929,-9.88,-2.21,-0.30,-0.29,0.18,0.47,-77.96,-6.67,16.70
11940,-10.08,-1.97,-1.26,-0.39,0.13,0.58,-77.96,-5.19,13.60
11951,-10.08,-1.97,-1.26,-0.39,0.13,0.58,-77.96,-5.19,13.60
11962,-9.70,-1.52,-2.22,-0.43,0.04,0.68,-77.96,-5.19,13.60
11973,-9.83,-1.17,-0.92,-0.33,-0.15,0.66,-77.96,-5.19,13.60
11984,-9.83,-1.17,-0.92,-0.33,-0.15,0.66,-77.96,-5.19,13.60
11995,-10.02,-1.39,-1.28,-0.37,-0.20,0.57,-77.96,-5.19,13.60
12006,-10.02,-1.39,-1.28,-0.37,-0.20,0.57,-77.96,-5.19,13.60
12017,-9.85,-0.94,-1.35,-0.36,-0.20,0.53,-77.96,-5.19,13.60
12028,-9.85,-0.94,-1.35,-0.36,-0.20,0.53,-77.96,-5.19,13.60
12039,-10.13,-1.98,-0.64,-0.32,-0.20,0.47,-77.96,-5.19,13.60
12050,-10.13,-1.98,-0.64,-0.32,-0.20,0.47,-77.96,-5.19,13.60
12061,-9.93,-1.37,-0.80,-0.29,-0.22,0.53,-77.96,-5.19,13.60
12072,-9.93,-1.37,-0.80,-0.29,-0.22,0.53,-77.96,-5.19,13.60
12083,-9.71,-2.00,-1.42,-0.17,-0.15,0.63,-82.33,-4.16,14.37
12094,-10.11,-1.43,-2.98,-0.02,-0.20,0.73,-82.33,-4.16,14.37
12105,-10.11,-1.43,-2.98,-0.02,-0.20,0.73,-82.33,-4.16,14.37
12116,-11.92,-2.29,-6.20,0.46,-0.51,0.77,-82.33,-4.16,14.37
12127,-11.92,-2.29,-6.20,0.46,-0.51,0.77,-82.33,-4.16,14.37
12138,-18.76,8.38,-2.65,0.63,-1.90,0.46,-82.33,-4.16,14.37
12149,-18.76,8.38,-2.65,0.63,-1.90,0.46,-82.33,-4.16,14.37
12160,-15.26,2.10,1.53,0.45,-2.18,-1.88,-82.33,-4.16,14.37
12171,-15.26,2.10,1.53,0.45,-2.18,-1.88,-82.33,-4.16,14.37
12182,-9.57,-8.35,-0.05,0.12,-1.62,-2.67,-82.33,-4.16,14.37
12193,-9.57,-8.35,-0.05,0.12,-1.62,-2.67,-82.33,-4.16,14.37
12204,-8.27,-5.96,-1.88,0.18,-1.67,-0.63,-76.17,-5.04,19.64
12215,-8.86,-1.14,2.11,0.77,-1.98,0.51,-76.17,-5.04,19.64
12226,-8.86,-1.14,2.11,0.77,-1.98,0.51,-76.17,-5.04,19.64
12237,-8.00,-1.85,1.43,0.84,-1.52,0.11,-76.17,-5.04,19.64
12248,-8.00,-1.85,1.43,0.84,-1.52,0.11,-76.17,-5.04,19.64
12259,-6.58,-3.26,0.47,1.14,-1.28,-0.22,-76.17,-5.04,19.64
12271,-6.58,-3.26,0.47,1.14,-1.28,-0.22,-76.17,-5.04,19.64
12281,-7.65,-0.17,5.53,1.47,-1.13,0.04,-76.17,-5.04,19.64
12292,-7.65,-0.17,5.53,1.47,-1.13,0.04,-76.17,-5.04,19.64
12303,-8.80,0.52,3.64,0.72,-0.20,0.09,-76.17,-5.04,19.64
12314,-9.47,0.36,1.29,0.29,0.28,-0.19,-73.60,-2.97,24.60
12325,-9.47,0.36,1.29,0.29,0.28,-0.19,-73.60,-2.97,24.60
12336,-10.10,-0.03,0.17,0.15,0.17,-0.50,-73.60,-2.97,24.60
12347,-10.10,-0.03,0.17,0.15,0.17,-0.50,-73.60,-2.97,24.60
12358,-9.29,-0.04,0.38,0.22,-0.04,-0.77,-73.60,-2.97,24.60
12369,-9.29,-0.04,0.38,0.22,-0.04,-0.77,-73.60,-2.97,24.60
12380,-8.42,-0.44,2.14,0.22,-0.02,-0.99,-73.60,-2.97,24.60
12391,-8.42,-0.44,2.14,0.22,-0.02,-0.99,-73.60,-2.97,24.60
12402,-7.32,-1.19,1.06,0.02,0.28,-1.02,-73.60,-2.97,24.60
12413,-7.32,-1.19,1.06,0.02,0.28,-1.02,-73.60,-2.97,24.60
12424,-8.19,-2.33,0.55,-0.13,0.49,-0.83,-73.60,-2.97,24.60
12435,-7.93,-1.89,-0.66,-0.31,0.37,-0.48,-74.63,-5.34,24.60
12446,-7.93,-1.89,-0.66,-0.31,0.37,-0.48,-74.63,-5.34,24.60
12457,-7.86,-2.13,1.46,-0.35,0.06,-0.15,-74.63,-5.34,24.60
12468,-7.86,-2.13,1.46,-0.35,0.06,-0.15,-74.63,-5.34,24.60
12479,-8.00,-2.19,1.53,-0.29,0.30,0.12,-74.63,-5.34,24.60
12490,-8.00,-2.19,1.53,-0.29,0.30,0.12,-74.63,-5.34,24.60
12501,-8.83,-1.59,0.96,-0.09,0.73,0.24,-74.63,-5.34,24.60
12512,-8.83,-1.59,0.96,-0.09,0.73,0.24,-74.63,-5.34,24.60
12523,-9.99,-1.12,0.09,-0.05,0.88,0.10,-74.63,-5.34,24.60
12534,-10.35,-1.31,0.05,-0.13,0.74,-0.16,-74.63,-5.34,24.60
12545,-10.35,-1.31,0.05,-0.13,0.74,-0.16,-74.63,-5.34,24.60
12556,-10.07,-1.62,0.13,-0.25,0.48,-0.28,-74.63,-5.34,24.60
12567,-10.07,-1.62,0.13,-0.25,0.48,-0.28,-74.63,-5.34,24.60
12578,-10.18,-1.98,0.50,-0.32,0.29,-0.25,-76.17,-5.63,21.50
12589,-10.18,-1.98,0.50,-0.32,0.29,-0.25,-76.17,-5.63,21.50
12600,-9.97,-1.61,0.39,-0.50,0.13,-0.21,-76.17,-5.63,21.50
12611,-9.97,-1.61,0.39,-0.50,0.13,-0.21,-76.17,-5.63,21.50
12622,-9.73,-1.55,1.01,-0.56,-0.06,-0.33,-76.17,-5.63,21.50
12633,-9.73,-1.55,1.01,-0.56,-0.06,-0.33,-76.17,-5.63,21.50
12644,-9.45,-1.51,1.40,-0.62,-0.15,-0.55,-76.17,-5.63,21.50
12655,-8.68,-1.97,1.90,-0.65,-0.17,-0.70,-76.17,-5.63,21.50
12666,-8.68,-1.97,1.90,-0.65,-0.17,-0.70,-76.17,-5.63,21.50
12677,-8.43,-2.56,2.10,-0.68,-0.13,-0.66,-76.17,-5.63,21.50
12688,-8.43,-2.56,2.10,-0.68,-0.13,-0.66,-76.17,-5.63,21.50
12699,-8.90,-2.24,1.53,-0.63,-0.15,-0.50,-77.19,-8.00,23.36
12710,-8.90,-2.24,1.53,-0.63,-0.15,-0.50,-77.19,-8.00,23.36
12721,-9.40,-2.23,2.27,-0.46,-0.28,-0.53,-77.19,-8.00,23.36
12732,-9.40,-2.23,2.27,-0.46,-0.28,-0.53,-77.19,-8.00,23.36
12743,-9.45,-2.54,2.66,-0.52,-0.26,-0.70,-77.19,-8.00,23.36
12754,-9.36,-4.07,2.79,-0.68,-0.09,-0.76,-77.19,-8.00,23.36
12765,-9.36,-4.07,2.79,-0.68,-0.09,-0.76,-77.19,-8.00,23.36
12776,-9.78,-4.72,1.41,-0.78,0.10,-0.63,-77.19,-8.00,23.36
12788,-9.78,-4.72,1.41,-0.78,0.10,-0.63,-77.19,-8.00,23.36
12798,-10.26,-4.55,0.82,-0.66,0.04,-0.45,-77.19,-8.00,23.36
12809,-10.26,-4.55,0.82,-0.66,0.04,-0.45,-77.19,-8.00,23.36
12820,-10.16,-4.01,1.29,-0.53,-0.19,-0.38,-74.37,-14.05,21.96
12831,-10.16,-4.01,1.29,-0.53,-0.19,-0.38,-74.37,-14.05,21.96
12842,-9.57,-3.74,2.01,-0.44,-0.34,-0.34,-74.37,-14.05,21.96
12853,-9.57,-3.74,2.01,-0.44,-0.34,-0.34,-74.37,-14.05,21.96
12864,-10.12,-3.65,2.30,-0.47,-0.30,-0.31,-74.37,-14.05,21.96
12875,-10.32,-3.52,1.54,-0.63,-0.20,-0.45,-74.37,-14.05,21.96
12886,-10.32,-3.52,1.54,-0.63,-0.20,-0.45,-74.37,-14.05,21.96
12897,-9.99,-4.01,1.09,-0.62,-0.15,-0.69,-74.37,-14.05,21.96
12908,-9.99,-4.01,1.09,-0.62,-0.15,-0.69,-74.37,-14.05,21.96
12919,-9.69,-5.00,0.60,-0.52,-0.11,-0.81,-74.37,-14.05,21.96
12930,-9.69,-5.00,0.60,-0.52,-0.11,-0.81,-74.37,-14.05,21.96
12941,-9.13,-5.46,-0.24,-0.34,-0.15,-0.66,-74.37,-14.05,21.96
12952,-9.13,-5.46,-0.24,-0.34,-0.15,-0.66,-74.37,-14.05,21.96
12963,-9.08,-5.56,0.26,-0.09,-0.32,-0.33,-69.23,-17.00,23.20
12974,-9.13,-4.44,0.50,-0.05,-0.40,0.01,-69.23,-17.00,23.20
12985,-9.13,-4.44,0.50,-0.05,-0.40,0.01,-69.23,-17.00,23.20
12996,-9.06,-3.35,0.47,-0.12,-0.42,0.10,-69.23,-17.00,23.20
13007,-9.06,-3.35,0.47,-0.12,-0.42,0.10,-69.23,-17.00,23.20
13018,-8.69,-3.51,0.68,-0.14,-0.40,-0.09,-69.23,-17.00,23.20
13029,-8.69,-3.51,0.68,-0.14,-0.40,-0.09,-69.23,-17.00,23.20
13040,-8.35,-3.64,1.41,-0.09,-0.33,-0.23,-69.23,-17.00,23.20
13051,-8.35,-3.64,1.41,-0.09,-0.33,-0.23,-69.23,-17.00,23.20
13062,-8.28,-4.13,1.41,-0.16,-0.20,-0.24,-69.23,-17.00,23.20
13073,-8.28,-4.13,1.41,-0.16,-0.20,-0.24,-69.23,-17.00,23.20
13084,-8.21,-4.26,0.95,-0.25,-0.15,-0.13,-71.03,-15.97,23.36
13095,-8.86,-5.59,1.60,-0.15,-0.15,0.02,-71.03,-15.97,23.36
13106,-8.86,-5.59,1.60,-0.15,-0.15,0.02,-71.03,-15.97,23.36
13117,-8.77,-4.26,0.84,-0.17,-0.10,0.20,-71.03,-15.97,23.36
13128,-8.77,-4.26,0.84,-0.17,-0.10,0.20,-71.03,-15.97,23.36
13139,-8.79,-3.67,1.58,-0.11,-0.17,0.19,-71.03,-15.97,23.36
13150,-8.79,-3.67,1.58,-0.11,-0.17,0.19,-71.03,-15.97,23.36
13161,-8.97,-4.11,1.78,-0.17,-0.12,0.02,-71.03,-15.97,23.36
13173,-8.97,-4.11,1.78,-0.17,-0.12,0.02,-71.03,-15.97,23.36
13183,-8.56,-4.56,1.03,-0.23,-0.03,-0.09,-71.03,-15.97,23.36
13194,-8.56,-4.56,1.03,-0.23,-0.03,-0.09,-71.03,-15.97,23.36
13205,-8.41,-5.00,1.20,-0.12,-0.02,-0.05,-68.97,-16.27,24.60
13216,-8.54,-4.92,1.05,-0.06,0.02,0.07,-68.97,-16.27,24.60
13227,-8.54,-4.92,1.05,-0.06,0.02,0.07,-68.97,-16.27,24.60
13238,-8.74,-4.74,0.96,-0.04,0.03,0.15,-68.97,-16.27,24.60
13249,-8.74,-4.74,0.96,-0.04,0.03,0.15,-68.97,-16.27,24.60
13260,-8.73,-4.72,1.11,-0.03,0.00,0.18,-68.97,-16.27,24.60
13271,-8.73,-4.72,1.11,-0.03,0.00,0.18,-68.97,-16.27,24.60
13282,-8.71,-4.48,1.05,-0.03,0.02,0.18,-68.97,-16.27,24.60
13293,-8.71,-4.48,1.05,-0.03,0.02,0.18,-68.97,-16.27,24.60
13304,-8.52,-4.38,1.22,0.02,0.02,0.15,-68.97,-16.27,24.60
13315,-8.61,-4.42,1.30,0.08,0.08,0.14,-68.97,-16.27,24.60
13326,-8.61,-4.42,1.30,0.08,0.08,0.14,-68.97,-16.27,24.60
13337,-8.85,-4.45,0.87,0.10,0.16,0.16,-68.97,-16.27,23.98
13348,-8.85,-4.45,0.87,0.10,0.16,0.16,-68.97,-16.27,23.98
13359,-9.05,-4.14,0.56,0.09,0.12,0.21,-68.97,-16.27,23.98
13370,-9.05,-4.14,0.56,0.09,0.12,0.21,-68.97,-16.27,23.98
13381,-9.14,-3.61,0.91,0.10,0.00,0.24,-68.97,-16.27,23.98
13392,-9.14,-3.61,0.91,0.10,0.00,0.24,-68.97,-16.27,23.98
13403,-9.12,-3.55,1.49,0.11,0.01,0.14,-68.97,-16.27,23.98
13414,-9.12,-3.55,1.49,0.11,0.01,0.14,-68.97,-16.27,23.98
13425,-8.81,-3.99,1.38,0.08,0.14,0.04,-68.97,-16.27,23.98
13436,-8.78,-4.08,1.09,0.05,0.23,0.07,-68.97,-16.27,23.98
13447,-8.78,-4.08,1.09,0.05,0.23,0.07,-68.97,-16.27,23.98
13458,-8.96,-4.12,0.85,0.07,0.22,0.13,-71.29,-14.94,23.51
13469,-8.96,-4.12,0.85,0.07,0.22,0.13,-71.29,-14.94,23.51
13480,-8.95,-4.24,0.85,0.11,0.19,0.14,-71.29,-14.94,23.51
13491,-8.95,-4.24,0.85,0.11,0.19,0.14,-71.29,-14.94,23.51
13502,-8.78,-4.39,1.13,0.17,0.25,0.13,-71.29,-14.94,23.51
13513,-8.78,-4.39,1.13,0.17,0.25,0.13,-71.29,-14.94,23.51
13524,-8.75,-4.60,1.47,0.26,0.46,0.10,-71.29,-14.94,23.51
13535,-8.85,-4.58,0.61,0.34,0.78,0.03,-71.29,-14.94,23.51
13546,-8.85,-4.58,0.61,0.34,0.78,0.03,-71.29,-14.94,23.51
13557,-8.70,-3.65,0.43,0.51,0.87,0.01,-71.29,-14.94,23.51
13568,-8.70,-3.65,0.43,0.51,0.87,0.01,-71.29,-14.94,23.51
13579,-8.78,-3.23,1.70,0.62,0.95,-0.15,-73.34,-14.94,21.03
13590,-8.78,-3.23,1.70,0.62,0.95,-0.15,-73.34,-14.94,21.03
13601,-8.32,-4.20,1.15,0.57,1.31,-0.45,-73.34,-14.94,21.03
13612,-8.32,-4.20,1.15,0.57,1.31,-0.45,-73.34,-14.94,21.03
13623,-7.77,-5.44,0.49,0.47,1.60,-0.43,-73.34,-14.94,21.03
13634,-7.77,-5.44,0.49,0.47,1.60,-0.43,-73.34,-14.94,21.03
13645,-7.62,-5.07,0.65,0.43,1.88,-0.10,-73.34,-14.94,21.03
13656,-8.14,-4.12,-0.15,0.27,2.23,0.12,-73.34,-14.94,21.03
13667,-8.14,-4.12,-0.15,0.27,2.23,0.12,-73.34,-14.94,21.03
13678,-9.10,-4.74,-2.18,0.29,2.37,0.19,-73.34,-14.94,21.03
13689,-9.10,-4.74,-2.18,0.29,2.37,0.19,-73.34,-14.94,21.03
13700,-9.69,-4.58,-3.60,0.27,1.98,0.40,-73.34,-14.94,21.03
13711,-9.69,-4.58,-3.60,0.27,1.98,0.40,-73.34,-14.94,21.03
13722,-9.74,-3.27,-2.83,0.26,1.25,0.64,-77.19,-13.90,14.06
13733,-9.74,-3.27,-2.83,0.26,1.25,0.64,-77.19,-13.90,14.06
13744,-9.59,-2.53,-0.35,0.33,0.96,0.52,-77.19,-13.90,14.06
13755,-9.30,-2.94,-0.45,0.16,1.42,0.10,-77.19,-13.90,14.06
13766,-9.30,-2.94,-0.45,0.16,1.42,0.10,-77.19,-13.90,14.06
13777,-10.03,-4.57,-2.69,-0.02,1.91,-0.22,-77.19,-13.90,14.06
13788,-10.03,-4.57,-2.69,-0.02,1.91,-0.22,-77.19,-13.90,14.06
13799,-9.83,-3.76,-5.05,-0.14,1.71,-0.06,-77.19,-13.90,14.06
13810,-9.83,-3.76,-5.05,-0.14,1.71,-0.06,-77.19,-13.90,14.06
13821,-9.01,-2.81,-5.50,-0.06,0.96,0.15,-77.19,-13.90,14.06
13832,-9.01,-2.81,-5.50,-0.06,0.96,0.15,-77.19,-13.90,14.06
13843,-8.82,-3.10,-2.65,0.30,0.31,0.20,-82.33,-11.24,10.03
13854,-8.82,-3.10,-2.65,0.30,0.31,0.20,-82.33,-11.24,10.03
13865,-9.02,-3.00,-0.67,0.27,0.44,0.14,-82.33,-11.24,10.03
13876,-8.30,-3.99,-0.75,-0.19,1.23,-0.21,-82.33,-11.24,10.03
13887,-8.30,-3.99,-0.75,-0.19,1.23,-0.21,-82.33,-11.24,10.03
13898,-8.09,-5.29,-2.17,-0.86,2.02,-0.55,-82.33,-11.24,10.03
13909,-8.09,-5.29,-2.17,-0.86,2.02,-0.55,-82.33,-11.24,10.03
13920,-7.84,-3.79,-4.30,-1.42,2.36,-0.47,-82.33,-11.24,10.03
13931,-7.84,-3.79,-4.30,-1.42,2.36,-0.47,-82.33,-11.24,10.03
13942,-7.57,-3.48,-6.00,-2.32,2.25,-0.38,-82.33,-11.24,10.03
13953,-7.57,-3.48,-6.00,-2.32,2.25,-0.38,-82.33,-11.24,10.03
13964,-6.94,-2.98,-7.56,-1.91,1.95,-0.12,-76.68,-12.72,0.74
13975,-6.94,-2.98,-7.56,-1.91,1.95,-0.12,-76.68,-12.72,0.74
13986,-6.76,-3.32,-6.16,-0.30,1.39,0.17,-76.68,-12.72,0.74
13997,-7.17,-2.91,-4.02,-0.06,1.12,0.23,-76.68,-12.72,0.74
14008,-7.17,-2.91,-4.02,-0.06,1.12,0.23,-76.68,-12.72,0.74
14019,-6.72,-3.94,-3.76,-0.44,1.40,0.02,-76.68,-12.72,0.74
14030,-6.72,-3.94,-3.76,-0.44,1.40,0.02,-76.68,-12.72,0.74
14041,-6.18,-5.48,-4.52,-1.41,1.88,-0.01,-76.68,-12.72,0.74
14052,-6.18,-5.48,-4.52,-1.41,1.88,-0.01,-76.68,-12.72,0.74
14063,-6.00,-4.30,-5.83,-2.30,2.22,0.61,-76.68,-12.72,0.74
14074,-6.00,-4.30,-5.83,-2.30,2.22,0.61,-76.68,-12.72,0.74
14085,-6.84,-1.95,-6.97,-2.04,2.37,1.33,-75.65,-9.18,-8.87
14096,-7.97,-0.46,-6.79,-1.50,2.35,1.52,-75.65,-9.18,-8.87
14107,-7.97,-0.46,-6.79,-1.50,2.35,1.52,-75.65,-9.18,-8.87
14118,-7.62,0.09,-8.85,-1.29,2.33,1.21,-75.65,-9.18,-8.87
14129,-7.62,0.09,-8.85,-1.29,2.33,1.21,-75.65,-9.18,-8.87
14140,-6.11,-1.02,-9.40,-0.72,2.07,0.87,-75.65,-9.18,-8.87
14151,-6.11,-1.02,-9.40,-0.72,2.07,0.87,-75.65,-9.18,-8.87
14162,-5.60,-1.80,-9.59,-0.90,1.67,0.70,-75.65,-9.18,-8.87
14173,-5.60,-1.80,-9.59,-0.90,1.67,0.70,-75.65,-9.18,-8.87
14184,-5.67,-1.44,-8.77,-1.06,1.28,0.86,-75.65,-9.18,-8.87
14195,-5.67,-1.44,-8.77,-1.06,1.28,0.86,-75.65,-9.18,-8.87
14207,-5.62,0.14,-8.35,-1.19,1.29,1.02,-75.65,-9.18,-8.87
14217,-5.38,1.05,-8.99,-1.02,1.34,1.02,-74.11,-3.27,-18.48
14228,-5.38,1.05,-8.99,-1.02,1.34,1.02,-74.11,-3.27,-18.48
14239,-5.98,0.89,-8.21,-0.69,1.34,0.92,-74.11,-3.27,-18.48
14250,-5.98,0.89,-8.21,-0.69,1.34,0.92,-74.11,-3.27,-18.48
14261,-5.80,0.53,-6.32,-0.51,1.51,0.91,-74.11,-3.27,-18.48
14272,-5.80,0.53,-6.32,-0.51,1.51,0.91,-74.11,-3.27,-18.48
14283,-4.47,0.45,-7.34,-1.15,1.92,0.84,-74.11,-3.27,-18.48
14294,-4.47,0.45,-7.34,-1.15,1.92,0.84,-74.11,-3.27,-18.48
14305,-3.88,1.39,-9.33,-1.78,2.07,0.84,-74.11,-3.27,-18.48
14316,-3.79,3.31,-11.51,-1.80,1.85,0.86,-74.11,-3.27,-18.48
14327,-3.79,3.31,-11.51,-1.80,1.85,0.86,-74.11,-3.27,-18.48
14338,-4.23,3.93,-11.76,-1.22,1.34,0.62,-62.81,4.12,-25.92
14349,-4.23,3.93,-11.76,-1.22,1.34,0.62,-62.81,4.12,-25.92
14360,-4.85,2.77,-10.72,-0.88,0.90,0.27,-62.81,4.12,-25.92
14371,-4.85,2.77,-10.72,-0.88,0.90,0.27,-62.81,4.12,-25.92
14382,-2.97,2.26,-10.60,-0.78,1.01,0.16,-62.81,4.12,-25.92
14393,-2.97,2.26,-10.60,-0.78,1.01,0.16,-62.81,4.12,-25.92
14404,-2.66,2.59,-11.19,-0.49,1.01,0.21,-62.81,4.12,-25.92
14415,-2.66,2.59,-11.19,-0.49,1.01,0.21,-62.81,4.12,-25.92
14426,-2.36,1.71,-8.84,-0.26,0.69,0.15,-62.81,4.12,-25.92
14437,-2.38,0.70,-7.23,-0.81,0.57,0.27,-62.81,4.12,-25.92
14448,-2.38,0.70,-7.23,-0.81,0.57,0.27,-62.81,4.12,-25.92
14459,-2.81,0.73,-7.84,-1.82,0.94,0.53,-57.93,7.51,-28.55
14470,-2.81,0.73,-7.84,-1.82,0.94,0.53,-57.93,7.51,-28.55
14481,-2.66,2.44,-8.96,-1.66,1.72,0.77,-57.93,7.51,-28.55
14492,-2.66,2.44,-8.96,-1.66,1.72,0.77,-57.93,7.51,-28.55
14503,-1.55,4.82,-9.86,-1.46,2.09,0.83,-57.93,7.51,-28.55
14514,-1.55,4.82,-9.86,-1.46,2.09,0.83,-57.93,7.51,-28.55
14525,-1.08,4.52,-11.01,-1.43,1.82,0.59,-57.93,7.51,-28.55
14536,0.00,3.37,-11.85,-1.17,1.42,0.45,-57.93,7.51,-28.55
14547,0.00,3.37,-11.85,-1.17,1.42,0.45,-57.93,7.51,-28.55
14558,-1.47,2.08,-10.38,-0.80,0.96,0.51,-57.93,7.51,-28.55
14569,-1.47,2.08,-10.38,-0.80,0.96,0.51,-57.93,7.51,-28.55
14580,-0.40,2.97,-8.58,-0.75,1.03,0.88,-57.93,7.51,-28.55
14591,-0.40,2.97,-8.58,-0.75,1.03,0.88,-57.93,7.51,-28.55
14607,-0.33,6.66,-8.47,-1.24,1.17,1.00,-48.42,13.57,-30.56
14613,-0.33,6.66,-8.47,-1.24,1.17,1.00,-48.42,13.57,-30.56
14624,0.62,4.49,-11.12,-1.30,1.31,0.50,-48.42,13.57,-30.56
14635,0.62,4.49,-11.12,-1.30,1.31,0.50,-48.42,13.57,-30.56
14646,1.13,4.40,-12.34,-0.83,0.90,0.48,-48.42,13.57,-30.56
14657,0.36,4.42,-8.94,-0.55,0.21,0.44,-48.42,13.57,-30.56
14668,0.36,4.42,-8.94,-0.55,0.21,0.44,-48.42,13.57,-30.56
14679,-0.01,4.36,-7.97,-0.84,0.12,0.49,-48.42,13.57,-30.56
14690,-0.01,4.36,-7.97,-0.84,0.12,0.49,-48.42,13.57,-30.56
14701,2.11,3.19,-7.81,-1.32,0.30,0.57,-48.42,13.57,-30.56
14712,2.11,3.19,-7.81,-1.32,0.30,0.57,-48.42,13.57,-30.56
14723,-3.30,3.23,-6.32,-0.86,0.97,1.28,-41.49,16.96,-28.55
14734,-3.30,3.23,-6.32,-0.86,0.97,1.28,-41.49,16.96,-28.55
14745,5.14,16.07,-26.84,-1.71,1.44,1.63,-41.49,16.96,-28.55
14756,1.08,6.19,-7.05,0.19,-0.40,0.79,-41.49,16.96,-28.55
14767,1.08,6.19,-7.05,0.19,-0.40,0.79,-41.49,16.96,-28.55
14778,1.30,6.42,-7.64,-0.08,-0.44,0.20,-41.49,16.96,-28.55
14789,1.30,6.42,-7.64,-0.08,-0.44,0.20,-41.49,16.96,-28.55
14800,-1.40,6.22,-9.68,-0.33,-0.27,-0.25,-41.49,16.96,-28.55
14811,-1.40,6.22,-9.68,-0.33,-0.27,-0.25,-41.49,16.96,-28.55
14822,0.51,5.08,-8.32,0.31,-0.31,-0.35,-41.49,16.96,-28.55
14833,0.51,5.08,-8.32,0.31,-0.31,-0.35,-41.49,16.96,-28.55
14844,1.00,4.87,-8.22,0.07,-0.31,-0.41,-42.51,19.03,-27.93
14855,1.00,4.87,-8.22,0.07,-0.31,-0.41,-42.51,19.03,-27.93
14866,1.50,5.19,-8.27,-0.45,-0.43,-0.39,-42.51,19.03,-27.93
14877,1.04,5.00,-7.88,-0.97,-0.64,-0.26,-42.51,19.03,-27.93
14888,1.04,5.00,-7.88,-0.97,-0.64,-0.26,-42.51,19.03,-27.93
14899,0.22,5.28,-8.48,-1.61,-0.64,-0.18,-42.51,19.03,-27.93
14910,0.22,5.28,-8.48,-1.61,-0.64,-0.18,-42.51,19.03,-27.93
14921,-0.17,7.25,-8.99,-1.42,-0.28,-0.20,-42.51,19.03,-27.93
14932,-0.17,7.25,-8.99,-1.42,-0.28,-0.20,-42.51,19.03,-27.93
14943,1.05,5.89,-8.20,-0.28,-0.07,-0.25,-42.51,19.03,-27.93
14954,1.05,5.89,-8.20,-0.28,-0.07,-0.25,-42.51,19.03,-27.93
14965,0.77,6.03,-8.24,-0.23,-0.06,-0.24,-42.51,19.03,-27.93
14976,0.77,6.03,-8.24,-0.23,-0.06,-0.24,-42.51,19.03,-27.93
14987,0.00,6.15,-8.07,-0.22,-0.09,-0.22,-42.77,20.66,-26.23
14998,0.13,6.12,-8.34,-0.27,-0.20,-0.15,-42.77,20.66,-26.23
15009,0.13,6.12,-8.34,-0.27,-0.20,-0.15,-42.77,20.66,-26.23
15020,0.52,6.34,-8.26,-0.45,-0.20,-0.10,-42.77,20.66,-26.23
15031,0.52,6.34,-8.26,-0.45,-0.20,-0.10,-42.77,20.66,-26.23
15042,-0.76,6.85,-7.62,-0.10,-0.11,-0.06,-42.77,20.66,-26.23
15053,-0.76,6.85,-7.62,-0.10,-0.11,-0.06,-42.77,20.66,-26.23
15064,-0.35,6.18,-7.92,0.04,-0.27,-0.04,-42.77,20.66,-26.23
15075,-0.35,6.18,-7.92,0.04,-0.27,-0.04,-42.77,20.66,-26.23
15086,0.39,6.30,-8.40,-0.29,-0.48,0.02,-42.77,20.66,-26.23
15097,-0.12,6.40,-8.23,-0.18,-0.30,0.02,-46.37,21.54,-23.75
15108,-0.12,6.40,-8.23,-0.18,-0.30,0.02,-46.37,21.54,-23.75
15119,-0.05,6.17,-8.09,-0.13,-0.16,-0.06,-46.37,21.54,-23.75
15130,-0.05,6.17,-8.09,-0.13,-0.16,-0.06,-46.37,21.54,-23.75
15142,-0.24,6.29,-8.00,-0.21,-0.14,-0.19,-46.37,21.54,-23.75
15152,-0.24,6.29,-8.00,-0.21,-0.14,-0.19,-46.37,21.54,-23.75
15163,-0.07,6.51,-7.96,-0.03,-0.18,-0.32,-46.37,21.54,-23.75
15174,-0.07,6.51,-7.96,-0.03,-0.18,-0.32,-46.37,21.54,-23.75
15185,-0.02,6.52,-8.00,0.14,-0.21,-0.43,-46.37,21.54,-23.75
15196,-0.02,6.52,-8.00,0.14,-0.21,-0.43,-46.37,21.54,-23.75
15207,-2.20,6.47,-8.41,0.21,-0.45,-0.81,-46.37,21.54,-23.75
15218,-0.99,6.57,-7.58,-0.79,-0.27,-0.65,-48.68,21.39,-23.28
15229,-0.99,6.57,-7.58,-0.79,-0.27,-0.65,-48.68,21.39,-23.28
15240,-0.55,6.02,-8.61,0.61,0.28,0.11,-48.68,21.39,-23.28
15251,-0.55,6.02,-8.61,0.61,0.28,0.11,-48.68,21.39,-23.28
15262,-0.09,6.07,-8.63,0.21,0.15,0.09,-48.68,21.39,-23.28
15273,-0.09,6.07,-8.63,0.21,0.15,0.09,-48.68,21.39,-23.28
15284,-0.95,6.80,-7.47,-0.31,-0.20,-0.14,-48.68,21.39,-23.28
15295,-0.95,6.80,-7.47,-0.31,-0.20,-0.14,-48.68,21.39,-23.28
15306,-0.32,6.23,-8.22,0.28,0.17,0.12,-48.68,21.39,-23.28
15317,-0.53,6.09,-8.11,-0.06,-0.06,-0.05,-48.68,21.39,-23.28
15328,-0.53,6.09,-8.11,-0.06,-0.06,-0.05,-48.68,21.39,-23.28
15339,-0.63,6.41,-7.94,-0.06,-0.04,-0.04,-47.65,20.80,-23.59
15350,-0.63,6.41,-7.94,-0.06,-0.04,-0.04,-47.65,20.80,-23.59
15361,-0.35,6.28,-8.18,0.10,0.07,0.05,-47.65,20.80,-23.59
15372,-0.35,6.28,-8.18,0.10,0.07,0.05,-47.65,20.80,-23.59
15383,-0.62,6.47,-7.93,-0.11,-0.07,-0.06,-47.65,20.80,-23.59
15394,-0.62,6.47,-7.93,-0.11,-0.07,-0.06,-47.65,20.80,-23.59
15405,-0.47,6.24,-8.14,0.05,0.03,0.01,-47.65,20.80,-23.59
15416,-0.47,6.24,-8.14,0.05,0.03,0.01,-47.65,20.80,-23.59
15427,-0.54,6.30,-7.99,-0.03,-0.01,-0.02,-47.65,20.80,-23.59
15438,-0.50,6.30,-8.09,0.00,0.00,-0.01,-47.65,20.80,-23.59
15449,-0.50,6.30,-8.09,0.00,0.00,-0.01,-47.65,20.80,-23.59
15460,-0.52,6.34,-8.02,-0.00,-0.00,-0.01,-47.65,20.80,-23.59
15471,-0.52,6.34,-8.02,-0.00,-0.00,-0.01,-47.65,20.80,-23.59
15482,-0.51,6.34,-8.06,-0.01,-0.00,-0.01,-48.17,20.80,-23.59
15493,-0.51,6.34,-8.06,-0.01,-0.00,-0.01,-48.17,20.80,-23.59
15504,-0.55,6.32,-8.05,-0.01,-0.00,-0.01,-48.17,20.80,-23.59
15515,-0.55,6.32,-8.05,-0.01,-0.00,-0.01,-48.17,20.80,-23.59
15526,-0.53,6.31,-8.04,-0.01,0.00,-0.01,-48.17,20.80,-23.59
15537,-0.52,6.34,-8.05,-0.02,-0.00,-0.01,-48.17,20.80,-23.59
15548,-0.52,6.34,-8.05,-0.02,-0.00,-0.01,-48.17,20.80,-23.59
15559,-0.49,6.36,-8.03,-0.01,0.00,-0.01,-48.17,20.80,-23.59
15570,-0.49,6.36,-8.03,-0.01,0.00,-0.01,-48.17,20.80,-23.59
15581,-0.52,6.34,-8.03,-0.01,-0.00,-0.01,-48.17,20.80,-23.59
15592,-0.52,6.34,-8.03,-0.01,-0.00,-0.01,-48.17,20.80,-23.59
15603,-0.53,6.35,-8.07,-0.00,0.00,-0.01,-45.85,21.25,-24.37
15614,-0.53,6.35,-8.07,-0.00,0.00,-0.01,-45.85,21.25,-24.37
15625,-0.53,6.33,-8.05,-0.00,0.00,-0.01,-45.85,21.25,-24.37
15636,-0.53,6.33,-8.05,-0.00,0.00,-0.01,-45.85,21.25,-24.37
15647,-0.51,6.32,-8.04,-0.00,-0.00,-0.01,-45.85,21.25,-24.37
15658,-0.53,6.31,-8.03,-0.00,-0.00,-0.01,-45.85,21.25,-24.37
15669,-0.53,6.31,-8.03,-0.00,-0.00,-0.01,-45.85,21.25,-24.37
15680,-0.54,6.35,-8.04,-0.02,0.00,-0.01,-45.85,21.25,-24.37
15691,-0.54,6.35,-8.04,-0.02,0.00,-0.01,-45.85,21.25,-24.37
15702,-0.54,6.46,-7.99,-0.06,0.01,-0.00,-45.85,21.25,-24.37
15713,-0.54,6.46,-7.99,-0.06,0.01,-0.00,-45.85,21.25,-24.37
15724,-0.45,6.33,-8.13,0.01,0.04,0.02,-47.14,20.80,-23.28
15735,-0.45,6.33,-8.13,0.01,0.04,0.02,-47.14,20.80,-23.28
15746,-0.51,6.39,-8.06,-0.02,0.00,-0.01,-47.14,20.80,-23.28
15757,-0.34,6.48,-7.92,-0.02,0.03,-0.06,-47.14,20.80,-23.28
15768,-0.34,6.48,-7.92,-0.02,0.03,-0.06,-47.14,20.80,-23.28
15779,-0.47,6.24,-8.15,-0.10,0.10,-0.19,-47.14,20.80,-23.28
15790,-0.47,6.24,-8.15,-0.10,0.10,-0.19,-47.14,20.80,-23.28
15801,-0.63,6.44,-7.95,-0.07,0.06,-0.12,-47.14,20.80,-23.28
15812,-0.63,6.44,-7.95,-0.07,0.06,-0.12,-47.14,20.80,-23.28
15823,-0.43,6.40,-8.03,0.10,0.06,-0.00,-47.14,20.80,-23.28
15834,-0.43,6.40,-8.03,0.10,0.06,-0.00,-47.14,20.80,-23.28
15845,-0.21,6.45,-8.00,0.07,0.12,-0.07,-47.14,20.80,-23.28
15856,-0.21,6.45,-8.00,0.07,0.12,-0.07,-47.14,20.80,-23.28
15867,0.20,6.38,-8.09,0.01,0.20,-0.24,-48.42,20.95,-24.37
15878,0.65,7.02,-7.59,-0.03,0.28,-0.37,-48.42,20.95,-24.37
15889,0.65,7.02,-7.59,-0.03,0.28,-0.37,-48.42,20.95,-24.37
15900,-2.70,4.98,-8.85,-0.08,0.41,-0.57,-48.42,20.95,-24.37
15911,-2.70,4.98,-8.85,-0.08,0.41,-0.57,-48.42,20.95,-24.37
15922,-0.97,5.70,-8.53,-0.04,0.18,-0.22,-48.42,20.95,-24.37
15933,-0.97,5.70,-8.53,-0.04,0.18,-0.22,-48.42,20.95,-24.37
15944,-0.92,6.39,-7.93,0.10,-0.17,0.24,-48.42,20.95,-24.37
15955,-0.92,6.39,-7.93,0.10,-0.17,0.24,-48.42,20.95,-24.37
15966,-1.02,6.42,-8.03,0.09,-0.15,0.26,-48.42,20.95,-24.37
15977,-1.02,6.42,-8.03,0.09,-0.15,0.26,-48.42,20.95,-24.37
15988,-1.04,6.56,-7.75,0.02,-0.08,0.09,-47.65,20.21,-23.28
15999,0.14,6.44,-7.99,0.03,0.08,-0.08,-47.65,20.21,-23.28
16010,0.14,6.44,-7.99,0.03,0.08,-0.08,-47.65,20.21,-23.28
16021,-0.33,6.36,-8.03,0.05,0.07,-0.02,-47.65,20.21,-23.28
16032,-0.33,6.36,-8.03,0.05,0.07,-0.02,-47.65,20.21,-23.28
16043,-0.59,6.36,-8.00,0.04,0.07,0.01,-47.65,20.21,-23.28
16054,-0.59,6.36,-8.00,0.04,0.07,0.01,-47.65,20.21,-23.28
16065,-0.30,6.32,-8.07,-0.02,0.02,0.02,-47.65,20.21,-23.28
16076,-0.30,6.32,-8.07,-0.02,0.02,0.02,-47.65,20.21,-23.28
16087,-0.40,6.35,-8.02,-0.01,-0.02,0.06,-47.65,20.21,-23.28
16098,-0.43,6.37,-8.06,-0.02,-0.02,0.04,-46.37,20.66,-24.37
16109,-0.43,6.37,-8.06,-0.02,-0.02,0.04,-46.37,20.66,-24.37
16120,-0.44,6.37,-8.08,-0.02,-0.01,-0.00,-46.37,20.66,-24.37
16131,-0.44,6.37,-8.08,-0.02,-0.01,-0.00,-46.37,20.66,-24.37
16142,-0.47,6.25,-8.05,-0.01,0.00,0.00,-46.37,20.66,-24.37
16153,-0.47,6.25,-8.05,-0.01,0.00,0.00,-46.37,20.66,-24.37
16164,-0.46,6.23,-8.10,-0.01,-0.06,0.17,-46.37,20.66,-24.37
16175,-0.46,6.23,-8.10,-0.01,-0.06,0.17,-46.37,20.66,-24.37
16186,-0.40,6.27,-8.11,0.02,-0.28,0.43,-46.37,20.66,-24.37
16197,-0.40,6.27,-8.11,0.02,-0.28,0.43,-46.37,20.66,-24.37
16208,-0.39,6.29,-8.09,0.01,-0.31,0.47,-46.37,20.66,-24.37
16219,-0.47,6.40,-7.96,0.01,-0.32,0.44,-46.37,20.66,-24.37
16230,-0.47,6.40,-7.96,0.01,-0.32,0.44,-46.37,20.66,-24.37
16241,-0.43,6.32,-8.04,0.04,-0.39,0.42,-47.65,20.51,-22.97
16252,-0.43,6.32,-8.04,0.04,-0.39,0.42,-47.65,20.51,-22.97
16263,-0.49,6.28,-8.04,0.02,-0.27,0.25,-47.65,20.51,-22.97
16274,-0.49,6.28,-8.04,0.02,-0.27,0.25,-47.65,20.51,-22.97
16285,-0.55,6.16,-8.16,-0.01,-0.06,0.14,-47.65,20.51,-22.97
16296,-0.55,6.16,-8.16,-0.01,-0.06,0.14,-47.65,20.51,-22.97
16307,-0.47,6.42,-7.98,0.00,0.10,0.10,-47.65,20.51,-22.97
16318,-0.28,6.47,-7.98,0.02,0.14,-0.05,-47.65,20.51,-22.97
16329,-0.28,6.47,-7.98,0.02,0.14,-0.05,-47.65,20.51,-22.97
16340,-0.29,6.31,-8.05,0.07,-0.01,-0.15,-47.65,20.51,-22.97
16351,-0.29,6.31,-8.05,0.07,-0.01,-0.15,-47.65,20.51,-22.97
16362,-0.41,6.24,-8.06,0.05,-0.06,-0.10,-46.88,22.13,-22.82
16373,-0.41,6.24,-8.06,0.05,-0.06,-0.10,-46.88,22.13,-22.82
16384,-0.45,6.25,-8.08,0.00,-0.02,-0.02,-46.88,22.13,-22.82
16395,-0.45,6.25,-8.08,0.00,-0.02,-0.02,-46.88,22.13,-22.82
16406,-0.73,6.15,-8.17,-0.04,0.05,-0.01,-46.88,22.13,-22.82
16418,-0.73,6.15,-8.17,-0.04,0.05,-0.01,-46.88,22.13,-22.82
16428,-0.37,6.40,-8.01,-0.04,0.27,-0.18,-46.88,22.13,-22.82
16439,-0.28,6.34,-8.03,-0.03,0.36,-0.30,-46.88,22.13,-22.82
16450,-0.28,6.34,-8.03,-0.03,0.36,-0.30,-46.88,22.13,-22.82
16461,-0.36,6.36,-8.07,-0.01,0.28,-0.33,-46.88,22.13,-22.82
16472,-0.36,6.36,-8.07,-0.01,0.28,-0.33,-46.88,22.13,-22.82
16483,-0.95,6.39,-7.97,0.04,0.12,-0.32,-49.19,21.10,-23.28
16494,-0.95,6.39,-7.97,0.04,0.12,-0.32,-49.19,21.10,-23.28
16510,-0.67,6.20,-8.17,0.02,0.21,-0.50,-49.19,21.10,-23.28
16516,-0.67,6.20,-8.17,0.02,0.21,-0.50,-49.19,21.10,-23.28
