time,ax,ay,az,gx,gy,gz,mx,my,mz
402,-0.48,6.35,-8.06,0.01,0.01,-0.00,-46.37,19.47,-24.37
412,-0.48,6.35,-8.06,0.01,0.01,-0.00,-46.37,19.47,-24.37
423,-0.50,6.39,-7.99,-0.01,-0.00,-0.01,-46.37,19.47,-24.37
434,-0.50,6.37,-8.03,0.00,0.00,-0.01,-46.37,19.47,-24.37
445,-0.50,6.37,-8.03,0.00,0.00,-0.01,-46.37,19.47,-24.37
456,-0.48,6.36,-8.02,0.00,0.00,-0.01,-46.37,19.47,-24.37
467,-0.48,6.36,-8.02,0.00,0.00,-0.01,-46.37,19.47,-24.37
478,-0.49,6.35,-8.00,-0.00,-0.00,-0.01,-46.37,19.47,-24.37
489,-0.49,6.35,-8.00,-0.00,-0.00,-0.01,-46.37,19.47,-24.37
500,-0.48,6.38,-8.01,-0.00,0.00,-0.01,-46.37,19.47,-24.37
511,-0.48,6.38,-8.01,-0.00,0.00,-0.01,-46.37,19.47,-24.37
522,-0.49,6.39,-8.00,-0.01,-0.00,-0.01,-46.37,19.47,-24.37
533,-0.49,6.39,-8.00,-0.01,-0.00,-0.01,-46.37,19.47,-24.37
544,-0.49,6.37,-8.03,0.00,0.00,-0.01,-49.96,19.18,-24.37
555,-0.50,6.37,-8.01,-0.00,0.00,-0.01,-49.96,19.18,-24.37
566,-0.50,6.37,-8.01,-0.00,0.00,-0.01,-49.96,19.18,-24.37
577,-0.50,6.37,-8.01,-0.00,0.00,-0.01,-49.96,19.18,-24.37
588,-0.50,6.37,-8.01,-0.00,0.00,-0.01,-49.96,19.18,-24.37
599,-0.49,6.37,-8.01,-0.00,-0.00,-0.01,-49.96,19.18,-24.37
614,-0.49,6.37,-8.01,-0.00,-0.00,-0.01,-49.96,19.18,-24.37
621,-0.50,6.39,-8.01,-0.00,0.00,-0.01,-49.96,19.18,-24.37
632,-0.50,6.39,-8.01,-0.00,0.00,-0.01,-49.96,19.18,-24.37
643,-0.50,6.37,-8.02,-0.00,0.00,-0.01,-49.96,19.18,-24.37
654,-0.50,6.37,-8.02,-0.00,0.00,-0.01,-49.96,19.18,-24.37
665,-0.49,6.37,-8.05,-0.00,0.00,-0.01,-46.88,21.25,-24.68
676,-0.50,6.37,-8.03,-0.00,0.00,-0.01,-46.88,21.25,-24.68
687,-0.50,6.37,-8.03,-0.00,0.00,-0.01,-46.88,21.25,-24.68
698,-0.51,6.37,-8.01,-0.00,0.00,-0.01,-46.88,21.25,-24.68
709,-0.51,6.37,-8.01,-0.00,0.00,-0.01,-46.88,21.25,-24.68
720,-0.48,6.39,-8.01,-0.00,0.00,-0.01,-46.88,21.25,-24.68
731,-0.48,6.39,-8.01,-0.00,0.00,-0.01,-46.88,21.25,-24.68
742,-0.49,6.37,-8.00,-0.00,-0.00,-0.01,-46.88,21.25,-24.68
753,-0.49,6.37,-8.00,-0.00,-0.00,-0.01,-46.88,21.25,-24.68
764,-0.50,6.37,-8.01,-0.00,-0.00,-0.01,-46.88,21.25,-24.68
775,-0.51,6.36,-8.01,-0.00,-0.00,-0.01,-48.68,20.51,-23.90
786,-0.51,6.36,-8.01,-0.00,-0.00,-0.01,-48.68,20.51,-23.90
797,-0.50,6.38,-8.02,-0.00,0.00,-0.01,-48.68,20.51,-23.90
808,-0.50,6.38,-8.02,-0.00,0.00,-0.01,-48.68,20.51,-23.90
819,-0.50,6.38,-8.02,-0.00,0.00,-0.01,-48.68,20.51,-23.90
830,-0.50,6.38,-8.02,-0.00,0.00,-0.01,-48.68,20.51,-23.90
841,-0.48,6.37,-8.01,-0.00,0.00,-0.01,-48.68,20.51,-23.90
852,-0.48,6.37,-8.01,-0.00,0.00,-0.01,-48.68,20.51,-23.90
863,-0.50,6.37,-8.01,-0.00,0.00,-0.01,-48.68,20.51,-23.90
875,-0.50,6.37,-8.01,-0.00,0.00,-0.01,-48.68,20.51,-23.90
885,-0.48,6.37,-8.01,-0.00,0.00,-0.01,-48.68,20.51,-23.90
896,-0.49,6.38,-7.99,-0.00,0.00,-0.01,-48.68,20.51,-23.90
907,-0.49,6.38,-7.99,-0.00,0.00,-0.01,-48.68,20.51,-23.90
918,-0.51,6.40,-8.02,-0.00,-0.00,-0.01,-49.96,19.77,-23.75
929,-0.51,6.40,-8.02,-0.00,-0.00,-0.01,-49.96,19.77,-23.75
940,-0.50,6.37,-8.02,-0.00,0.00,-0.01,-49.96,19.77,-23.75
951,-0.50,6.37,-8.02,-0.00,0.00,-0.01,-49.96,19.77,-23.75
962,-0.50,6.38,-8.02,-0.00,0.00,-0.01,-49.96,19.77,-23.75
973,-0.50,6.38,-8.02,-0.00,0.00,-0.01,-49.96,19.77,-23.75
984,-0.49,6.38,-8.00,-0.00,0.00,-0.01,-49.96,19.77,-23.75
995,-0.50,6.38,-8.02,-0.00,0.00,-0.01,-49.96,19.77,-23.75
1006,-0.50,6.38,-8.02,-0.00,0.00,-0.01,-49.96,19.77,-23.75
1017,-0.50,6.40,-7.98,-0.00,0.00,-0.01,-49.96,19.77,-23.75
1028,-0.50,6.40,-7.98,-0.00,0.00,-0.01,-49.96,19.77,-23.75
1039,-0.50,6.38,-8.04,-0.00,0.00,-0.01,-49.71,19.92,-24.21
1050,-0.50,6.38,-8.04,-0.00,0.00,-0.01,-49.71,19.92,-24.21
1061,-0.49,6.37,-8.03,-0.00,0.00,-0.01,-49.71,19.92,-24.21
1072,-0.49,6.37,-8.03,-0.00,0.00,-0.01,-49.71,19.92,-24.21
1083,-0.49,6.37,-8.00,-0.00,0.00,-0.01,-49.71,19.92,-24.21
1094,-0.49,6.37,-8.00,-0.00,0.00,-0.01,-49.71,19.92,-24.21
1105,-0.51,6.37,-7.99,-0.00,0.00,-0.01,-49.71,19.92,-24.21
1116,-0.51,6.37,-8.00,-0.00,0.00,-0.01,-49.71,19.92,-24.21
1127,-0.51,6.37,-8.00,-0.00,0.00,-0.01,-49.71,19.92,-24.21
1138,-0.50,6.37,-8.00,-0.00,-0.00,-0.01,-49.71,19.92,-24.21
1149,-0.50,6.37,-8.00,-0.00,-0.00,-0.01,-49.71,19.92,-24.21
1160,-0.49,6.36,-8.03,-0.00,0.00,-0.01,-48.68,19.33,-24.83
1171,-0.49,6.36,-8.03,-0.00,0.00,-0.01,-48.68,19.33,-24.83
1182,-0.49,6.37,-8.03,-0.00,0.00,-0.01,-48.68,19.33,-24.83
1193,-0.49,6.37,-8.03,-0.00,0.00,-0.01,-48.68,19.33,-24.83
1204,-0.50,6.37,-7.99,-0.00,0.00,-0.01,-48.68,19.33,-24.83
1215,-0.50,6.37,-8.01,-0.00,-0.00,-0.01,-48.68,19.33,-24.83
1226,-0.50,6.37,-8.01,-0.00,-0.00,-0.01,-48.68,19.33,-24.83
1237,-0.50,6.37,-8.01,-0.00,0.00,-0.01,-48.68,19.33,-24.83
1248,-0.50,6.37,-8.01,-0.00,0.00,-0.01,-48.68,19.33,-24.83
1259,-0.50,6.38,-8.03,-0.00,0.00,-0.01,-48.68,19.33,-24.83
1270,-0.50,6.38,-8.03,-0.00,0.00,-0.01,-48.68,19.33,-24.83
1281,-0.51,6.36,-8.02,-0.00,0.00,-0.01,-48.68,19.33,-24.83
1292,-0.51,6.36,-8.02,-0.00,0.00,-0.01,-48.68,19.33,-24.83
1303,-0.50,6.36,-8.02,-0.00,0.00,-0.01,-48.68,18.74,-24.52
1314,-0.50,6.36,-8.02,-0.00,0.00,-0.01,-48.68,18.74,-24.52
1325,-0.50,6.37,-8.01,-0.00,0.00,-0.01,-48.68,18.74,-24.52
1336,-0.49,6.36,-8.00,-0.00,0.00,-0.01,-48.68,18.74,-24.52
1347,-0.49,6.36,-8.00,-0.00,0.00,-0.01,-48.68,18.74,-24.52
1358,-0.48,6.37,-8.01,-0.00,0.00,-0.01,-48.68,18.74,-24.52
1370,-0.48,6.37,-8.01,-0.00,0.00,-0.01,-48.68,18.74,-24.52
1380,-0.50,6.37,-8.02,-0.00,0.00,-0.01,-48.68,18.74,-24.52
1391,-0.50,6.37,-8.02,-0.00,0.00,-0.01,-48.68,18.74,-24.52
1402,-0.51,6.37,-8.01,-0.00,0.00,-0.01,-48.68,18.74,-24.52
1413,-0.51,6.37,-8.01,-0.00,0.00,-0.01,-48.68,18.74,-24.52
1424,-0.51,6.37,-8.01,-0.00,0.00,-0.01,-45.60,19.62,-25.14
1435,-0.51,6.37,-8.01,-0.00,0.00,-0.01,-45.60,19.62,-25.14
1446,-0.50,6.37,-8.02,-0.00,0.00,-0.01,-45.60,19.62,-25.14
1457,-0.50,6.37,-8.01,-0.00,-0.00,-0.01,-45.60,19.62,-25.14
1468,-0.50,6.37,-8.01,-0.00,-0.00,-0.01,-45.60,19.62,-25.14
1479,-0.49,6.36,-8.00,-0.00,-0.00,-0.01,-45.60,19.62,-25.14
1490,-0.49,6.36,-8.00,-0.00,-0.00,-0.01,-45.60,19.62,-25.14
1501,-0.50,6.37,-8.00,-0.00,0.00,-0.01,-45.60,19.62,-25.14
1512,-0.50,6.37,-8.00,-0.00,0.00,-0.01,-45.60,19.62,-25.14
1523,-0.48,6.40,-8.02,-0.00,0.00,-0.01,-45.60,19.62,-25.14
1534,-0.48,6.40,-8.02,-0.00,0.00,-0.01,-45.60,19.62,-25.14
1545,-0.50,6.38,-8.00,-0.00,0.00,-0.01,-47.65,19.62,-24.52
1556,-0.49,6.36,-8.01,0.00,0.00,-0.01,-47.65,19.62,-24.52
1567,-0.49,6.36,-8.01,0.00,0.00,-0.01,-47.65,19.62,-24.52
1578,-0.50,6.37,-8.01,-0.00,0.00,-0.01,-47.65,19.62,-24.52
1589,-0.50,6.37,-8.01,-0.00,0.00,-0.01,-47.65,19.62,-24.52
1600,-0.51,6.38,-8.03,-0.00,0.00,-0.01,-47.65,19.62,-24.52
1611,-0.51,6.38,-8.03,-0.00,0.00,-0.01,-47.65,19.62,-24.52
1623,-0.51,6.38,-8.02,-0.00,0.00,-0.01,-47.65,19.62,-24.52
1633,-0.51,6.38,-8.02,-0.00,0.00,-0.01,-47.65,19.62,-24.52
1644,-0.51,6.36,-8.03,0.00,0.00,-0.01,-47.65,19.62,-24.52
1655,-0.51,6.36,-8.03,0.00,0.00,-0.01,-47.65,19.62,-24.52
1666,-0.50,6.36,-8.01,-0.00,0.00,-0.01,-48.42,20.07,-25.30
1677,-0.50,6.37,-8.03,-0.00,0.00,-0.01,-48.42,20.07,-25.30
1688,-0.50,6.37,-8.03,-0.00,0.00,-0.01,-48.42,20.07,-25.30
1699,-0.50,6.36,-8.01,-0.00,0.00,-0.01,-48.42,20.07,-25.30
1710,-0.50,6.36,-8.01,-0.00,0.00,-0.01,-48.42,20.07,-25.30
1721,-0.49,6.37,-8.02,-0.00,0.00,-0.01,-48.42,20.07,-25.30
1732,-0.49,6.37,-8.02,-0.00,0.00,-0.01,-48.42,20.07,-25.30
1743,-0.50,6.37,-8.03,-0.00,0.00,-0.01,-48.42,20.07,-25.30
1754,-0.50,6.37,-8.03,-0.00,0.00,-0.01,-48.42,20.07,-25.30
1765,-0.50,6.37,-8.00,-0.00,0.00,-0.01,-48.42,20.07,-25.30
1776,-0.51,6.37,-8.00,-0.00,0.00,-0.01,-48.42,20.07,-25.30
1787,-0.51,6.37,-8.00,-0.00,0.00,-0.01,-48.42,20.07,-25.30
1798,-0.51,6.38,-8.01,-0.00,0.00,-0.01,-47.14,19.62,-25.45
1809,-0.51,6.38,-8.01,-0.00,0.00,-0.01,-47.14,19.62,-25.45
1820,-0.49,6.38,-8.00,-0.00,0.00,-0.01,-47.14,19.62,-25.45
1831,-0.49,6.38,-8.00,-0.00,0.00,-0.01,-47.14,19.62,-25.45
1842,-0.50,6.37,-8.00,-0.00,0.00,-0.01,-47.14,19.62,-25.45
1853,-0.50,6.37,-8.00,-0.00,0.00,-0.01,-47.14,19.62,-25.45
1864,-0.50,6.35,-8.00,-0.00,0.00,-0.01,-47.14,19.62,-25.45
1875,-0.50,6.35,-8.00,-0.00,0.00,-0.01,-47.14,19.62,-25.45
1886,-0.50,6.38,-8.03,-0.00,0.00,-0.01,-47.14,19.62,-25.45
1897,-0.50,6.37,-8.01,0.00,0.00,-0.01,-47.14,19.62,-25.45
1908,-0.50,6.37,-8.01,0.00,0.00,-0.01,-47.14,19.62,-25.45
1919,-0.50,6.37,-8.02,-0.00,0.00,-0.01,-49.19,19.92,-25.14
1930,-0.50,6.37,-8.02,-0.00,0.00,-0.01,-49.19,19.92,-25.14
1941,-0.49,6.37,-8.05,-0.00,0.00,-0.01,-49.19,19.92,-25.14
1952,-0.49,6.37,-8.05,-0.00,0.00,-0.01,-49.19,19.92,-25.14
1963,-0.50,6.37,-8.01,-0.00,0.00,-0.01,-49.19,19.92,-25.14
1974,-0.50,6.37,-8.01,-0.00,0.00,-0.01,-49.19,19.92,-25.14
1985,-0.49,6.38,-8.00,-0.00,0.00,-0.01,-49.19,19.92,-25.14
1996,-0.49,6.36,-8.02,-0.00,0.00,-0.01,-49.19,19.92,-25.14
2007,-0.49,6.36,-8.02,-0.00,0.00,-0.01,-49.19,19.92,-25.14
2018,-0.47,6.33,-8.06,-0.01,0.00,-0.01,-49.19,19.92,-25.14
2029,-0.47,6.33,-8.06,-0.01,0.00,-0.01,-49.19,19.92,-25.14
2040,-0.18,5.94,-8.72,-0.17,-0.08,-0.07,-48.42,20.66,-24.37
2052,-0.18,5.94,-8.72,-0.17,-0.08,-0.07,-48.42,20.66,-24.37
2062,-0.83,6.76,-7.50,-1.02,-0.39,-0.26,-48.42,20.66,-24.37
2073,-0.83,6.76,-7.50,-1.02,-0.39,-0.26,-48.42,20.66,-24.37
2084,-0.98,7.12,-7.19,-0.14,-0.08,0.01,-48.42,20.66,-24.37
2095,-0.98,7.12,-7.19,-0.14,-0.08,0.01,-48.42,20.66,-24.37
2106,0.03,5.75,-8.86,1.07,0.36,0.27,-48.42,20.66,-24.37
2117,0.09,5.73,-9.28,-0.69,-0.30,-0.22,-48.42,20.66,-24.37
2128,0.09,5.73,-9.28,-0.69,-0.30,-0.22,-48.42,20.66,-24.37
2139,-0.98,7.10,-7.31,-1.55,-0.75,-0.12,-48.42,20.66,-24.37
2150,-0.98,7.10,-7.31,-1.55,-0.75,-0.12,-48.42,20.66,-24.37
2161,-1.00,7.14,-7.23,0.41,-0.37,0.64,-48.42,20.66,-24.37
2172,-1.00,7.14,-7.23,0.41,-0.37,0.64,-48.42,20.66,-24.37
2183,-1.10,7.84,-7.06,1.66,0.03,1.11,-50.99,20.95,-23.13
2194,-1.10,7.84,-7.06,1.66,0.03,1.11,-50.99,20.95,-23.13
2205,-0.15,6.56,-8.25,0.68,0.07,0.85,-50.99,20.95,-23.13
2216,-2.15,5.39,-8.54,-0.26,-0.38,-0.13,-50.99,20.95,-23.13
2227,-2.15,5.39,-8.54,-0.26,-0.38,-0.13,-50.99,20.95,-23.13
2238,-0.42,7.01,-7.76,-0.05,0.51,-0.78,-50.99,20.95,-23.13
2249,-0.42,7.01,-7.76,-0.05,0.51,-0.78,-50.99,20.95,-23.13
2260,-0.31,6.26,-8.41,0.18,0.31,-0.31,-50.99,20.95,-23.13
2271,-0.31,6.26,-8.41,0.18,0.31,-0.31,-50.99,20.95,-23.13
2282,0.28,7.13,-10.72,0.84,0.35,-0.18,-50.99,20.95,-23.13
2293,0.28,7.13,-10.72,0.84,0.35,-0.18,-50.99,20.95,-23.13
2305,0.14,6.13,-9.90,2.71,-0.07,0.07,-47.40,20.07,-25.30
2315,0.14,6.13,-9.90,2.71,-0.07,0.07,-47.40,20.07,-25.30
2326,0.07,4.44,-9.11,4.10,-0.27,0.39,-47.40,20.07,-25.30
2337,-0.31,3.36,-9.59,4.15,-0.29,0.71,-47.40,20.07,-25.30
2348,-0.31,3.36,-9.59,4.15,-0.29,0.71,-47.40,20.07,-25.30
2359,-0.70,2.18,-9.43,4.09,-0.31,1.12,-47.40,20.07,-25.30
2370,-0.70,2.18,-9.43,4.09,-0.31,1.12,-47.40,20.07,-25.30
2381,-0.52,2.58,-10.04,3.88,-0.28,1.61,-47.40,20.07,-25.30
2392,-0.52,2.58,-10.04,3.88,-0.28,1.61,-47.40,20.07,-25.30
2403,-0.80,3.39,-10.62,4.17,-0.14,1.92,-47.40,20.07,-25.30
2414,-0.80,3.39,-10.62,4.17,-0.14,1.92,-47.40,20.07,-25.30
2425,-1.10,2.91,-11.71,5.73,0.20,1.94,-46.62,6.63,-31.96
2436,-1.10,2.91,-11.71,5.73,0.20,1.94,-46.62,6.63,-31.96
2447,-0.51,4.82,-12.75,5.82,0.23,1.20,-46.62,6.63,-31.96
2458,-2.35,2.60,-15.03,3.72,-0.45,-0.45,-46.62,6.63,-31.96
2469,-2.35,2.60,-15.03,3.72,-0.45,-0.45,-46.62,6.63,-31.96
2480,0.11,-1.78,-13.24,3.45,-1.28,-1.21,-46.62,6.63,-31.96
2491,0.11,-1.78,-13.24,3.45,-1.28,-1.21,-46.62,6.63,-31.96
2502,0.61,-3.87,-9.98,2.89,-2.01,-0.96,-46.62,6.63,-31.96
2513,0.61,-3.87,-9.98,2.89,-2.01,-0.96,-46.62,6.63,-31.96
2524,-2.02,-4.39,-8.78,2.08,-2.09,-0.42,-46.62,6.63,-31.96
2535,-2.02,-4.39,-8.78,2.08,-2.09,-0.42,-46.62,6.63,-31.96
2546,-3.38,-5.17,-12.26,1.65,-1.65,-0.15,-46.62,6.63,-31.96
2557,-2.32,-5.57,-16.06,1.91,-2.03,-0.03,-52.79,-9.03,-29.17
2568,-2.32,-5.57,-16.06,1.91,-2.03,-0.03,-52.79,-9.03,-29.17
2579,-1.24,-1.00,-14.65,2.10,-3.36,0.08,-52.79,-9.03,-29.17
2590,-1.24,-1.00,-14.65,2.10,-3.36,0.08,-52.79,-9.03,-29.17
2601,-0.39,1.41,-10.63,2.64,-4.57,-0.36,-52.79,-9.03,-29.17
2612,-0.39,1.41,-10.63,2.64,-4.57,-0.36,-52.79,-9.03,-29.17
2623,-1.04,-2.30,-6.52,3.57,-5.31,-1.04,-52.79,-9.03,-29.17
2634,-1.04,-2.30,-6.52,3.57,-5.31,-1.04,-52.79,-9.03,-29.17
2645,-2.81,-7.01,-3.96,3.83,-5.30,-1.00,-52.79,-9.03,-29.17
2656,-2.81,-7.01,-3.96,3.83,-5.30,-1.00,-52.79,-9.03,-29.17
2667,-3.34,-7.18,-3.75,3.39,-4.88,-0.35,-52.79,-9.03,-29.17
2678,-2.76,-4.94,-3.46,2.42,-4.51,0.16,-71.29,-17.89,-9.96
2690,-2.76,-4.94,-3.46,2.42,-4.51,0.16,-71.29,-17.89,-9.96
2700,-4.22,-3.88,-3.60,1.79,-4.35,0.23,-71.29,-17.89,-9.96
2711,-4.22,-3.88,-3.60,1.79,-4.35,0.23,-71.29,-17.89,-9.96
2722,-6.59,-8.05,-0.75,3.70,-4.11,0.39,-71.29,-17.89,-9.96
2733,-6.59,-8.05,-0.75,3.70,-4.11,0.39,-71.29,-17.89,-9.96
2744,-3.87,-10.10,0.32,5.64,-3.30,1.45,-71.29,-17.89,-9.96
2755,-3.87,-10.10,0.32,5.64,-3.30,1.45,-71.29,-17.89,-9.96
2766,-3.10,-0.37,-0.76,3.69,-2.82,2.73,-71.29,-17.89,-9.96
2777,-4.93,1.23,-0.73,2.94,-2.41,2.22,-71.29,-17.89,-9.96
2788,-4.93,1.23,-0.73,2.94,-2.41,2.22,-71.29,-17.89,-9.96
2799,-7.30,-3.15,-0.53,4.96,-1.77,1.29,-79.25,-13.02,12.51
2810,-7.30,-3.15,-0.53,4.96,-1.77,1.29,-79.25,-13.02,12.51
2821,-8.71,-5.58,-2.53,5.89,-1.71,1.30,-79.25,-13.02,12.51
2832,-8.71,-5.58,-2.53,5.89,-1.71,1.30,-79.25,-13.02,12.51
2843,-5.87,-6.34,-2.13,5.25,-2.49,1.85,-79.25,-13.02,12.51
2854,-5.87,-6.34,-2.13,5.25,-2.49,1.85,-79.25,-13.02,12.51
2865,-2.39,-4.02,-0.69,4.53,-3.13,2.61,-79.25,-13.02,12.51
2876,-2.39,-4.02,-0.69,4.53,-3.13,2.61,-79.25,-13.02,12.51
2887,-6.14,-1.57,3.62,5.74,-3.30,3.18,-79.25,-13.02,12.51
2898,-10.41,-1.91,8.84,6.63,-2.61,3.23,-79.25,-13.02,12.51
2909,-10.41,-1.91,8.84,6.63,-2.61,3.23,-79.25,-13.02,12.51
2920,-9.12,-0.90,6.80,4.31,-1.76,2.85,-69.74,8.10,24.75
2931,-9.12,-0.90,6.80,4.31,-1.76,2.85,-69.74,8.10,24.75
2942,-7.82,-0.04,5.30,3.17,-1.32,2.48,-69.74,8.10,24.75
2953,-7.82,-0.04,5.30,3.17,-1.32,2.48,-69.74,8.10,24.75
2965,-8.22,2.00,7.38,2.20,-0.96,2.00,-69.74,8.10,24.75
2975,-8.22,2.00,7.38,2.20,-0.96,2.00,-69.74,8.10,24.75
2986,-8.52,3.06,6.33,1.07,-0.28,1.12,-69.74,8.10,24.75
2997,-10.29,0.62,2.24,0.91,0.15,0.29,-69.74,8.10,24.75
3008,-10.29,0.62,2.24,0.91,0.15,0.29,-69.74,8.10,24.75
3019,-9.17,-0.56,3.18,2.25,-0.35,0.08,-69.74,8.10,24.75
3030,-9.17,-0.56,3.18,2.25,-0.35,0.08,-69.74,8.10,24.75
3041,-10.53,-0.75,6.66,2.31,-0.74,0.19,-69.74,8.10,24.75
3052,-10.53,-0.75,6.66,2.31,-0.74,0.19,-69.74,8.10,24.75
3063,-11.19,-0.01,7.08,-0.45,-0.71,0.10,-65.12,16.67,22.58
3074,-11.19,-0.01,7.08,-0.45,-0.71,0.10,-65.12,16.67,22.58
3085,-10.53,1.63,6.11,-3.14,-0.57,0.14,-65.12,16.67,22.58
3096,-10.53,1.63,6.11,-3.14,-0.57,0.14,-65.12,16.67,22.58
3107,-10.34,1.43,9.15,-3.72,-0.49,0.10,-65.12,16.67,22.58
3118,-8.84,1.20,5.73,-4.00,-0.18,-0.34,-65.12,16.67,22.58
3129,-8.84,1.20,5.73,-4.00,-0.18,-0.34,-65.12,16.67,22.58
3140,-7.60,0.63,5.05,-4.08,0.01,-0.63,-65.12,16.67,22.58
3151,-7.60,0.63,5.05,-4.08,0.01,-0.63,-65.12,16.67,22.58
3162,-1.79,-0.02,1.57,-3.33,-0.04,-0.46,-65.12,16.67,22.58
3173,-1.79,-0.02,1.57,-3.33,-0.04,-0.46,-65.12,16.67,22.58
3184,-3.69,-3.88,5.51,-0.18,-0.16,0.21,-65.12,7.22,30.33
3195,-3.69,-3.88,5.51,-0.18,-0.16,0.21,-65.12,7.22,30.33
3206,-7.77,-2.74,2.71,0.59,-0.18,1.13,-65.12,7.22,30.33
3217,-5.99,-4.29,5.27,1.76,-0.50,2.05,-65.12,7.22,30.33
3228,-5.99,-4.29,5.27,1.76,-0.50,2.05,-65.12,7.22,30.33
3239,-5.65,-1.42,3.91,1.89,-1.36,2.43,-65.12,7.22,30.33
3250,-5.65,-1.42,3.91,1.89,-1.36,2.43,-65.12,7.22,30.33
3261,-9.19,-1.54,13.99,4.48,-2.28,2.72,-65.12,7.22,30.33
3272,-9.19,-1.54,13.99,4.48,-2.28,2.72,-65.12,7.22,30.33
3284,-4.58,2.94,12.84,3.64,-0.99,2.77,-65.12,7.22,30.33
3294,-4.58,2.94,12.84,3.64,-0.99,2.77,-65.12,7.22,30.33
3305,-4.57,4.35,7.29,2.18,0.72,1.67,-52.02,19.77,26.77
3316,-4.57,4.35,7.29,2.18,0.72,1.67,-52.02,19.77,26.77
3327,-8.78,6.16,5.70,1.38,1.19,0.29,-52.02,19.77,26.77
3338,-10.40,4.44,11.54,0.77,1.25,-1.14,-52.02,19.77,26.77
3349,-10.40,4.44,11.54,0.77,1.25,-1.14,-52.02,19.77,26.77
3360,-10.01,2.52,6.09,-2.53,1.49,-1.77,-52.02,19.77,26.77
3371,-10.01,2.52,6.09,-2.53,1.49,-1.77,-52.02,19.77,26.77
3382,-7.93,1.75,-0.07,-3.59,1.08,-1.46,-52.02,19.77,26.77
3393,-7.93,1.75,-0.07,-3.59,1.08,-1.46,-52.02,19.77,26.77
3404,-6.70,2.60,2.28,-2.30,0.18,-0.93,-52.02,19.77,26.77
3415,-6.70,2.60,2.28,-2.30,0.18,-0.93,-52.02,19.77,26.77
3426,-5.61,2.53,5.97,-1.31,-0.07,-0.81,-52.02,19.77,26.77
3437,-5.61,2.53,5.97,-1.31,-0.07,-0.81,-52.02,19.77,26.77
3448,-5.77,-0.02,6.29,-0.48,0.42,-1.02,-62.29,14.16,26.77
3459,-10.32,-3.34,5.15,0.36,0.77,-0.74,-62.29,14.16,26.77
3470,-10.32,-3.34,5.15,0.36,0.77,-0.74,-62.29,14.16,26.77
3481,-9.94,-0.63,4.38,0.39,0.23,0.03,-62.29,14.16,26.77
3492,-9.94,-0.63,4.38,0.39,0.23,0.03,-62.29,14.16,26.77
3503,-7.03,1.58,6.04,0.40,-0.37,0.26,-62.29,14.16,26.77
3514,-7.03,1.58,6.04,0.40,-0.37,0.26,-62.29,14.16,26.77
3525,-6.29,1.21,6.76,0.25,-0.15,-0.07,-62.29,14.16,26.77
3536,-6.29,1.21,6.76,0.25,-0.15,-0.07,-62.29,14.16,26.77
3547,-7.96,0.38,5.97,0.24,0.41,-0.33,-62.29,14.16,26.77
3558,-9.73,-0.68,4.96,0.25,0.58,-0.24,-65.12,15.49,26.30
3569,-9.73,-0.68,4.96,0.25,0.58,-0.24,-65.12,15.49,26.30
3580,-8.65,0.30,4.03,0.24,0.27,0.14,-65.12,15.49,26.30
3591,-8.65,0.30,4.03,0.24,0.27,0.14,-65.12,15.49,26.30
3602,-7.65,0.29,5.95,0.39,-0.04,0.23,-65.12,15.49,26.30
3613,-7.65,0.29,5.95,0.39,-0.04,0.23,-65.12,15.49,26.30
3625,-8.02,0.46,5.88,0.52,0.16,0.21,-65.12,15.49,26.30
3635,-8.02,0.46,5.88,0.52,0.16,0.21,-65.12,15.49,26.30
3646,-8.50,0.89,5.17,0.54,0.31,0.08,-65.12,15.49,26.30
3657,-8.50,0.89,5.17,0.54,0.31,0.08,-65.12,15.49,26.30
3668,-8.84,0.88,4.69,0.49,0.33,0.10,-65.12,15.49,26.30
3679,-8.54,1.17,4.72,0.34,0.20,0.21,-65.12,17.26,24.13
3690,-8.54,1.17,4.72,0.34,0.20,0.21,-65.12,17.26,24.13
3701,-8.21,1.31,4.89,0.24,0.07,0.25,-65.12,17.26,24.13
3712,-8.21,1.31,4.89,0.24,0.07,0.25,-65.12,17.26,24.13
3723,-8.10,1.33,5.48,0.25,0.05,0.17,-65.12,17.26,24.13
3734,-8.10,1.33,5.48,0.25,0.05,0.17,-65.12,17.26,24.13
3745,-7.78,1.14,5.63,0.18,0.17,0.07,-65.12,17.26,24.13
3756,-7.78,1.14,5.63,0.18,0.17,0.07,-65.12,17.26,24.13
3767,-8.33,0.92,5.40,0.20,0.36,0.09,-65.12,17.26,24.13
3778,-9.34,1.67,4.67,-0.03,0.20,0.08,-65.12,17.26,24.13
3789,-9.34,1.67,4.67,-0.03,0.20,0.08,-65.12,17.26,24.13
3800,-8.67,0.69,4.61,-0.29,-0.02,-0.12,-65.12,17.26,24.13
3811,-8.67,0.69,4.61,-0.29,-0.02,-0.12,-65.12,17.26,24.13
3822,-8.96,1.19,5.34,-0.06,-0.08,-0.18,-63.58,16.96,23.82
3833,-8.96,1.19,5.34,-0.06,-0.08,-0.18,-63.58,16.96,23.82
3844,-9.03,2.69,6.14,-0.05,0.02,-0.56,-63.58,16.96,23.82
3855,-9.03,2.69,6.14,-0.05,0.02,-0.56,-63.58,16.96,23.82
3866,-8.12,-0.12,5.51,-0.14,0.19,-1.21,-63.58,16.96,23.82
3877,-8.12,-0.12,5.51,-0.14,0.19,-1.21,-63.58,16.96,23.82
3888,-7.76,-0.89,5.14,0.24,0.21,-1.17,-63.58,16.96,23.82
3899,-8.60,0.21,4.60,0.42,0.17,-0.85,-63.58,16.96,23.82
3910,-8.60,0.21,4.60,0.42,0.17,-0.85,-63.58,16.96,23.82
3922,-8.21,-0.62,4.27,0.29,0.17,-0.41,-63.58,16.96,23.82
3932,-8.21,-0.62,4.27,0.29,0.17,-0.41,-63.58,16.96,23.82
3943,-8.61,0.88,4.93,0.13,0.10,0.03,-66.40,15.04,24.29
3954,-8.61,0.88,4.93,0.13,0.10,0.03,-66.40,15.04,24.29
3965,-8.99,0.99,4.86,-0.09,0.09,0.03,-66.40,15.04,24.29
3976,-8.99,0.99,4.86,-0.09,0.09,0.03,-66.40,15.04,24.29
3987,-9.40,1.31,4.44,-0.66,0.13,-0.07,-66.40,15.04,24.29
3998,-8.64,-0.47,4.71,-1.03,0.21,-0.07,-66.40,15.04,24.29
4009,-8.64,-0.47,4.71,-1.03,0.21,-0.07,-66.40,15.04,24.29
4020,-8.37,-0.69,5.13,-0.83,0.21,0.05,-66.40,15.04,24.29
4031,-8.37,-0.69,5.13,-0.83,0.21,0.05,-66.40,15.04,24.29
4042,-8.01,-1.64,4.50,-0.46,0.18,0.10,-66.40,15.04,24.29
4053,-8.01,-1.64,4.50,-0.46,0.18,0.10,-66.40,15.04,24.29
4064,-8.20,-1.26,5.24,0.09,0.11,0.35,-65.63,13.42,23.20
4075,-8.20,-1.26,5.24,0.09,0.11,0.35,-65.63,13.42,23.20
4086,-9.61,-0.66,3.84,0.67,0.13,0.61,-65.63,13.42,23.20
4097,-9.61,-0.66,3.84,0.67,0.13,0.61,-65.63,13.42,23.20
4108,-10.57,2.82,2.62,0.48,-0.49,0.76,-65.63,13.42,23.20
4119,-6.24,1.93,5.13,-0.48,-0.96,0.51,-65.63,13.42,23.20
4130,-6.24,1.93,5.13,-0.48,-0.96,0.51,-65.63,13.42,23.20
4141,-7.26,0.94,5.36,-0.63,-0.46,0.58,-65.63,13.42,23.20
4152,-7.26,0.94,5.36,-0.63,-0.46,0.58,-65.63,13.42,23.20
4163,-6.95,1.71,6.29,-0.46,-0.15,0.80,-65.63,13.42,23.20
4174,-6.95,1.71,6.29,-0.46,-0.15,0.80,-65.63,13.42,23.20
4185,-7.14,1.18,7.24,-0.23,0.28,0.66,-64.35,16.23,23.98
4196,-7.14,1.18,7.24,-0.23,0.28,0.66,-64.35,16.23,23.98
4207,-12.48,1.81,3.75,-0.26,0.75,0.21,-64.35,16.23,23.98
4218,-8.68,1.13,2.31,-0.34,0.29,-0.28,-64.35,16.23,23.98
4229,-8.68,1.13,2.31,-0.34,0.29,-0.28,-64.35,16.23,23.98
4240,-9.47,3.13,4.90,0.08,0.06,-0.67,-64.35,16.23,23.98
4251,-9.47,3.13,4.90,0.08,0.06,-0.67,-64.35,16.23,23.98
4262,-8.36,-1.39,4.89,-0.09,-0.05,-1.55,-64.35,16.23,23.98
4273,-8.36,-1.39,4.89,-0.09,-0.05,-1.55,-64.35,16.23,23.98
4285,-9.05,-5.56,5.27,0.19,-0.05,-1.18,-64.35,16.23,23.98
4295,-9.05,-5.56,5.27,0.19,-0.05,-1.18,-64.35,16.23,23.98
4306,-12.05,-0.62,1.72,0.20,-0.09,0.40,-64.35,16.23,23.98
4317,-12.05,-0.62,1.72,0.20,-0.09,0.40,-64.35,16.23,23.98
4328,-8.99,1.91,5.75,-0.69,-0.77,0.91,-68.46,13.86,24.91
4339,-7.60,1.31,4.79,-0.97,-0.40,0.63,-68.46,13.86,24.91
4350,-7.60,1.31,4.79,-0.97,-0.40,0.63,-68.46,13.86,24.91
4361,-6.82,-0.06,7.18,-1.11,0.04,0.29,-68.46,13.86,24.91
4372,-6.82,-0.06,7.18,-1.11,0.04,0.29,-68.46,13.86,24.91
4383,-6.85,0.13,3.56,-0.81,0.80,0.37,-68.46,13.86,24.91
4394,-6.85,0.13,3.56,-0.81,0.80,0.37,-68.46,13.86,24.91
4405,-8.23,1.68,4.43,-0.17,0.43,0.21,-68.46,13.86,24.91
4416,-8.23,1.68,4.43,-0.17,0.43,0.21,-68.46,13.86,24.91
4427,-7.47,-0.08,6.47,0.13,-0.24,-0.37,-68.46,13.86,24.91
4438,-7.47,-0.08,6.47,0.13,-0.24,-0.37,-68.46,13.86,24.91
4449,-6.73,-1.27,7.51,0.33,-0.37,-0.50,-65.89,14.16,26.46
4460,-7.51,-0.27,6.24,0.70,-0.01,-0.13,-65.89,14.16,26.46
4471,-7.51,-0.27,6.24,0.70,-0.01,-0.13,-65.89,14.16,26.46
4482,-8.70,0.80,5.08,0.80,0.20,0.02,-65.89,14.16,26.46
4493,-8.70,0.80,5.08,0.80,0.20,0.02,-65.89,14.16,26.46
4504,-9.09,0.51,4.90,0.54,0.28,0.04,-65.89,14.16,26.46
4515,-9.09,0.51,4.90,0.54,0.28,0.04,-65.89,14.16,26.46
4526,-8.60,0.51,4.41,0.21,0.37,0.18,-65.89,14.16,26.46
4537,-8.60,0.51,4.41,0.21,0.37,0.18,-65.89,14.16,26.46
4548,-8.16,0.44,5.46,0.23,0.39,0.21,-65.89,14.16,26.46
4559,-9.51,0.60,4.81,0.09,0.26,0.09,-66.15,14.31,23.20
4570,-9.51,0.60,4.81,0.09,0.26,0.09,-66.15,14.31,23.20
4581,-9.10,1.12,3.44,-0.17,0.06,-0.08,-66.15,14.31,23.20
4592,-9.10,1.12,3.44,-0.17,0.06,-0.08,-66.15,14.31,23.20
4603,-9.20,0.97,5.05,-0.18,-0.01,-0.20,-66.15,14.31,23.20
4614,-9.20,0.97,5.05,-0.18,-0.01,-0.20,-66.15,14.31,23.20
4625,-8.29,-0.35,4.31,-0.55,0.09,-0.19,-66.15,14.31,23.20
4636,-8.29,-0.35,4.31,-0.55,0.09,-0.19,-66.15,14.31,23.20
4647,-7.93,-1.12,5.16,-0.52,-0.01,0.07,-66.15,14.31,23.20
4658,-7.93,-1.12,5.16,-0.52,-0.01,0.07,-66.15,14.31,23.20
4669,-8.01,-0.47,5.68,-0.24,-0.08,0.41,-66.15,14.31,23.20
4680,-8.22,-0.55,5.80,0.12,-0.07,0.46,-66.15,14.31,23.20
4691,-8.22,-0.55,5.80,0.12,-0.07,0.46,-66.15,14.31,23.20
4702,-8.63,0.47,4.95,0.26,-0.05,0.40,-65.12,14.60,25.06
4713,-8.63,0.47,4.95,0.26,-0.05,0.40,-65.12,14.60,25.06
4724,-8.97,1.59,4.57,0.27,0.01,0.21,-65.12,14.60,25.06
4735,-8.97,1.59,4.57,0.27,0.01,0.21,-65.12,14.60,25.06
4746,-9.36,1.77,4.94,0.23,0.06,-0.17,-65.12,14.60,25.06
4757,-9.36,1.77,4.94,0.23,0.06,-0.17,-65.12,14.60,25.06
4768,-9.42,2.39,4.13,0.07,0.15,-0.56,-65.12,14.60,25.06
4779,-8.65,0.31,3.50,-0.17,0.20,-0.91,-65.12,14.60,25.06
4790,-8.65,0.31,3.50,-0.17,0.20,-0.91,-65.12,14.60,25.06
4801,-8.59,-0.82,5.22,-0.27,0.08,-0.82,-65.12,14.60,25.06
4812,-8.59,-0.82,5.22,-0.27,0.08,-0.82,-65.12,14.60,25.06
4823,-8.55,-1.49,5.11,-0.21,0.15,-0.39,-67.18,13.42,24.44
4834,-8.55,-1.49,5.11,-0.21,0.15,-0.39,-67.18,13.42,24.44
4845,-8.55,-0.95,4.31,-0.12,0.21,0.10,-67.18,13.42,24.44
4856,-8.55,-0.95,4.31,-0.12,0.21,0.10,-67.18,13.42,24.44
4867,-8.39,-0.44,4.47,-0.15,0.16,0.43,-67.18,13.42,24.44
4878,-8.39,-0.44,4.47,-0.15,0.16,0.43,-67.18,13.42,24.44
4889,-8.58,0.45,5.27,-0.15,0.10,0.48,-67.18,13.42,24.44
4900,-8.61,-0.32,4.48,0.08,0.10,0.24,-67.18,13.42,24.44
4911,-8.61,-0.32,4.48,0.08,0.10,0.24,-67.18,13.42,24.44
4922,-9.07,1.10,4.22,0.32,0.08,0.19,-67.18,13.42,24.44
4933,-9.07,1.10,4.22,0.32,0.08,0.19,-67.18,13.42,24.44
4944,-9.14,1.77,4.54,0.26,0.09,-0.04,-67.69,13.72,24.44
4955,-9.14,1.77,4.54,0.26,0.09,-0.04,-67.69,13.72,24.44
4966,-8.94,0.39,4.73,-0.07,0.11,-0.29,-67.69,13.72,24.44
4977,-8.94,0.39,4.73,-0.07,0.11,-0.29,-67.69,13.72,24.44
4988,-8.67,-0.34,4.35,-0.36,0.15,-0.23,-67.69,13.72,24.44
4999,-8.54,-0.98,3.69,-0.49,0.15,0.00,-67.69,13.72,24.44
5010,-8.54,-0.98,3.69,-0.49,0.15,0.00,-67.69,13.72,24.44
5021,-8.71,0.34,4.66,-0.34,0.07,0.39,-67.69,13.72,24.44
5032,-8.71,0.34,4.66,-0.34,0.07,0.39,-67.69,13.72,24.44
5043,-8.25,-0.14,4.10,-0.12,-0.00,0.48,-67.69,13.72,24.44
5054,-8.25,-0.14,4.10,-0.12,-0.00,0.48,-67.69,13.72,24.44
5065,-8.55,0.25,5.15,0.07,-0.12,0.52,-67.69,13.72,24.44
5076,-8.55,0.25,5.15,0.07,-0.12,0.52,-67.69,13.72,24.44
5087,-8.42,-0.30,4.61,0.01,-0.17,0.46,-66.15,14.31,24.13
5098,-8.42,-0.30,4.61,0.01,-0.17,0.46,-66.15,14.31,24.13
5109,-8.54,0.33,4.90,0.41,-0.18,0.34,-66.15,14.31,24.13
5121,-9.82,1.58,6.15,0.76,-0.15,0.01,-66.15,14.31,24.13
5131,-9.82,1.58,6.15,0.76,-0.15,0.01,-66.15,14.31,24.13
5142,-9.56,2.36,3.33,0.35,0.15,-0.31,-66.15,14.31,24.13
5153,-9.56,2.36,3.33,0.35,0.15,-0.31,-66.15,14.31,24.13
5164,-9.21,2.15,3.95,-0.18,0.15,-0.65,-66.15,14.31,24.13
5175,-9.21,2.15,3.95,-0.18,0.15,-0.65,-66.15,14.31,24.13
5186,-8.57,-1.34,3.64,-0.69,0.12,-0.59,-66.15,14.31,24.13
5197,-8.57,-1.34,3.64,-0.69,0.12,-0.59,-66.15,14.31,24.13
5208,-8.30,-1.70,5.03,-0.52,0.03,-0.00,-66.92,14.16,22.74
5219,-8.30,-1.70,5.03,-0.52,0.03,-0.00,-66.92,14.16,22.74
5230,-8.50,-0.17,5.84,-0.21,0.02,0.37,-66.92,14.16,22.74
5241,-8.83,0.57,4.82,-0.07,0.11,0.30,-66.92,14.16,22.74
5252,-8.83,0.57,4.82,-0.07,0.11,0.30,-66.92,14.16,22.74
5263,-9.05,1.61,3.74,-0.05,0.16,0.14,-66.92,14.16,22.74
5274,-9.05,1.61,3.74,-0.05,0.16,0.14,-66.92,14.16,22.74
5285,-9.24,1.32,3.99,-0.02,0.09,-0.11,-66.92,14.16,22.74
5296,-9.24,1.32,3.99,-0.02,0.09,-0.11,-66.92,14.16,22.74
5307,-9.02,1.16,4.04,-0.11,0.09,-0.42,-66.92,14.16,22.74
5318,-9.02,1.16,4.04,-0.11,0.09,-0.42,-66.92,14.16,22.74
5329,-8.80,-1.00,4.81,-0.10,0.10,-0.60,-66.66,14.90,23.82
5340,-8.54,-1.12,4.51,-0.11,0.14,-0.32,-66.66,14.90,23.82
5351,-8.54,-1.12,4.51,-0.11,0.14,-0.32,-66.66,14.90,23.82
5362,-8.88,-0.93,4.26,0.23,0.12,0.00,-66.66,14.90,23.82
5373,-8.88,-0.93,4.26,0.23,0.12,0.00,-66.66,14.90,23.82
5384,-8.71,-0.21,4.05,0.48,0.12,0.31,-66.66,14.90,23.82
5395,-8.71,-0.21,4.05,0.48,0.12,0.31,-66.66,14.90,23.82
5406,-8.63,0.11,4.33,0.41,0.07,0.49,-66.66,14.90,23.82
5417,-8.63,0.11,4.33,0.41,0.07,0.49,-66.66,14.90,23.82
5428,-8.93,0.69,4.77,0.16,0.03,0.59,-66.66,14.90,23.82
5439,-8.93,0.69,4.77,0.16,0.03,0.59,-66.66,14.90,23.82
5450,-9.11,1.81,4.70,-0.18,0.01,0.52,-67.18,15.49,24.44
5461,-9.06,1.22,4.28,-0.31,0.00,0.22,-67.18,15.49,24.44
5472,-9.06,1.22,4.28,-0.31,0.00,0.22,-67.18,15.49,24.44
5483,-8.96,0.52,4.08,-0.28,0.01,-0.07,-67.18,15.49,24.44
5494,-8.96,0.52,4.08,-0.28,0.01,-0.07,-67.18,15.49,24.44
5505,-9.13,0.49,4.57,-0.10,0.01,-0.17,-67.18,15.49,24.44
5516,-9.13,0.49,4.57,-0.10,0.01,-0.17,-67.18,15.49,24.44
5527,-9.25,1.09,4.57,0.08,0.10,-0.28,-67.18,15.49,24.44
5538,-9.25,1.09,4.57,0.08,0.10,-0.28,-67.18,15.49,24.44
5549,-8.71,-0.37,3.89,0.10,0.18,-0.54,-67.18,15.49,24.44
5560,-8.77,-1.10,3.69,0.28,0.15,-0.35,-67.18,15.49,24.44
5571,-8.77,-1.10,3.69,0.28,0.15,-0.35,-67.18,15.49,24.44
5582,-8.95,0.00,4.09,0.50,0.06,-0.03,-69.23,13.42,21.96
5593,-8.95,0.00,4.09,0.50,0.06,-0.03,-69.23,13.42,21.96
5604,-8.75,-0.46,4.43,0.42,0.03,0.15,-69.23,13.42,21.96
5615,-8.75,-0.46,4.43,0.42,0.03,0.15,-69.23,13.42,21.96
5626,-8.76,0.02,4.84,0.37,0.03,0.43,-69.23,13.42,21.96
5637,-8.76,0.02,4.84,0.37,0.03,0.43,-69.23,13.42,21.96
5648,-8.87,0.62,4.34,0.20,0.07,0.64,-69.23,13.42,21.96
5659,-8.87,0.62,4.34,0.20,0.07,0.64,-69.23,13.42,21.96
5670,-9.19,1.53,4.44,0.10,0.07,0.48,-69.23,13.42,21.96
5681,-9.15,1.10,3.80,0.21,0.11,0.18,-69.23,13.42,21.96
5692,-9.15,1.10,3.80,0.21,0.11,0.18,-69.23,13.42,21.96
5703,-9.83,2.80,4.14,0.44,0.11,-0.09,-67.43,15.63,22.12
5714,-9.83,2.80,4.14,0.44,0.11,-0.09,-67.43,15.63,22.12
5725,-9.66,3.30,2.84,0.09,0.21,-0.72,-67.43,15.63,22.12
5736,-9.66,3.30,2.84,0.09,0.21,-0.72,-67.43,15.63,22.12
5747,-8.31,-0.01,2.26,-1.02,0.07,-1.06,-67.43,15.63,22.12
5758,-8.31,-0.01,2.26,-1.02,0.07,-1.06,-67.43,15.63,22.12
5769,-8.70,-4.15,3.88,-1.20,-0.32,-0.60,-67.43,15.63,22.12
5780,-8.85,-3.22,4.88,-0.41,-0.26,0.61,-67.43,15.63,22.12
5791,-8.85,-3.22,4.88,-0.41,-0.26,0.61,-67.43,15.63,22.12
5802,-11.62,2.33,3.08,0.21,-0.49,1.34,-67.43,15.63,22.12
5813,-11.62,2.33,3.08,0.21,-0.49,1.34,-67.43,15.63,22.12
5824,-8.44,0.92,4.41,0.20,-0.85,0.70,-64.86,14.16,23.05
5835,-8.44,0.92,4.41,0.20,-0.85,0.70,-64.86,14.16,23.05
5846,-8.63,1.49,4.66,0.16,-0.56,0.28,-64.86,14.16,23.05
5857,-8.63,1.49,4.66,0.16,-0.56,0.28,-64.86,14.16,23.05
5868,-8.72,2.44,3.06,-0.13,-0.05,0.16,-64.86,14.16,23.05
5879,-8.72,2.44,3.06,-0.13,-0.05,0.16,-64.86,14.16,23.05
5890,-7.71,2.22,4.70,-0.21,-0.05,-0.06,-64.86,14.16,23.05
5901,-6.64,1.55,4.07,-0.38,-0.09,-0.26,-64.86,14.16,23.05
5912,-6.64,1.55,4.07,-0.38,-0.09,-0.26,-64.86,14.16,23.05
5924,-7.59,1.52,5.91,-0.39,-0.47,-0.56,-64.86,14.16,23.05
5934,-7.59,1.52,5.91,-0.39,-0.47,-0.56,-64.86,14.16,23.05
5945,-6.60,-2.65,9.78,-0.28,-0.71,-1.10,-64.86,14.16,23.05
5956,-6.60,-2.65,9.78,-0.28,-0.71,-1.10,-64.86,14.16,23.05
5967,-7.48,-3.58,6.62,0.22,-0.17,-0.79,-65.38,13.57,25.84
5978,-7.48,-3.58,6.62,0.22,-0.17,-0.79,-65.38,13.57,25.84
5989,-9.05,-0.93,4.89,0.83,0.22,0.09,-65.38,13.57,25.84
6000,-9.30,1.43,4.18,0.80,0.24,0.36,-65.38,13.57,25.84
6011,-9.30,1.43,4.18,0.80,0.24,0.36,-65.38,13.57,25.84
6022,-9.71,1.12,3.52,0.55,0.21,0.21,-65.38,13.57,25.84
6033,-9.71,1.12,3.52,0.55,0.21,0.21,-65.38,13.57,25.84
6044,-9.38,1.53,3.27,0.35,0.02,0.17,-65.38,13.57,25.84
6055,-9.38,1.53,3.27,0.35,0.02,0.17,-65.38,13.57,25.84
6066,-8.98,2.10,4.42,0.06,-0.13,0.06,-65.38,13.57,25.84
6077,-8.98,2.10,4.42,0.06,-0.13,0.06,-65.38,13.57,25.84
6088,-8.34,0.20,5.26,-0.10,-0.09,-0.17,-65.63,15.78,24.75
6099,-8.34,0.20,5.26,-0.10,-0.09,-0.17,-65.63,15.78,24.75
6110,-7.82,-0.53,5.78,0.07,0.07,-0.13,-65.63,15.78,24.75
6121,-7.87,-0.04,5.44,0.36,0.28,0.05,-65.63,15.78,24.75
6132,-7.87,-0.04,5.44,0.36,0.28,0.05,-65.63,15.78,24.75
6148,-9.58,1.50,3.82,0.15,0.25,0.20,-65.63,15.78,24.75
6154,-9.58,1.50,3.82,0.15,0.25,0.20,-65.63,15.78,24.75
6165,-9.09,0.78,3.41,-0.64,-0.00,0.19,-65.63,15.78,24.75
6176,-9.09,0.78,3.41,-0.64,-0.00,0.19,-65.63,15.78,24.75
6187,-9.38,1.30,4.46,-0.94,-0.10,0.30,-65.63,15.78,24.75
6198,-9.38,1.30,4.46,-0.94,-0.10,0.30,-65.63,15.78,24.75
6209,-8.88,0.79,4.48,-0.82,-0.04,0.17,-66.66,15.49,23.20
6220,-8.88,0.79,4.48,-0.82,-0.04,0.17,-66.66,15.49,23.20
6231,-8.80,-0.67,5.13,-0.45,0.02,-0.05,-66.66,15.49,23.20
6242,-8.73,0.87,5.55,0.11,0.13,-0.16,-66.66,15.49,23.20
6253,-8.73,0.87,5.55,0.11,0.13,-0.16,-66.66,15.49,23.20
6264,-8.66,0.73,4.63,0.55,0.24,-0.48,-66.66,15.49,23.20
6275,-8.66,0.73,4.63,0.55,0.24,-0.48,-66.66,15.49,23.20
6287,-8.67,0.26,3.52,0.72,0.27,-0.52,-66.66,15.49,23.20
6297,-8.67,0.26,3.52,0.72,0.27,-0.52,-66.66,15.49,23.20
6308,-8.88,1.05,3.86,0.75,0.19,-0.32,-66.66,15.49,23.20
6319,-8.88,1.05,3.86,0.75,0.19,-0.32,-66.66,15.49,23.20
6330,-8.80,-0.10,3.94,0.48,0.13,-0.19,-66.66,15.49,23.20
6341,-8.24,-0.75,4.37,0.30,0.07,0.19,-68.20,14.60,22.89
6352,-8.24,-0.75,4.37,0.30,0.07,0.19,-68.20,14.60,22.89
6363,-8.53,0.49,5.82,0.22,0.01,0.53,-68.20,14.60,22.89
6374,-8.53,0.49,5.82,0.22,0.01,0.53,-68.20,14.60,22.89
6385,-8.28,-1.08,5.61,0.09,0.06,0.52,-68.20,14.60,22.89
6396,-8.28,-1.08,5.61,0.09,0.06,0.52,-68.20,14.60,22.89
6407,-9.03,0.79,5.36,0.17,0.14,0.67,-68.20,14.60,22.89
6418,-9.03,0.79,5.36,0.17,0.14,0.67,-68.20,14.60,22.89
6429,-9.35,2.76,3.59,0.29,0.28,0.52,-68.20,14.60,22.89
6440,-9.35,2.76,3.59,0.29,0.28,0.52,-68.20,14.60,22.89
6451,-9.19,3.25,2.42,0.09,0.21,0.18,-68.20,14.60,22.89
6462,-9.74,3.09,4.18,-0.32,-0.03,-0.25,-67.43,15.63,22.74
6473,-9.74,3.09,4.18,-0.32,-0.03,-0.25,-67.43,15.63,22.74
6484,-8.67,-0.14,3.70,-0.95,0.01,-0.56,-67.43,15.63,22.74
6495,-8.67,-0.14,3.70,-0.95,0.01,-0.56,-67.43,15.63,22.74
6506,-8.57,-1.28,4.61,-0.86,0.02,-0.20,-67.43,15.63,22.74
6517,-8.57,-1.28,4.61,-0.86,0.02,-0.20,-67.43,15.63,22.74
6528,-8.52,-0.28,5.40,-0.46,0.06,0.27,-67.43,15.63,22.74
6539,-8.52,-0.28,5.40,-0.46,0.06,0.27,-67.43,15.63,22.74
6550,-8.44,0.44,5.00,-0.15,0.08,0.37,-67.43,15.63,22.74
6562,-8.71,0.37,4.74,0.05,0.06,0.31,-67.43,15.63,22.74
6572,-8.71,0.37,4.74,0.05,0.06,0.31,-67.43,15.63,22.74
6583,-9.06,1.59,4.32,-0.02,0.05,0.27,-67.95,16.23,23.67
6594,-9.06,1.59,4.32,-0.02,0.05,0.27,-67.95,16.23,23.67
6605,-9.15,1.30,4.22,-0.07,0.03,0.06,-67.95,16.23,23.67
6616,-9.15,1.30,4.22,-0.07,0.03,0.06,-67.95,16.23,23.67
6627,-9.31,1.73,4.43,-0.08,0.03,-0.18,-67.95,16.23,23.67
6638,-9.31,1.73,4.43,-0.08,0.03,-0.18,-67.95,16.23,23.67
6649,-9.01,1.79,3.82,-0.16,0.10,-0.57,-67.95,16.23,23.67
6660,-9.01,1.79,3.82,-0.16,0.10,-0.57,-67.95,16.23,23.67
6671,-8.89,0.17,3.57,-0.25,0.15,-0.77,-67.95,16.23,23.67
6682,-8.79,-0.24,3.46,-0.19,0.14,-0.59,-67.95,16.23,23.67
6693,-8.79,-0.24,3.46,-0.19,0.14,-0.59,-67.95,16.23,23.67
6704,-8.80,-0.97,4.10,0.05,0.13,-0.30,-68.46,14.75,22.74
6715,-8.80,-0.97,4.10,0.05,0.13,-0.30,-68.46,14.75,22.74
6726,-8.73,-0.95,4.65,0.33,0.13,0.17,-68.46,14.75,22.74
6737,-8.73,-0.95,4.65,0.33,0.13,0.17,-68.46,14.75,22.74
6748,-8.72,0.23,4.12,0.27,0.10,0.55,-68.46,14.75,22.74
6759,-8.72,0.23,4.12,0.27,0.10,0.55,-68.46,14.75,22.74
6770,-9.11,2.04,4.39,-0.06,0.06,0.64,-68.46,14.75,22.74
6786,-9.09,2.15,3.97,-0.53,-0.01,0.30,-68.46,14.75,22.74
6792,-9.09,2.15,3.97,-0.53,-0.01,0.30,-68.46,14.75,22.74
6803,-9.24,1.15,4.47,-0.67,-0.06,-0.12,-68.46,14.75,22.74
6814,-9.24,1.15,4.47,-0.67,-0.06,-0.12,-68.46,14.75,22.74
6825,-9.24,0.62,4.57,-0.50,-0.01,-0.37,-68.46,14.75,22.74
6836,-9.24,0.62,4.57,-0.50,-0.01,-0.37,-68.46,14.75,22.74
6847,-9.06,0.75,4.74,-0.21,0.08,-0.59,-68.20,14.90,23.51
6858,-9.06,0.75,4.74,-0.21,0.08,-0.59,-68.20,14.90,23.51
6869,-8.41,-2.35,3.99,0.11,0.17,-0.78,-68.20,14.90,23.51
6880,-8.41,-2.35,3.99,0.11,0.17,-0.78,-68.20,14.90,23.51
6891,-8.84,-0.21,4.50,0.25,0.11,-0.17,-68.20,14.90,23.51
6902,-8.79,-0.55,3.71,-0.12,0.06,0.10,-68.20,14.90,23.51
6913,-8.79,-0.55,3.71,-0.12,0.06,0.10,-68.20,14.90,23.51
6924,-9.13,-0.35,4.32,-0.46,-0.02,0.51,-68.20,14.90,23.51
6935,-9.13,-0.35,4.32,-0.46,-0.02,0.51,-68.20,14.90,23.51
6946,-9.35,2.38,4.19,-0.51,0.06,0.63,-68.20,14.90,23.51
6957,-9.35,2.38,4.19,-0.51,0.06,0.63,-68.20,14.90,23.51
6968,-9.27,1.15,4.04,-0.65,0.07,0.12,-68.97,13.57,23.98
6979,-9.27,1.15,4.04,-0.65,0.07,0.12,-68.97,13.57,23.98
6990,-9.23,0.69,4.09,-0.43,0.11,-0.16,-68.97,13.57,23.98
7001,-9.11,1.02,4.26,0.02,0.14,-0.36,-68.97,13.57,23.98
7012,-9.11,1.02,4.26,0.02,0.14,-0.36,-68.97,13.57,23.98
7023,-8.72,0.56,2.61,0.06,0.08,-0.61,-68.97,13.57,23.98
7034,-8.72,0.56,2.61,0.06,0.08,-0.61,-68.97,13.57,23.98
7045,-8.94,-1.49,2.95,0.03,-0.19,-0.64,-68.97,13.57,23.98
7056,-8.94,-1.49,2.95,0.03,-0.19,-0.64,-68.97,13.57,23.98
7067,-10.37,-2.69,5.12,0.12,-0.30,-0.35,-68.97,13.57,23.98
7078,-10.37,-2.69,5.12,0.12,-0.30,-0.35,-68.97,13.57,23.98
7089,-10.20,-1.67,4.19,-0.01,-0.49,0.20,-66.92,13.86,24.29
7100,-10.20,-1.67,4.19,-0.01,-0.49,0.20,-66.92,13.86,24.29
7111,-8.40,0.58,2.73,-0.24,-0.44,0.69,-66.92,13.86,24.29
7122,-7.73,3.51,3.43,-0.29,-0.45,0.79,-66.92,13.86,24.29
7133,-7.73,3.51,3.43,-0.29,-0.45,0.79,-66.92,13.86,24.29
7144,-5.93,1.81,6.33,0.09,-0.45,0.10,-66.92,13.86,24.29
7155,-5.93,1.81,6.33,0.09,-0.45,0.10,-66.92,13.86,24.29
7167,-8.44,0.27,4.69,0.25,-0.10,-0.36,-66.92,13.86,24.29
7177,-8.44,0.27,4.69,0.25,-0.10,-0.36,-66.92,13.86,24.29
7188,-8.53,-2.50,8.53,0.22,-0.31,-0.59,-66.92,13.86,24.29
7199,-8.53,-2.50,8.53,0.22,-0.31,-0.59,-66.92,13.86,24.29
7210,-7.49,-2.13,5.24,0.29,0.18,-0.10,-66.92,13.86,24.29
7221,-7.49,-2.13,5.24,0.29,0.18,-0.10,-66.92,13.86,24.29
7232,-9.52,0.84,4.17,0.66,0.41,0.41,-68.20,14.60,24.75
7243,-9.34,1.12,3.55,0.45,0.35,0.26,-68.20,14.60,24.75
7254,-9.34,1.12,3.55,0.45,0.35,0.26,-68.20,14.60,24.75
7265,-8.75,1.24,3.69,0.32,0.26,0.12,-68.20,14.60,24.75
7276,-8.75,1.24,3.69,0.32,0.26,0.12,-68.20,14.60,24.75
7287,-10.59,2.13,2.31,0.24,0.21,-0.01,-68.20,14.60,24.75
7298,-10.59,2.13,2.31,0.24,0.21,-0.01,-68.20,14.60,24.75
7309,-9.14,0.69,3.73,-0.10,-0.03,-0.22,-68.20,14.60,24.75
7320,-9.14,0.69,3.73,-0.10,-0.03,-0.22,-68.20,14.60,24.75
7331,-9.44,0.11,4.62,-0.04,-0.03,-0.26,-68.20,14.60,24.75
7342,-8.92,-0.02,4.17,-0.08,0.12,-0.21,-67.18,14.31,23.20
7353,-8.92,-0.02,4.17,-0.08,0.12,-0.21,-67.18,14.31,23.20
7364,-8.54,-1.04,4.05,-0.39,0.10,-0.02,-67.18,14.31,23.20
7375,-8.54,-1.04,4.05,-0.39,0.10,-0.02,-67.18,14.31,23.20
7386,-8.40,-0.55,4.61,-0.41,0.02,0.40,-67.18,14.31,23.20
7397,-8.40,-0.55,4.61,-0.41,0.02,0.40,-67.18,14.31,23.20
7408,-8.50,-0.21,5.24,-0.17,-0.05,0.49,-67.18,14.31,23.20
7419,-8.50,-0.21,5.24,-0.17,-0.05,0.49,-67.18,14.31,23.20
7430,-8.36,-1.06,4.27,0.30,-0.05,0.45,-67.18,14.31,23.20
7441,-8.36,-1.06,4.27,0.30,-0.05,0.45,-67.18,14.31,23.20
7452,-9.54,1.68,4.96,0.69,-0.09,0.38,-67.18,14.31,23.20
7463,-9.94,2.15,3.96,0.53,0.09,-0.05,-66.66,15.78,23.82
7474,-9.94,2.15,3.96,0.53,0.09,-0.05,-66.66,15.78,23.82
7485,-9.80,3.03,2.66,0.18,0.22,-0.43,-66.66,15.78,23.82
7496,-9.80,3.03,2.66,0.18,0.22,-0.43,-66.66,15.78,23.82
7507,-8.43,0.10,4.00,-0.12,0.18,-0.76,-66.66,15.78,23.82
7518,-8.43,0.10,4.00,-0.12,0.18,-0.76,-66.66,15.78,23.82
7529,-7.86,-1.36,4.08,-0.64,0.06,-0.21,-66.66,15.78,23.82
7540,-7.86,-1.36,4.08,-0.64,0.06,-0.21,-66.66,15.78,23.82
7551,-8.83,0.57,5.19,-0.76,-0.04,0.35,-66.66,15.78,23.82
7562,-9.00,0.12,4.31,-0.69,0.02,0.15,-66.66,15.78,23.82
7573,-9.00,0.12,4.31,-0.69,0.02,0.15,-66.66,15.78,23.82
7584,-9.01,-0.19,3.94,-0.35,0.06,-0.02,-66.66,15.78,23.82
7595,-9.01,-0.19,3.94,-0.35,0.06,-0.02,-66.66,15.78,23.82
7606,-9.12,0.17,3.98,0.09,0.08,-0.01,-66.40,13.57,23.67
7617,-9.12,0.17,3.98,0.09,0.08,-0.01,-66.40,13.57,23.67
7628,-9.39,1.11,4.27,0.39,0.14,-0.15,-66.40,13.57,23.67
7639,-9.39,1.11,4.27,0.39,0.14,-0.15,-66.40,13.57,23.67
7650,-8.82,0.30,3.29,0.32,0.21,-0.45,-66.40,13.57,23.67
7661,-8.82,0.30,3.29,0.32,0.21,-0.45,-66.40,13.57,23.67
7672,-9.10,0.24,3.58,0.29,0.10,-0.33,-66.40,13.57,23.67
7683,-8.93,-0.67,4.42,0.20,0.04,-0.14,-66.40,13.57,23.67
7694,-8.93,-0.67,4.42,0.20,0.04,-0.14,-66.40,13.57,23.67
7706,-8.72,-0.69,4.19,0.35,0.09,0.13,-66.40,13.57,23.67
7716,-8.72,-0.69,4.19,0.35,0.09,0.13,-66.40,13.57,23.67
7727,-8.69,0.03,4.19,0.43,0.09,0.43,-65.63,13.12,22.58
7738,-8.69,0.03,4.19,0.43,0.09,0.43,-65.63,13.12,22.58
7749,-8.85,1.07,3.99,0.20,0.04,0.54,-65.63,13.12,22.58
7760,-8.85,1.07,3.99,0.20,0.04,0.54,-65.63,13.12,22.58
7771,-9.15,1.31,4.26,-0.22,-0.01,0.41,-65.63,13.12,22.58
7782,-9.22,0.88,4.12,-0.52,-0.05,0.19,-65.63,13.12,22.58
7793,-9.22,0.88,4.12,-0.52,-0.05,0.19,-65.63,13.12,22.58
7804,-9.08,0.40,4.21,-0.50,-0.02,0.01,-65.63,13.12,22.58
7815,-9.08,0.40,4.21,-0.50,-0.02,0.01,-65.63,13.12,22.58
7826,-9.13,-0.04,4.29,-0.30,0.02,-0.09,-65.63,13.12,22.58
7837,-9.13,-0.04,4.29,-0.30,0.02,-0.09,-65.63,13.12,22.58
7848,-9.22,0.26,4.28,-0.09,0.10,-0.06,-67.95,14.16,23.67
7859,-9.22,0.26,4.28,-0.09,0.10,-0.06,-67.95,14.16,23.67
7870,-9.09,0.31,3.73,0.06,0.21,-0.10,-67.95,14.16,23.67
7881,-9.09,0.31,3.73,0.06,0.21,-0.10,-67.95,14.16,23.67
7892,-8.97,0.46,3.02,0.36,0.23,-0.12,-67.95,14.16,23.67
7903,-9.15,1.44,3.00,0.45,0.12,-0.16,-67.95,14.16,23.67
7914,-9.15,1.44,3.00,0.45,0.12,-0.16,-67.95,14.16,23.67
7925,-9.17,0.26,4.00,0.17,-0.09,-0.22,-67.95,14.16,23.67
7936,-9.17,0.26,4.00,0.17,-0.09,-0.22,-67.95,14.16,23.67
7947,-8.32,-3.40,3.76,-0.06,-0.13,0.16,-67.95,14.16,23.67
7958,-8.32,-3.40,3.76,-0.06,-0.13,0.16,-67.95,14.16,23.67
7969,-9.86,-0.23,4.20,0.25,-0.24,1.17,-66.40,15.34,23.05
7980,-9.86,-0.23,4.20,0.25,-0.24,1.17,-66.40,15.34,23.05
7991,-6.50,-0.79,5.80,0.45,-0.57,1.54,-66.40,15.34,23.05
8002,-6.09,3.17,6.62,0.45,-0.35,1.76,-66.40,15.34,23.05
8013,-6.09,3.17,6.62,0.45,-0.35,1.76,-66.40,15.34,23.05
8024,-7.20,5.53,4.82,0.85,0.41,0.85,-66.40,15.34,23.05
8035,-7.20,5.53,4.82,0.85,0.41,0.85,-66.40,15.34,23.05
8046,-11.18,2.93,3.58,0.58,0.28,-0.09,-66.40,15.34,23.05
8057,-11.18,2.93,3.58,0.58,0.28,-0.09,-66.40,15.34,23.05
8068,-9.66,3.90,0.22,-0.27,-0.15,-0.48,-66.40,15.34,23.05
8079,-9.66,3.90,0.22,-0.27,-0.15,-0.48,-66.40,15.34,23.05
8090,-9.71,1.03,4.92,-0.78,-0.50,-1.00,-66.40,15.34,23.05
8101,-9.71,1.03,4.92,-0.78,-0.50,-1.00,-66.40,15.34,23.05
8112,-10.30,-4.34,3.40,-0.75,-0.35,-0.95,-66.40,15.63,22.43
8123,-6.80,-0.77,6.24,-0.64,-0.63,0.25,-66.40,15.63,22.43
8134,-6.80,-0.77,6.24,-0.64,-0.63,0.25,-66.40,15.63,22.43
8145,-7.87,3.04,3.76,-0.39,-0.08,0.78,-66.40,15.63,22.43
8156,-7.87,3.04,3.76,-0.39,-0.08,0.78,-66.40,15.63,22.43
8167,-7.35,2.85,5.46,-0.41,-0.06,0.18,-66.40,15.63,22.43
8178,-7.35,2.85,5.46,-0.41,-0.06,0.18,-66.40,15.63,22.43
8189,-8.04,0.46,4.99,-0.25,0.10,-0.28,-66.40,15.63,22.43
8200,-8.04,0.46,4.99,-0.25,0.10,-0.28,-66.40,15.63,22.43
8211,-9.02,-0.16,4.18,-0.02,0.20,-0.08,-66.40,15.63,22.43
8222,-9.02,-0.16,4.18,-0.02,0.20,-0.08,-66.40,15.63,22.43
8233,-8.61,1.27,3.80,-0.05,0.15,0.28,-66.40,15.34,23.98
8244,-7.81,1.54,4.55,-0.27,0.12,0.32,-66.40,15.34,23.98
8255,-7.81,1.54,4.55,-0.27,0.12,0.32,-66.40,15.34,23.98
8266,-11.38,3.66,1.27,-0.41,0.22,0.14,-66.40,15.34,23.98
8277,-11.38,3.66,1.27,-0.41,0.22,0.14,-66.40,15.34,23.98
8288,-9.01,0.38,2.91,-0.50,-0.04,-0.29,-66.40,15.34,23.98
8299,-9.01,0.38,2.91,-0.50,-0.04,-0.29,-66.40,15.34,23.98
8310,-10.21,2.89,6.16,0.19,0.02,-0.36,-66.40,15.34,23.98
8321,-10.21,2.89,6.16,0.19,0.02,-0.36,-66.40,15.34,23.98
8332,-9.83,2.27,3.77,0.86,0.35,-1.15,-66.40,15.34,23.98
8343,-7.38,-0.77,5.23,1.67,0.42,-1.89,-68.97,15.34,22.74
8354,-7.38,-0.77,5.23,1.67,0.42,-1.89,-68.97,15.34,22.74
8365,-7.67,-4.64,3.64,1.28,0.29,-1.06,-68.97,15.34,22.74
8376,-7.67,-4.64,3.64,1.28,0.29,-1.06,-68.97,15.34,22.74
8387,-9.13,2.21,4.93,1.10,0.09,0.20,-68.97,15.34,22.74
8398,-9.13,2.21,4.93,1.10,0.09,0.20,-68.97,15.34,22.74
8409,-8.32,-0.79,4.06,0.03,0.09,0.21,-68.97,15.34,22.74
8420,-8.32,-0.79,4.06,0.03,0.09,0.21,-68.97,15.34,22.74
8431,-8.40,-1.82,5.26,-0.17,0.02,0.84,-68.97,15.34,22.74
8442,-8.40,-1.82,5.26,-0.17,0.02,0.84,-68.97,15.34,22.74
8453,-9.72,3.01,4.81,0.00,0.13,1.22,-68.97,15.34,22.74
8464,-9.43,2.82,2.99,-0.10,0.27,0.65,-68.97,15.34,22.74
8475,-9.43,2.82,2.99,-0.10,0.27,0.65,-68.97,15.34,22.74
8486,-9.38,3.92,2.15,-0.43,0.17,0.18,-67.18,17.26,21.03
8497,-9.38,3.92,2.15,-0.43,0.17,0.18,-67.18,17.26,21.03
8508,-9.77,3.85,2.75,-0.90,-0.09,-0.30,-67.18,17.26,21.03
8519,-9.77,3.85,2.75,-0.90,-0.09,-0.30,-67.18,17.26,21.03
8530,-9.34,0.19,4.59,-1.64,-0.19,-0.69,-67.18,17.26,21.03
8541,-9.34,0.19,4.59,-1.64,-0.19,-0.69,-67.18,17.26,21.03
8552,-8.51,-2.71,4.64,-1.45,-0.05,-0.41,-67.18,17.26,21.03
8563,-8.55,-1.27,4.56,-0.54,-0.02,0.13,-67.18,17.26,21.03
8574,-8.55,-1.27,4.56,-0.54,-0.02,0.13,-67.18,17.26,21.03
8585,-8.70,-1.74,4.44,0.12,-0.07,0.29,-67.18,17.26,21.03
8596,-8.70,-1.74,4.44,0.12,-0.07,0.29,-67.18,17.26,21.03
8607,-10.78,1.60,2.36,0.81,-0.12,0.50,-67.43,15.63,23.67
8618,-10.78,1.60,2.36,0.81,-0.12,0.50,-67.43,15.63,23.67
8634,-12.46,3.84,2.51,0.61,-0.88,0.09,-67.43,15.63,23.67
8640,-12.46,3.84,2.51,0.61,-0.88,0.09,-67.43,15.63,23.67
8651,-7.65,1.26,4.68,-0.38,-0.93,-0.34,-67.43,15.63,23.67
8662,-7.65,1.26,4.68,-0.38,-0.93,-0.34,-67.43,15.63,23.67
8673,-7.61,2.54,2.35,-0.42,-0.15,-0.13,-67.43,15.63,23.67
8684,-8.02,0.93,5.09,-0.20,-0.18,-0.41,-67.43,15.63,23.67
8695,-8.02,0.93,5.09,-0.20,-0.18,-0.41,-67.43,15.63,23.67
8706,-8.16,-1.20,6.28,-0.03,-0.16,-0.61,-67.43,15.63,23.67
8717,-8.16,-1.20,6.28,-0.03,-0.16,-0.61,-67.43,15.63,23.67
8728,-8.18,-0.88,6.22,-0.04,-0.05,-0.38,-63.84,13.57,26.46
8739,-8.18,-0.88,6.22,-0.04,-0.05,-0.38,-63.84,13.57,26.46
8750,-8.02,-0.48,6.22,0.00,-0.04,-0.28,-63.84,13.57,26.46
8761,-8.02,-0.48,6.22,0.00,-0.04,-0.28,-63.84,13.57,26.46
8773,-8.07,-0.10,6.17,0.04,-0.11,-0.27,-63.84,13.57,26.46
8783,-8.03,-1.02,5.75,0.11,-0.03,-0.25,-63.84,13.57,26.46
8794,-8.03,-1.02,5.75,0.11,-0.03,-0.25,-63.84,13.57,26.46
8805,-9.03,0.40,3.99,0.30,0.25,0.07,-63.84,13.57,26.46
8816,-9.03,0.40,3.99,0.30,0.25,0.07,-63.84,13.57,26.46
8827,-9.35,1.41,3.40,0.26,0.22,0.11,-63.84,13.57,26.46
8838,-9.35,1.41,3.40,0.26,0.22,0.11,-63.84,13.57,26.46
8849,-8.81,1.25,3.53,0.11,0.07,-0.01,-63.84,13.57,26.46
8860,-8.81,1.25,3.53,0.11,0.07,-0.01,-63.84,13.57,26.46
8871,-8.47,0.97,4.32,0.07,0.03,-0.07,-67.95,14.45,24.29
8882,-8.47,0.97,4.32,0.07,0.03,-0.07,-67.95,14.45,24.29
8893,-8.08,0.22,5.39,0.09,0.14,-0.10,-67.95,14.45,24.29
8904,-11.27,-0.45,5.49,0.24,0.43,-0.09,-67.95,14.45,24.29
8915,-11.27,-0.45,5.49,0.24,0.43,-0.09,-67.95,14.45,24.29
8926,-9.54,-0.10,4.62,0.00,0.25,-0.04,-67.95,14.45,24.29
8937,-9.54,-0.10,4.62,0.00,0.25,-0.04,-67.95,14.45,24.29
8948,-9.10,1.01,3.03,-0.48,0.06,-0.01,-67.95,14.45,24.29
8959,-9.10,1.01,3.03,-0.48,0.06,-0.01,-67.95,14.45,24.29
8970,-8.80,-0.93,3.37,-0.69,-0.08,0.16,-67.95,14.45,24.29
8981,-8.80,-0.93,3.37,-0.69,-0.08,0.16,-67.95,14.45,24.29
8992,-8.84,-0.13,4.81,-0.56,-0.17,0.69,-67.95,14.45,23.67
9003,-8.40,-0.14,5.38,-0.31,-0.22,0.77,-67.95,14.45,23.67
9014,-8.40,-0.14,5.38,-0.31,-0.22,0.77,-67.95,14.45,23.67
9025,-9.56,1.62,5.91,-0.10,-0.14,0.55,-67.95,14.45,23.67
9036,-9.56,1.62,5.91,-0.10,-0.14,0.55,-67.95,14.45,23.67
9047,-8.94,0.30,3.74,-0.26,0.06,0.09,-67.95,14.45,23.67
9058,-8.94,0.30,3.74,-0.26,0.06,0.09,-67.95,14.45,23.67
9069,-9.03,0.94,3.86,0.01,0.02,0.02,-67.95,14.45,23.67
9080,-9.03,0.94,3.86,0.01,0.02,0.02,-67.95,14.45,23.67
9091,-9.44,2.01,4.77,0.08,-0.02,-0.14,-67.95,14.45,23.67
9102,-9.44,2.01,4.77,0.08,-0.02,-0.14,-67.95,14.45,23.67
9113,-8.74,0.34,4.85,-0.15,0.08,-0.48,-65.38,14.75,23.67
9124,-8.36,-1.07,3.95,-0.19,0.13,-0.41,-65.38,14.75,23.67
9135,-8.36,-1.07,3.95,-0.19,0.13,-0.41,-65.38,14.75,23.67
9146,-8.97,-0.05,4.53,0.21,0.09,-0.08,-65.38,14.75,23.67
9157,-8.97,-0.05,4.53,0.21,0.09,-0.08,-65.38,14.75,23.67
9168,-9.42,0.41,4.98,0.45,0.18,-0.00,-65.38,14.75,23.67
9179,-9.42,0.41,4.98,0.45,0.18,-0.00,-65.38,14.75,23.67
9190,-9.02,0.48,4.67,0.33,0.35,-0.10,-65.38,14.75,23.67
9201,-9.02,0.48,4.67,0.33,0.35,-0.10,-65.38,14.75,23.67
9212,-8.29,-0.70,4.41,0.45,0.39,-0.07,-65.38,14.75,23.67
9223,-8.29,-0.70,4.41,0.45,0.39,-0.07,-65.38,14.75,23.67
9234,-8.39,0.50,4.52,0.54,0.29,0.23,-67.18,14.60,22.58
9245,-8.62,1.84,3.29,0.56,0.08,0.11,-67.18,14.60,22.58
9256,-8.62,1.84,3.29,0.56,0.08,0.11,-67.18,14.60,22.58
9267,-9.60,0.83,3.90,0.54,-0.15,-0.08,-67.18,14.60,22.58
9278,-9.60,0.83,3.90,0.54,-0.15,-0.08,-67.18,14.60,22.58
9289,-9.47,1.35,2.74,0.16,-0.02,-0.01,-67.18,14.60,22.58
9300,-9.47,1.35,2.74,0.16,-0.02,-0.01,-67.18,14.60,22.58
9311,-9.87,-0.78,3.99,-0.05,-0.03,-0.00,-67.18,14.60,22.58
9322,-9.87,-0.78,3.99,-0.05,-0.03,-0.00,-67.18,14.60,22.58
9333,-11.59,-0.08,2.25,-0.16,0.10,0.36,-67.18,14.60,22.58
9344,-8.52,2.37,3.97,-0.44,-0.43,0.51,-67.18,14.60,22.58
9356,-8.52,2.37,3.97,-0.44,-0.43,0.51,-67.18,14.60,22.58
9366,-6.83,2.16,4.50,-0.46,-0.38,0.35,-68.20,14.01,22.89
9377,-6.83,2.16,4.50,-0.46,-0.38,0.35,-68.20,14.01,22.89
9388,-7.83,2.68,4.09,-0.26,-0.00,0.00,-68.20,14.01,22.89
9399,-7.83,2.68,4.09,-0.26,-0.00,0.00,-68.20,14.01,22.89
9410,-9.69,-0.32,4.81,-0.27,-0.07,-0.47,-68.20,14.01,22.89
9421,-9.69,-0.32,4.81,-0.27,-0.07,-0.47,-68.20,14.01,22.89
9432,-8.00,-1.94,7.35,-0.23,-0.36,-0.48,-68.20,14.01,22.89
9443,-8.00,-1.94,7.35,-0.23,-0.36,-0.48,-68.20,14.01,22.89
9454,-7.73,-0.54,4.87,0.12,0.05,-0.00,-68.20,14.01,22.89
9465,-9.43,1.03,4.47,0.34,0.21,0.19,-68.20,14.01,22.89
9476,-9.43,1.03,4.47,0.34,0.21,0.19,-68.20,14.01,22.89
9487,-9.22,0.99,3.31,0.28,0.18,0.13,-67.95,14.75,23.98
9498,-9.22,0.99,3.31,0.28,0.18,0.13,-67.95,14.75,23.98
9509,-8.97,1.76,3.71,0.16,0.06,0.12,-67.95,14.75,23.98
9520,-8.97,1.76,3.71,0.16,0.06,0.12,-67.95,14.75,23.98
9531,-8.30,1.67,4.15,0.02,0.09,-0.03,-67.95,14.75,23.98
9542,-8.30,1.67,4.15,0.02,0.09,-0.03,-67.95,14.75,23.98
9553,-10.76,1.49,2.47,-0.03,0.22,-0.15,-67.95,14.75,23.98
9564,-9.11,0.45,3.67,-0.25,0.00,-0.19,-67.95,14.75,23.98
9575,-9.11,0.45,3.67,-0.25,0.00,-0.19,-67.95,14.75,23.98
9586,-9.16,0.75,4.25,-0.27,-0.01,-0.12,-67.95,14.75,23.98
9597,-9.16,0.75,4.25,-0.27,-0.01,-0.12,-67.95,14.75,23.98
9608,-8.65,-0.38,3.93,-0.41,-0.01,0.01,-66.66,15.19,23.20
9619,-8.65,-0.38,3.93,-0.41,-0.01,0.01,-66.66,15.19,23.20
9630,-8.80,0.46,4.77,-0.32,-0.03,0.32,-66.66,15.19,23.20
9641,-8.80,0.46,4.77,-0.32,-0.03,0.32,-66.66,15.19,23.20
9652,-8.80,0.82,4.96,-0.22,-0.04,0.30,-66.66,15.19,23.20
9663,-8.80,0.82,4.96,-0.22,-0.04,0.30,-66.66,15.19,23.20
9674,-9.11,0.27,4.68,-0.17,-0.02,0.05,-66.66,15.19,23.20
9685,-9.01,0.31,3.90,-0.00,0.07,0.00,-66.66,15.19,23.20
9696,-9.01,0.31,3.90,-0.00,0.07,0.00,-66.66,15.19,23.20
9707,-9.39,1.61,4.72,0.28,0.09,-0.03,-66.66,15.19,23.20
9718,-9.39,1.61,4.72,0.28,0.09,-0.03,-66.66,15.19,23.20
9729,-9.28,1.10,3.86,0.31,0.20,-0.40,-66.66,15.19,23.20
9740,-9.28,1.10,3.86,0.31,0.20,-0.40,-66.66,15.19,23.20
9751,-8.75,-0.00,2.86,0.36,0.21,-0.55,-67.69,14.90,24.13
9762,-8.75,-0.00,2.86,0.36,0.21,-0.55,-67.69,14.90,24.13
9773,-8.99,0.47,4.21,0.39,0.08,-0.26,-67.69,14.90,24.13
9784,-8.70,-1.02,4.26,0.34,0.09,0.04,-67.69,14.90,24.13
9795,-8.70,-1.02,4.26,0.34,0.09,0.04,-67.69,14.90,24.13
9806,-8.68,-0.48,4.67,0.50,0.16,0.57,-67.69,14.90,24.13
9817,-8.68,-0.48,4.67,0.50,0.16,0.57,-67.69,14.90,24.13
9828,-8.88,1.75,5.07,0.45,0.18,0.81,-67.69,14.90,24.13
9839,-8.88,1.75,5.07,0.45,0.18,0.81,-67.69,14.90,24.13
9850,-8.74,1.52,3.75,0.15,0.17,0.58,-67.69,14.90,24.13
9861,-8.74,1.52,3.75,0.15,0.17,0.58,-67.69,14.90,24.13
9872,-9.50,2.64,3.72,-0.18,0.07,0.33,-65.89,16.82,23.05
9883,-9.50,2.64,3.72,-0.18,0.07,0.33,-65.89,16.82,23.05
9894,-9.18,1.33,3.06,-0.39,0.03,-0.03,-65.89,16.82,23.05
9905,-9.29,1.24,3.99,-0.20,-0.05,-0.16,-65.89,16.82,23.05
9916,-9.29,1.24,3.99,-0.20,-0.05,-0.16,-65.89,16.82,23.05
9927,-9.63,1.34,4.95,-0.14,0.03,-0.29,-65.89,16.82,23.05
9938,-9.63,1.34,4.95,-0.14,0.03,-0.29,-65.89,16.82,23.05
9949,-9.08,0.21,4.06,-0.23,0.20,-0.42,-65.89,16.82,23.05
9960,-9.08,0.21,4.06,-0.23,0.20,-0.42,-65.89,16.82,23.05
9972,-8.78,-0.19,3.53,0.04,0.23,-0.32,-65.89,16.82,23.05
9982,-8.78,-0.19,3.53,0.04,0.23,-0.32,-65.89,16.82,23.05
9993,-8.86,0.23,3.55,0.37,0.18,-0.09,-67.18,14.31,21.96
10004,-8.86,0.23,3.55,0.37,0.18,-0.09,-67.18,14.31,21.96
10015,-9.03,1.35,3.46,0.55,0.14,0.15,-67.18,14.31,21.96
10026,-8.82,0.46,3.41,0.42,0.11,0.25,-67.18,14.31,21.96
10037,-8.82,0.46,3.41,0.42,0.11,0.25,-67.18,14.31,21.96
10048,-8.96,1.82,3.49,0.24,0.06,0.45,-67.18,14.31,21.96
10059,-8.96,1.82,3.49,0.24,0.06,0.45,-67.18,14.31,21.96
10070,-8.90,1.49,3.60,-0.03,-0.01,0.36,-67.18,14.31,21.96
10081,-8.90,1.49,3.60,-0.03,-0.01,0.36,-67.18,14.31,21.96
10092,-9.11,1.01,4.19,-0.20,-0.05,0.25,-67.18,14.31,21.96
10103,-9.11,1.01,4.19,-0.20,-0.05,0.25,-67.18,14.31,21.96
10114,-9.05,0.69,4.27,-0.32,-0.02,0.24,-65.38,15.93,22.43
10125,-9.22,0.87,4.38,-0.32,0.03,0.25,-65.38,15.93,22.43
10136,-9.22,0.87,4.38,-0.32,0.03,0.25,-65.38,15.93,22.43
10147,-9.11,0.62,4.21,-0.18,0.13,0.20,-65.38,15.93,22.43
10158,-9.11,0.62,4.21,-0.18,0.13,0.20,-65.38,15.93,22.43
10169,-9.19,1.51,3.53,0.03,0.19,0.23,-65.38,15.93,22.43
10180,-9.19,1.51,3.53,0.03,0.19,0.23,-65.38,15.93,22.43
10191,-9.18,1.96,2.94,0.11,0.15,0.16,-65.38,15.93,22.43
10202,-9.18,1.96,2.94,0.11,0.15,0.16,-65.38,15.93,22.43
10213,-9.21,2.31,3.02,0.04,0.01,0.02,-65.38,15.93,22.43
10224,-9.21,2.31,3.02,0.04,0.01,0.02,-65.38,15.93,22.43
10235,-9.22,1.74,3.67,-0.12,-0.12,-0.15,-65.38,15.93,22.43
10246,-9.21,1.01,4.35,-0.43,-0.13,-0.26,-67.95,17.11,22.74
10257,-9.21,1.01,4.35,-0.43,-0.13,-0.26,-67.95,17.11,22.74
10268,-9.49,0.25,4.62,-0.72,-0.01,-0.21,-67.95,17.11,22.74
10279,-9.49,0.25,4.62,-0.72,-0.01,-0.21,-67.95,17.11,22.74
10290,-8.75,0.62,2.89,-0.68,0.20,0.04,-67.95,17.11,22.74
10301,-8.75,0.62,2.89,-0.68,0.20,0.04,-67.95,17.11,22.74
10313,-9.04,1.50,3.74,-0.27,0.11,0.12,-67.95,17.11,22.74
10323,-9.04,1.50,3.74,-0.27,0.11,0.12,-67.95,17.11,22.74
10334,-9.10,0.76,4.17,0.07,0.03,-0.01,-67.95,17.11,22.74
10345,-9.57,2.18,4.01,0.31,0.07,-0.09,-67.95,17.11,22.74
10356,-9.57,2.18,4.01,0.31,0.07,-0.09,-67.95,17.11,22.74
10367,-9.19,1.16,2.91,0.20,0.09,-0.44,-66.40,15.04,21.50
10378,-9.19,1.16,2.91,0.20,0.09,-0.44,-66.40,15.04,21.50
10389,-9.28,1.83,3.22,0.08,0.07,-0.60,-66.40,15.04,21.50
10400,-9.28,1.83,3.22,0.08,0.07,-0.60,-66.40,15.04,21.50
10411,-9.23,1.92,3.10,-0.21,0.07,-0.59,-66.40,15.04,21.50
10422,-9.23,1.92,3.10,-0.21,0.07,-0.59,-66.40,15.04,21.50
10433,-8.94,-0.62,2.78,-0.62,-0.06,-0.57,-66.40,15.04,21.50
10444,-8.94,-0.62,2.78,-0.62,-0.06,-0.57,-66.40,15.04,21.50
10455,-8.56,-2.89,4.12,-0.66,-0.17,-0.06,-66.40,15.04,21.50
10466,-8.43,-1.34,5.06,-0.01,-0.15,0.67,-66.40,15.04,21.50
10477,-8.43,-1.34,5.06,-0.01,-0.15,0.67,-66.40,15.04,21.50
10488,-11.37,2.07,4.15,0.28,-0.23,0.74,-67.69,16.37,22.89
10499,-11.37,2.07,4.15,0.28,-0.23,0.74,-67.69,16.37,22.89
10510,-9.18,1.77,3.28,0.08,-0.62,0.23,-67.69,16.37,22.89
10521,-9.18,1.77,3.28,0.08,-0.62,0.23,-67.69,16.37,22.89
10532,-9.16,2.07,3.01,0.18,-0.81,-0.05,-67.69,16.37,22.89
10543,-9.16,2.07,3.01,0.18,-0.81,-0.05,-67.69,16.37,22.89
10554,-9.15,2.94,2.41,0.14,-0.84,-0.26,-67.69,16.37,22.89
10565,-8.41,2.85,3.17,-0.19,-0.89,-0.45,-67.69,16.37,22.89
10576,-8.41,2.85,3.17,-0.19,-0.89,-0.45,-67.69,16.37,22.89
10587,-7.37,0.28,6.61,-0.18,-0.78,-0.60,-67.69,16.37,22.89
10598,-7.37,0.28,6.61,-0.18,-0.78,-0.60,-67.69,16.37,22.89
10609,-8.47,-1.79,5.23,-0.00,-0.00,-0.38,-67.69,16.37,22.89
10620,-8.47,-1.79,5.23,-0.00,-0.00,-0.38,-67.69,16.37,22.89
10631,-9.92,0.10,4.74,0.34,0.34,0.18,-65.12,15.19,24.13
10642,-9.92,0.10,4.74,0.34,0.34,0.18,-65.12,15.19,24.13
10653,-8.78,0.92,4.33,0.23,0.27,0.25,-65.12,15.19,24.13
10664,-8.78,0.92,4.33,0.23,0.27,0.25,-65.12,15.19,24.13
10675,-8.01,1.70,3.53,0.24,0.24,0.14,-65.12,15.19,24.13
10686,-9.25,2.49,3.06,-0.05,0.18,-0.06,-65.12,15.19,24.13
10697,-9.25,2.49,3.06,-0.05,0.18,-0.06,-65.12,15.19,24.13
10708,-9.76,-0.52,4.02,-0.26,-0.12,-0.34,-65.12,15.19,24.13
10719,-9.76,-0.52,4.02,-0.26,-0.12,-0.34,-65.12,15.19,24.13
10730,-8.52,-0.68,4.86,-0.06,-0.27,-0.09,-65.12,15.19,24.13
10741,-8.52,-0.68,4.86,-0.06,-0.27,-0.09,-65.12,15.19,24.13
10752,-8.79,0.83,4.32,0.34,-0.16,0.19,-66.15,14.60,24.13
10763,-8.79,0.83,4.32,0.34,-0.16,0.19,-66.15,14.60,24.13
10774,-8.44,1.80,5.24,0.33,-0.26,-0.02,-66.15,14.60,24.13
10785,-8.23,0.29,5.21,-0.11,-0.16,-0.33,-66.15,14.60,24.13
10796,-8.23,0.29,5.21,-0.11,-0.16,-0.33,-66.15,14.60,24.13
10807,-8.33,-0.35,5.29,-0.23,-0.25,-0.34,-66.15,14.60,24.13
10818,-8.33,-0.35,5.29,-0.23,-0.25,-0.34,-66.15,14.60,24.13
10829,-7.58,-1.30,6.85,-0.12,-0.28,-0.24,-66.15,14.60,24.13
10840,-7.58,-1.30,6.85,-0.12,-0.28,-0.24,-66.15,14.60,24.13
10851,-8.53,0.05,4.63,0.20,0.12,0.11,-66.15,14.60,24.13
10862,-8.53,0.05,4.63,0.20,0.12,0.11,-66.15,14.60,24.13
10873,-8.85,1.30,4.40,0.33,0.10,0.14,-66.15,15.19,25.68
10884,-8.85,1.30,4.40,0.33,0.10,0.14,-66.15,15.19,25.68
10895,-8.97,0.52,4.06,0.19,0.08,-0.03,-66.15,15.19,25.68
10906,-8.84,0.60,3.76,0.08,0.02,0.02,-66.15,15.19,25.68
10917,-8.84,0.60,3.76,0.08,0.02,0.02,-66.15,15.19,25.68
10928,-8.90,0.92,4.31,0.01,-0.08,0.15,-66.15,15.19,25.68
10939,-8.90,0.92,4.31,0.01,-0.08,0.15,-66.15,15.19,25.68
10950,-8.63,0.74,4.52,-0.02,-0.09,0.20,-66.15,15.19,25.68
10961,-8.63,0.74,4.52,-0.02,-0.09,0.20,-66.15,15.19,25.68
10972,-8.72,0.93,4.49,0.04,-0.01,0.23,-66.15,15.19,25.68
10983,-8.72,0.93,4.49,0.04,-0.01,0.23,-66.15,15.19,25.68
10994,-9.30,1.02,4.50,0.10,0.02,0.15,-66.15,15.19,25.68
11005,-9.30,1.02,4.50,0.10,0.02,0.15,-66.15,15.19,25.68
11016,-9.08,1.13,4.69,0.00,0.01,0.06,-66.15,16.08,24.13
11027,-8.97,1.32,4.45,-0.11,0.03,-0.08,-66.15,16.08,24.13
11038,-8.97,1.32,4.45,-0.11,0.03,-0.08,-66.15,16.08,24.13
11049,-8.56,0.77,5.07,-0.11,0.01,-0.28,-66.15,16.08,24.13
11060,-8.56,0.77,5.07,-0.11,0.01,-0.28,-66.15,16.08,24.13
11071,-8.49,0.32,4.75,-0.06,0.13,-0.33,-66.15,16.08,24.13
11082,-8.49,0.32,4.75,-0.06,0.13,-0.33,-66.15,16.08,24.13
11093,-8.81,0.31,4.12,0.01,0.17,-0.21,-66.15,16.08,24.13
11104,-8.81,0.31,4.12,0.01,0.17,-0.21,-66.15,16.08,24.13
11115,-8.90,0.59,4.21,0.07,0.03,-0.10,-66.15,16.08,24.13
11126,-8.70,0.69,4.50,0.05,-0.07,-0.06,-65.38,14.16,23.98
11137,-8.70,0.69,4.50,0.05,-0.07,-0.06,-65.38,14.16,23.98
11148,-9.21,0.88,3.93,-0.01,0.05,0.03,-65.38,14.16,23.98
11159,-9.21,0.88,3.93,-0.01,0.05,0.03,-65.38,14.16,23.98
11170,-9.21,0.97,4.31,-0.08,-0.06,-0.02,-65.38,14.16,23.98
11181,-9.21,0.97,4.31,-0.08,-0.06,-0.02,-65.38,14.16,23.98
11192,-8.19,0.26,4.98,-0.01,-0.18,-0.17,-65.38,14.16,23.98
11203,-8.19,0.26,4.98,-0.01,-0.18,-0.17,-65.38,14.16,23.98
11214,-8.37,0.88,5.10,0.08,-0.03,-0.14,-65.38,14.16,23.98
11225,-8.37,0.88,5.10,0.08,-0.03,-0.14,-65.38,14.16,23.98
11236,-8.65,0.74,4.80,0.05,0.19,-0.14,-65.38,14.16,23.98
11247,-8.61,0.31,4.50,-0.04,0.37,-0.04,-67.18,14.60,24.75
11258,-8.61,0.31,4.50,-0.04,0.37,-0.04,-67.18,14.60,24.75
11269,-10.05,0.96,3.21,-0.01,0.43,0.02,-67.18,14.60,24.75
11280,-10.05,0.96,3.21,-0.01,0.43,0.02,-67.18,14.60,24.75
11291,-9.02,1.64,3.65,0.14,0.16,-0.09,-67.18,14.60,24.75
11302,-9.02,1.64,3.65,0.14,0.16,-0.09,-67.18,14.60,24.75
11313,-9.34,1.83,3.60,-0.01,0.01,-0.25,-67.18,14.60,24.75
11324,-9.34,1.83,3.60,-0.01,0.01,-0.25,-67.18,14.60,24.75
11335,-8.88,-0.83,4.11,-0.58,-0.10,-0.24,-67.18,14.60,24.75
11346,-8.36,-0.90,4.46,-0.80,-0.11,0.36,-67.18,14.60,24.75
11357,-8.36,-0.90,4.46,-0.80,-0.11,0.36,-67.18,14.60,24.75
11368,-7.97,-2.07,4.52,-0.30,-0.17,0.88,-66.40,13.86,24.91
11379,-7.97,-2.07,4.52,-0.30,-0.17,0.88,-66.40,13.86,24.91
11390,-8.22,-1.38,5.39,0.18,-0.24,1.49,-66.40,13.86,24.91
11401,-8.22,-1.38,5.39,0.18,-0.24,1.49,-66.40,13.86,24.91
11412,-8.75,1.56,6.06,-0.16,-0.29,1.76,-66.40,13.86,24.91
11423,-8.75,1.56,6.06,-0.16,-0.29,1.76,-66.40,13.86,24.91
11434,-10.12,2.85,5.45,-0.46,-0.20,1.20,-66.40,13.86,24.91
11445,-10.12,2.85,5.45,-0.46,-0.20,1.20,-66.40,13.86,24.91
11456,-9.25,1.95,3.56,0.13,0.10,0.55,-66.40,13.86,24.91
11467,-10.76,5.44,4.57,0.64,0.14,0.05,-66.40,13.86,24.91
11483,-10.76,5.44,4.57,0.64,0.14,0.05,-66.40,13.86,24.91
11489,-10.21,5.98,4.34,0.42,0.29,-1.36,-66.40,13.86,24.91
11500,-10.21,5.98,4.34,0.42,0.29,-1.36,-66.40,13.86,24.91
11511,-7.47,0.35,4.24,0.76,0.42,-2.60,-63.58,16.37,23.51
11522,-7.47,0.35,4.24,0.76,0.42,-2.60,-63.58,16.37,23.51
11533,-7.16,-4.10,2.60,0.36,0.34,-2.06,-63.58,16.37,23.51
11544,-7.16,-4.10,2.60,0.36,0.34,-2.06,-63.58,16.37,23.51
11555,-8.73,-0.95,5.08,0.67,0.17,-0.36,-63.58,16.37,23.51
11566,-8.82,-0.02,4.49,0.71,0.32,0.30,-63.58,16.37,23.51
11577,-8.82,-0.02,4.49,0.71,0.32,0.30,-63.58,16.37,23.51
11588,-8.68,0.43,3.83,0.61,0.37,0.51,-63.58,16.37,23.51
11599,-8.68,0.43,3.83,0.61,0.37,0.51,-63.58,16.37,23.51
11610,-8.93,2.11,3.95,0.47,0.22,0.48,-63.58,16.37,23.51
11621,-8.93,2.11,3.95,0.47,0.22,0.48,-63.58,16.37,23.51
11632,-8.99,1.95,4.02,0.17,0.04,0.14,-66.15,16.08,21.34
11643,-8.99,1.95,4.02,0.17,0.04,0.14,-66.15,16.08,21.34
11654,-9.05,1.67,3.93,-0.28,-0.04,-0.09,-66.15,16.08,21.34
11665,-9.05,1.67,3.93,-0.28,-0.04,-0.09,-66.15,16.08,21.34
11676,-9.05,0.74,4.08,-0.50,-0.07,-0.20,-66.15,16.08,21.34
11687,-9.00,0.54,4.02,-0.47,-0.05,-0.15,-66.15,16.08,21.34
11698,-9.00,0.54,4.02,-0.47,-0.05,-0.15,-66.15,16.08,21.34
11709,-8.90,0.25,3.86,-0.36,-0.01,-0.01,-66.15,16.08,21.34
11720,-8.90,0.25,3.86,-0.36,-0.01,-0.01,-66.15,16.08,21.34
11731,-8.78,0.78,3.92,-0.37,0.01,0.13,-66.15,16.08,21.34
11742,-8.78,0.78,3.92,-0.37,0.01,0.13,-66.15,16.08,21.34
11753,-8.71,0.35,4.20,-0.35,-0.03,0.15,-67.18,15.78,23.20
11764,-8.71,0.35,4.20,-0.35,-0.03,0.15,-67.18,15.78,23.20
11775,-8.62,0.02,4.58,-0.30,-0.07,0.22,-67.18,15.78,23.20
11786,-9.04,0.58,4.75,-0.39,-0.06,0.27,-67.18,15.78,23.20
11797,-9.04,0.58,4.75,-0.39,-0.06,0.27,-67.18,15.78,23.20
11808,-9.08,0.20,4.49,-0.40,0.02,0.19,-67.18,15.78,23.20
11819,-9.08,0.20,4.49,-0.40,0.02,0.19,-67.18,15.78,23.20
11830,-9.29,1.45,4.31,0.10,0.11,0.15,-67.18,15.78,23.20
11841,-9.29,1.45,4.31,0.10,0.11,0.15,-67.18,15.78,23.20
11852,-9.53,1.78,3.89,0.40,0.14,-0.26,-67.18,15.78,23.20
11863,-9.53,1.78,3.89,0.40,0.14,-0.26,-67.18,15.78,23.20
11874,-9.65,2.30,3.49,0.42,0.22,-0.65,-67.18,15.78,23.20
11885,-9.65,2.30,3.49,0.42,0.22,-0.65,-67.18,15.78,23.20
11896,-9.01,0.80,3.08,0.08,0.23,-0.87,-63.84,13.57,23.05
11907,-8.77,-1.31,3.97,-0.14,0.17,-0.62,-63.84,13.57,23.05
11918,-8.77,-1.31,3.97,-0.14,0.17,-0.62,-63.84,13.57,23.05
11929,-8.54,-1.45,3.93,0.06,0.19,-0.01,-63.84,13.57,23.05
11940,-8.54,-1.45,3.93,0.06,0.19,-0.01,-63.84,13.57,23.05
11951,-8.17,-0.38,4.03,0.14,0.20,0.65,-63.84,13.57,23.05
11962,-8.17,-0.38,4.03,0.14,0.20,0.65,-63.84,13.57,23.05
11973,-8.78,0.51,4.31,0.03,0.16,0.99,-63.84,13.57,23.05
11984,-8.78,0.51,4.31,0.03,0.16,0.99,-63.84,13.57,23.05
11995,-9.29,1.95,4.01,0.09,0.07,0.95,-63.84,13.57,23.05
12006,-9.29,1.95,4.01,0.09,0.07,0.95,-63.84,13.57,23.05
12017,-9.56,2.42,3.83,-0.09,-0.01,0.57,-65.63,15.78,21.65
12028,-9.26,1.67,3.10,-0.21,-0.03,0.09,-65.63,15.78,21.65
12039,-9.26,1.67,3.10,-0.21,-0.03,0.09,-65.63,15.78,21.65
12050,-9.69,1.83,3.85,-0.14,-0.10,-0.12,-65.63,15.78,21.65
12062,-9.69,1.83,3.85,-0.14,-0.10,-0.12,-65.63,15.78,21.65
12072,-9.55,1.82,4.45,-0.27,0.04,-0.40,-65.63,15.78,21.65
12083,-9.55,1.82,4.45,-0.27,0.04,-0.40,-65.63,15.78,21.65
12094,-8.53,-0.34,3.43,-0.43,0.22,-0.62,-65.63,15.78,21.65
12105,-8.53,-0.34,3.43,-0.43,0.22,-0.62,-65.63,15.78,21.65
12116,-8.19,-0.17,3.33,-0.12,0.14,-0.33,-65.63,15.78,21.65
12127,-8.84,0.26,5.44,0.38,0.04,-0.03,-66.66,16.08,22.58
12138,-8.84,0.26,5.44,0.38,0.04,-0.03,-66.66,16.08,22.58
12149,-8.45,0.46,3.47,0.39,0.09,0.08,-66.66,16.08,22.58
12160,-8.45,0.46,3.47,0.39,0.09,0.08,-66.66,16.08,22.58
12171,-9.36,0.95,3.43,0.43,-0.03,0.15,-66.66,16.08,22.58
12182,-9.36,0.95,3.43,0.43,-0.03,0.15,-66.66,16.08,22.58
12193,-10.14,2.91,0.85,0.49,-0.12,0.04,-66.66,16.08,22.58
12204,-10.14,2.91,0.85,0.49,-0.12,0.04,-66.66,16.08,22.58
12215,-12.80,2.65,-0.49,0.19,-0.59,-0.40,-66.66,16.08,22.58
12226,-12.80,2.65,-0.49,0.19,-0.59,-0.40,-66.66,16.08,22.58
12237,-8.22,0.80,5.65,-0.48,-1.34,-0.65,-66.66,16.08,22.58
12248,-6.85,-1.15,4.99,-0.89,-0.92,-0.36,-66.66,16.08,22.58
12259,-6.85,-1.15,4.99,-0.89,-0.92,-0.36,-66.66,16.08,22.58
12270,-8.84,0.61,3.67,-0.41,-0.32,0.38,-65.89,15.04,24.29
12281,-8.84,0.61,3.67,-0.41,-0.32,0.38,-65.89,15.04,24.29
12292,-8.79,1.26,5.65,-0.30,-0.13,0.40,-65.89,15.04,24.29
12303,-8.79,1.26,5.65,-0.30,-0.13,0.40,-65.89,15.04,24.29
12314,-7.90,0.43,5.37,-0.51,0.12,0.20,-65.89,15.04,24.29
12325,-7.90,0.43,5.37,-0.51,0.12,0.20,-65.89,15.04,24.29
12336,-7.81,0.58,5.28,-0.37,0.21,0.14,-65.89,15.04,24.29
12347,-7.88,0.39,5.27,-0.27,0.07,-0.03,-65.89,15.04,24.29
12358,-7.88,0.39,5.27,-0.27,0.07,-0.03,-65.89,15.04,24.29
12369,-7.88,-1.19,7.52,-0.22,-0.15,-0.28,-65.89,15.04,24.29
12380,-7.88,-1.19,7.52,-0.22,-0.15,-0.28,-65.89,15.04,24.29
12391,-8.47,-1.90,4.41,0.16,0.23,0.01,-65.63,13.72,25.06
12402,-8.47,-1.90,4.41,0.16,0.23,0.01,-65.63,13.72,25.06
12413,-9.99,1.29,3.84,0.50,0.35,0.49,-65.63,13.72,25.06
12424,-9.99,1.29,3.84,0.50,0.35,0.49,-65.63,13.72,25.06
12435,-9.80,2.08,2.33,0.21,0.25,0.35,-65.63,13.72,25.06
12446,-9.80,2.08,2.33,0.21,0.25,0.35,-65.63,13.72,25.06
12457,-9.14,1.94,3.30,-0.12,-0.03,0.14,-65.63,13.72,25.06
12468,-8.10,1.01,4.69,-0.30,-0.13,-0.02,-65.63,13.72,25.06
12479,-8.10,1.01,4.69,-0.30,-0.13,-0.02,-65.63,13.72,25.06
12490,-7.91,0.11,5.44,-0.23,0.03,-0.02,-65.63,13.72,25.06
12501,-7.91,0.11,5.44,-0.23,0.03,-0.02,-65.63,13.72,25.06
12512,-9.38,0.58,4.06,-0.27,0.09,0.12,-66.40,14.45,25.22
12523,-9.38,0.58,4.06,-0.27,0.09,0.12,-66.40,14.45,25.22
12534,-8.95,0.06,3.84,-0.49,-0.09,0.14,-66.40,14.45,25.22
12545,-8.95,0.06,3.84,-0.49,-0.09,0.14,-66.40,14.45,25.22
12556,-9.16,-0.33,4.77,-0.19,-0.10,0.12,-66.40,14.45,25.22
12567,-8.95,0.38,4.09,0.18,0.02,0.14,-66.40,14.45,25.22
12578,-8.95,0.38,4.09,0.18,0.02,0.14,-66.40,14.45,25.22
12589,-9.86,2.00,5.14,0.52,0.00,-0.03,-66.40,14.45,25.22
12600,-9.86,2.00,5.14,0.52,0.00,-0.03,-66.40,14.45,25.22
12611,-9.70,1.93,4.91,0.66,0.19,-0.56,-66.40,14.45,25.22
12622,-9.70,1.93,4.91,0.66,0.19,-0.56,-66.40,14.45,25.22
12633,-8.83,0.56,3.13,0.68,0.36,-0.96,-67.18,13.42,23.51
12644,-8.83,0.56,3.13,0.68,0.36,-0.96,-67.18,13.42,23.51
12655,-8.95,0.10,2.72,0.47,0.27,-0.63,-67.18,13.42,23.51
12666,-8.95,0.10,2.72,0.47,0.27,-0.63,-67.18,13.42,23.51
12677,-9.09,0.23,3.43,0.27,0.14,-0.17,-67.18,13.42,23.51
12688,-8.57,-1.03,4.61,0.17,0.15,0.24,-67.18,13.42,23.51
12699,-8.57,-1.03,4.61,0.17,0.15,0.24,-67.18,13.42,23.51
12710,-8.72,1.03,5.29,0.07,0.17,0.59,-67.18,13.42,23.51
12721,-8.72,1.03,5.29,0.07,0.17,0.59,-67.18,13.42,23.51
12732,-8.94,1.35,4.10,-0.10,0.15,0.40,-67.18,13.42,23.51
12743,-8.94,1.35,4.10,-0.10,0.15,0.40,-67.18,13.42,23.51
12755,-9.09,1.20,3.42,-0.18,0.09,0.13,-67.18,13.42,23.51
12765,-9.09,1.20,3.42,-0.18,0.09,0.13,-67.18,13.42,23.51
12776,-9.21,1.24,3.76,-0.08,0.00,-0.02,-66.40,14.16,22.74
12787,-9.38,1.18,4.43,-0.04,0.00,-0.15,-66.40,14.16,22.74
12798,-9.38,1.18,4.43,-0.04,0.00,-0.15,-66.40,14.16,22.74
12809,-9.12,1.00,3.69,-0.26,0.11,-0.28,-66.40,14.16,22.74
12820,-9.12,1.00,3.69,-0.26,0.11,-0.28,-66.40,14.16,22.74
12831,-8.99,0.46,3.20,-0.43,0.11,-0.29,-66.40,14.16,22.74
12842,-8.99,0.46,3.20,-0.43,0.11,-0.29,-66.40,14.16,22.74
12853,-9.02,-0.31,4.17,-0.43,0.03,-0.18,-66.40,14.16,22.74
12864,-9.02,-0.31,4.17,-0.43,0.03,-0.18,-66.40,14.16,22.74
12875,-8.74,-0.53,4.31,-0.31,0.07,0.09,-66.40,14.16,22.74
12886,-8.74,-0.53,4.31,-0.31,0.07,0.09,-66.40,14.16,22.74
12897,-8.80,0.64,4.18,-0.28,0.04,0.32,-69.49,14.75,24.60
12908,-8.52,-0.21,4.39,-0.15,-0.00,0.39,-69.49,14.75,24.60
12919,-8.52,-0.21,4.39,-0.15,-0.00,0.39,-69.49,14.75,24.60
12930,-8.16,-0.73,4.53,0.26,-0.05,0.53,-69.49,14.75,24.60
12941,-8.16,-0.73,4.53,0.26,-0.05,0.53,-69.49,14.75,24.60
12952,-9.16,1.75,4.55,0.81,-0.12,0.59,-69.49,14.75,24.60
12963,-9.16,1.75,4.55,0.81,-0.12,0.59,-69.49,14.75,24.60
12974,-10.16,2.70,3.38,0.94,-0.04,0.09,-69.49,14.75,24.60
12985,-10.16,2.70,3.38,0.94,-0.04,0.09,-69.49,14.75,24.60
12996,-10.31,3.26,1.70,0.42,0.01,-0.40,-69.49,14.75,24.60
13007,-10.31,3.26,1.70,0.42,0.01,-0.40,-69.49,14.75,24.60
13018,-10.75,1.92,1.85,-0.16,-0.10,-0.90,-65.89,15.63,23.36
13029,-9.50,-2.72,3.59,-0.46,-0.61,-0.86,-65.89,15.63,23.36
13040,-9.50,-2.72,3.59,-0.46,-0.61,-0.86,-65.89,15.63,23.36
13051,-5.55,-0.30,6.43,-0.83,-0.89,0.26,-65.89,15.63,23.36
13067,-5.55,-0.30,6.43,-0.83,-0.89,0.26,-65.89,15.63,23.36
13073,-7.95,1.38,5.82,-0.32,-0.34,0.64,-65.89,15.63,23.36
13084,-7.95,1.38,5.82,-0.32,-0.34,0.64,-65.89,15.63,23.36
13095,-8.62,-1.00,5.11,-0.37,-0.28,0.42,-65.89,15.63,23.36
13106,-8.62,-1.00,5.11,-0.37,-0.28,0.42,-65.89,15.63,23.36
13117,-9.23,0.77,4.49,-0.28,-0.22,0.68,-65.89,15.63,23.36
13128,-8.30,2.35,4.54,-0.19,-0.17,0.49,-65.89,15.63,23.36
13139,-8.30,2.35,4.54,-0.19,-0.17,0.49,-65.89,15.63,23.36
13150,-8.06,0.92,4.61,-0.25,-0.04,0.12,-64.86,15.04,25.84
13161,-8.06,0.92,4.61,-0.25,-0.04,0.12,-64.86,15.04,25.84
13172,-8.66,0.64,4.02,-0.01,0.09,0.18,-64.86,15.04,25.84
13183,-8.66,0.64,4.02,-0.01,0.09,0.18,-64.86,15.04,25.84
13194,-8.37,1.35,4.82,0.19,0.05,0.22,-64.86,15.04,25.84
13205,-8.37,1.35,4.82,0.19,0.05,0.22,-64.86,15.04,25.84
13216,-7.82,1.06,5.09,0.24,0.16,0.08,-64.86,15.04,25.84
13227,-7.82,1.06,5.09,0.24,0.16,0.08,-64.86,15.04,25.84
13238,-8.34,0.80,5.49,0.49,0.46,-0.01,-64.86,15.04,25.84
13249,-10.19,1.46,3.97,0.15,0.27,0.04,-64.86,15.04,25.84
13260,-10.19,1.46,3.97,0.15,0.27,0.04,-64.86,15.04,25.84
13271,-9.33,1.70,2.55,-0.82,-0.05,-0.04,-65.12,16.96,22.89
13282,-9.33,1.70,2.55,-0.82,-0.05,-0.04,-65.12,16.96,22.89
13293,-9.67,0.99,4.53,-1.21,-0.12,0.02,-65.12,16.96,22.89
13304,-9.67,0.99,4.53,-1.21,-0.12,0.02,-65.12,16.96,22.89
13315,-8.70,-0.16,4.67,-1.05,0.03,0.02,-65.12,16.96,22.89
13326,-8.70,-0.16,4.67,-1.05,0.03,0.02,-65.12,16.96,22.89
13337,-9.13,0.42,5.36,-0.10,0.08,-0.17,-65.12,16.96,22.89
13348,-11.04,0.23,3.74,0.45,0.20,-0.50,-65.12,16.96,22.89
13359,-11.04,0.23,3.74,0.45,0.20,-0.50,-65.12,16.96,22.89
13370,-10.27,-0.38,3.43,0.35,-0.27,-0.51,-65.12,16.96,22.89
13381,-10.27,-0.38,3.43,0.35,-0.27,-0.51,-65.12,16.96,22.89
13392,-6.37,1.09,4.68,-0.21,-0.48,-0.05,-65.63,14.31,25.68
13404,-6.37,1.09,4.68,-0.21,-0.48,-0.05,-65.63,14.31,25.68
13414,-7.06,1.87,3.39,-0.26,0.13,0.33,-65.63,14.31,25.68
13425,-7.06,1.87,3.39,-0.26,0.13,0.33,-65.63,14.31,25.68
13436,-9.12,2.76,3.61,-0.06,0.30,0.19,-65.63,14.31,25.68
13447,-9.12,2.76,3.61,-0.06,0.30,0.19,-65.63,14.31,25.68
13458,-8.62,-0.69,4.81,-0.00,-0.11,-0.30,-65.63,14.31,25.68
13469,-7.29,-0.36,6.77,0.29,-0.40,-0.26,-65.63,14.31,25.68
13480,-7.29,-0.36,6.77,0.29,-0.40,-0.26,-65.63,14.31,25.68
13491,-7.43,-0.72,6.09,0.48,-0.06,-0.17,-65.63,14.31,25.68
13502,-7.43,-0.72,6.09,0.48,-0.06,-0.17,-65.63,14.31,25.68
13513,-9.05,0.19,4.07,0.58,0.30,0.15,-65.63,14.31,25.68
13524,-9.05,0.19,4.07,0.58,0.30,0.15,-65.63,14.31,25.68
13535,-10.11,1.27,3.03,0.41,0.26,0.37,-65.12,14.60,24.44
13546,-10.11,1.27,3.03,0.41,0.26,0.37,-65.12,14.60,24.44
13557,-8.96,0.67,3.00,0.00,-0.08,0.47,-65.12,14.60,24.44
13568,-7.31,0.49,5.39,-0.43,-0.31,0.71,-65.12,14.60,24.44
13579,-7.31,0.49,5.39,-0.43,-0.31,0.71,-65.12,14.60,24.44
13590,-8.59,1.55,5.30,-0.83,-0.02,0.81,-65.12,14.60,24.44
13601,-8.59,1.55,5.30,-0.83,-0.02,0.81,-65.12,14.60,24.44
13612,-10.32,2.02,5.21,-0.55,0.01,0.39,-65.12,14.60,24.44
13623,-10.32,2.02,5.21,-0.55,0.01,0.39,-65.12,14.60,24.44
13634,-9.45,0.58,3.51,-0.22,0.06,-0.04,-65.12,14.60,24.44
13645,-9.45,0.58,3.51,-0.22,0.06,-0.04,-65.12,14.60,24.44
13656,-10.50,5.19,5.78,0.35,0.14,-0.36,-63.58,14.31,26.61
13667,-10.50,5.19,5.78,0.35,0.14,-0.36,-63.58,14.31,26.61
13678,-9.56,3.38,4.04,0.51,0.44,-1.55,-63.58,14.31,26.61
13689,-7.14,-2.16,4.54,1.02,0.52,-2.37,-63.58,14.31,26.61
13700,-7.14,-2.16,4.54,1.02,0.52,-2.37,-63.58,14.31,26.61
13711,-7.68,-4.45,3.29,0.57,0.35,-1.24,-63.58,14.31,26.61
13722,-7.68,-4.45,3.29,0.57,0.35,-1.24,-63.58,14.31,26.61
13733,-8.96,-0.35,4.31,0.59,0.20,0.25,-63.58,14.31,26.61
13744,-8.96,-0.35,4.31,0.59,0.20,0.25,-63.58,14.31,26.61
13755,-8.27,0.34,4.14,0.38,0.20,0.70,-63.58,14.31,26.61
13766,-8.27,0.34,4.14,0.38,0.20,0.70,-63.58,14.31,26.61
13777,-8.94,1.64,4.67,0.01,0.07,0.64,-67.69,14.60,23.51
13788,-8.94,1.64,4.67,0.01,0.07,0.64,-67.69,14.60,23.51
13799,-8.76,0.99,3.82,-0.21,0.01,0.42,-67.69,14.60,23.51
13810,-9.14,1.35,4.25,-0.37,-0.07,0.30,-67.69,14.60,23.51
13821,-9.14,1.35,4.25,-0.37,-0.07,0.30,-67.69,14.60,23.51
13832,-9.27,0.42,4.81,-0.38,-0.05,0.14,-67.69,14.60,23.51
13843,-9.27,0.42,4.81,-0.38,-0.05,0.14,-67.69,14.60,23.51
13855,-9.06,0.11,3.97,-0.04,0.09,0.10,-67.69,14.60,23.51
13865,-9.06,0.11,3.97,-0.04,0.09,0.10,-67.69,14.60,23.51
13876,-9.86,2.66,4.55,0.25,0.14,0.03,-67.69,14.60,23.51
13887,-9.86,2.66,4.55,0.25,0.14,0.03,-67.69,14.60,23.51
13898,-9.13,1.71,4.13,0.22,0.18,-0.50,-67.43,14.75,23.05
13909,-8.64,-1.22,3.39,0.00,0.11,-0.74,-67.43,14.75,23.05
13920,-8.64,-1.22,3.39,0.00,0.11,-0.74,-67.43,14.75,23.05
13931,-9.21,0.79,4.55,-0.10,0.08,-0.16,-67.43,14.75,23.05
13942,-9.21,0.79,4.55,-0.10,0.08,-0.16,-67.43,14.75,23.05
13953,-8.94,-1.60,3.59,-0.64,0.15,0.26,-67.43,14.75,23.05
13964,-8.94,-1.60,3.59,-0.64,0.15,0.26,-67.43,14.75,23.05
13975,-9.11,2.27,3.69,-0.73,0.14,0.79,-67.43,14.75,23.05
13986,-9.11,2.27,3.69,-0.73,0.14,0.79,-67.43,14.75,23.05
13997,-9.12,1.45,3.64,-0.59,0.10,0.45,-67.43,14.75,23.05
14008,-9.12,1.45,3.64,-0.59,0.10,0.45,-67.43,14.75,23.05
14019,-9.21,0.34,4.44,-0.35,0.07,0.06,-67.43,14.75,23.05
14030,-9.36,1.36,4.42,-0.04,0.23,-0.14,-66.40,14.75,24.60
14041,-9.36,1.36,4.42,-0.04,0.23,-0.14,-66.40,14.75,24.60
14052,-8.70,-0.06,4.37,0.08,0.28,-0.47,-66.40,14.75,24.60
14063,-8.70,-0.06,4.37,0.08,0.28,-0.47,-66.40,14.75,24.60
14074,-8.69,-0.87,3.44,0.00,0.22,-0.33,-66.40,14.75,24.60
14085,-8.69,-0.87,3.44,0.00,0.22,-0.33,-66.40,14.75,24.60
14096,-9.15,0.17,3.15,-0.03,0.05,-0.04,-66.40,14.75,24.60
14107,-9.15,0.17,3.15,-0.03,0.05,-0.04,-66.40,14.75,24.60
14123,-8.67,-1.30,3.17,-0.17,-0.14,0.20,-66.40,14.75,24.60
14129,-11.88,0.40,2.42,-0.37,-0.46,0.65,-66.40,14.75,24.60
14140,-11.88,0.40,2.42,-0.37,-0.46,0.65,-66.40,14.75,24.60
14151,-7.25,1.68,3.06,-0.79,-1.07,0.62,-67.18,13.72,25.06
14162,-7.25,1.68,3.06,-0.79,-1.07,0.62,-67.18,13.72,25.06
14173,-6.79,0.64,6.38,-0.41,-1.08,0.37,-67.18,13.72,25.06
14184,-6.79,0.64,6.38,-0.41,-1.08,0.37,-67.18,13.72,25.06
14195,-6.78,0.45,6.18,-0.21,-0.57,0.28,-67.18,13.72,25.06
14206,-6.78,0.45,6.18,-0.21,-0.57,0.28,-67.18,13.72,25.06
14217,-7.52,1.16,5.11,0.11,0.05,0.40,-67.18,13.72,25.06
14228,-7.52,1.16,5.11,0.11,0.05,0.40,-67.18,13.72,25.06
14239,-16.69,3.64,3.45,0.46,0.73,0.52,-67.18,13.72,25.06
14250,-10.64,2.58,1.85,-0.68,0.19,0.06,-67.18,13.72,25.06
14262,-10.64,2.58,1.85,-0.68,0.19,0.06,-67.18,13.72,25.06
14272,-9.79,1.09,2.51,-1.36,-0.10,-0.01,-64.35,14.45,25.22
14283,-9.79,1.09,2.51,-1.36,-0.10,-0.01,-64.35,14.45,25.22
14294,-11.52,-1.79,4.41,-0.95,-0.17,-0.04,-64.35,14.45,25.22
14305,-11.52,-1.79,4.41,-0.95,-0.17,-0.04,-64.35,14.45,25.22
14316,-10.32,1.50,5.56,-0.48,-0.67,-0.00,-64.35,14.45,25.22
14327,-10.32,1.50,5.56,-0.48,-0.67,-0.00,-64.35,14.45,25.22
14338,-5.77,-0.33,7.36,-0.08,-0.80,-0.73,-64.35,14.45,25.22
14349,-5.03,-2.39,6.91,0.05,-0.26,-0.87,-64.35,14.45,25.22
14360,-5.03,-2.39,6.91,0.05,-0.26,-0.87,-64.35,14.45,25.22
14371,-8.10,0.62,5.33,0.45,0.42,-0.32,-64.35,14.45,25.22
14382,-8.10,0.62,5.33,0.45,0.42,-0.32,-64.35,14.45,25.22
14393,-8.56,0.82,3.38,0.43,0.65,-0.25,-64.35,14.45,25.22
14404,-8.56,0.82,3.38,0.43,0.65,-0.25,-64.35,14.45,25.22
14415,-9.83,1.15,2.55,0.33,0.57,-0.14,-64.86,14.16,26.77
14426,-9.83,1.15,2.55,0.33,0.57,-0.14,-64.86,14.16,26.77
14437,-9.54,1.14,3.22,0.16,0.23,-0.15,-64.86,14.16,26.77
14448,-9.54,1.14,3.22,0.16,0.23,-0.15,-64.86,14.16,26.77
14459,-8.87,-0.47,4.58,0.06,0.00,-0.27,-64.86,14.16,26.77
14470,-8.89,-0.97,5.15,0.09,0.03,-0.15,-64.86,14.16,26.77
14481,-8.89,-0.97,5.15,0.09,0.03,-0.15,-64.86,14.16,26.77
14492,-8.68,-0.06,4.38,0.11,0.14,0.10,-64.86,14.16,26.77
14503,-8.68,-0.06,4.38,0.11,0.14,0.10,-64.86,14.16,26.77
14514,-9.05,1.04,3.94,0.12,0.21,0.20,-64.86,14.16,26.77
14525,-9.05,1.04,3.94,0.12,0.21,0.20,-64.86,14.16,26.77
14536,-9.19,0.92,3.63,0.10,0.20,0.10,-64.61,12.53,25.06
14547,-9.19,0.92,3.63,0.10,0.20,0.10,-64.61,12.53,25.06
14558,-9.12,0.27,3.97,0.11,0.10,-0.02,-64.61,12.53,25.06
14569,-8.90,0.06,4.23,0.15,0.03,-0.03,-64.61,12.53,25.06
14580,-8.90,0.06,4.23,0.15,0.03,-0.03,-64.61,12.53,25.06
14591,-8.42,0.04,4.92,0.16,0.04,0.04,-64.61,12.53,25.06
14602,-8.42,0.04,4.92,0.16,0.04,0.04,-64.61,12.53,25.06
14613,-9.46,0.14,4.21,0.22,0.12,0.10,-64.61,12.53,25.06
14624,-9.46,0.14,4.21,0.22,0.12,0.10,-64.61,12.53,25.06
14635,-9.28,0.94,3.53,0.12,0.11,0.06,-64.61,12.53,25.06
14651,-9.28,0.94,3.53,0.12,0.11,0.06,-64.61,12.53,25.06
14657,-9.08,1.10,3.43,0.05,0.05,-0.03,-65.38,13.57,26.15
14668,-9.08,1.10,3.43,0.05,0.05,-0.03,-65.38,13.57,26.15
14679,-9.11,0.72,4.18,-0.16,-0.05,-0.11,-65.38,13.57,26.15
14690,-8.83,-0.58,3.70,-0.25,-0.04,0.01,-65.38,13.57,26.15
14701,-8.83,-0.58,3.70,-0.25,-0.04,0.01,-65.38,13.57,26.15
14712,-9.02,0.03,4.85,-0.02,-0.07,0.22,-65.38,13.57,26.15
14723,-9.02,0.03,4.85,-0.02,-0.07,0.22,-65.38,13.57,26.15
14734,-8.87,-0.02,4.17,0.23,-0.03,0.17,-65.38,13.57,26.15
14745,-8.87,-0.02,4.17,0.23,-0.03,0.17,-65.38,13.57,26.15
14756,-8.95,1.26,3.60,0.45,-0.02,0.13,-65.38,13.57,26.15
14767,-8.95,1.26,3.60,0.45,-0.02,0.13,-65.38,13.57,26.15
14778,-8.72,0.20,4.28,0.62,-0.09,-0.08,-65.38,13.57,26.15
14789,-8.72,0.20,4.28,0.62,-0.09,-0.08,-65.38,13.57,26.15
14800,-9.44,1.01,4.60,0.72,-0.05,-0.25,-65.63,13.42,25.37
14811,-9.46,0.99,3.13,0.88,0.14,-0.33,-65.63,13.42,25.37
14822,-9.46,0.99,3.13,0.88,0.14,-0.33,-65.63,13.42,25.37
14833,-9.60,1.56,2.97,0.62,0.18,-0.24,-65.63,13.42,25.37
14844,-9.60,1.56,2.97,0.62,0.18,-0.24,-65.63,13.42,25.37
14855,-10.50,-1.21,2.08,-0.10,0.15,0.10,-65.63,13.42,25.37
14866,-10.50,-1.21,2.08,-0.10,0.15,0.10,-65.63,13.42,25.37
14877,-8.33,0.79,5.14,-0.67,-0.44,0.72,-65.63,13.42,25.37
14888,-8.33,0.79,5.14,-0.67,-0.44,0.72,-65.63,13.42,25.37
14899,-7.25,0.55,5.18,-0.49,-0.49,0.66,-65.63,13.42,25.37
14910,-7.93,0.51,5.45,-0.12,-0.39,0.63,-65.89,14.16,24.29
14921,-7.93,0.51,5.45,-0.12,-0.39,0.63,-65.89,14.16,24.29
14932,-8.77,1.19,4.70,-0.52,-0.33,0.62,-65.89,14.16,24.29
14943,-8.77,1.19,4.70,-0.52,-0.33,0.62,-65.89,14.16,24.29
14954,-8.51,2.29,4.27,-0.82,-0.18,0.47,-65.89,14.16,24.29
14965,-8.51,2.29,4.27,-0.82,-0.18,0.47,-65.89,14.16,24.29
14976,-8.47,2.30,3.93,-0.55,0.13,0.24,-65.89,14.16,24.29
14987,-8.47,2.30,3.93,-0.55,0.13,0.24,-65.89,14.16,24.29
14998,-8.11,1.30,4.56,-0.43,0.28,0.06,-65.89,14.16,24.29
15009,-8.11,1.30,4.56,-0.43,0.28,0.06,-65.89,14.16,24.29
15020,-15.53,1.31,3.88,-0.30,0.48,-0.01,-65.89,14.16,24.29
15031,-9.41,-0.47,4.99,-0.08,-0.02,-0.31,-63.07,12.53,25.68
15042,-9.41,-0.47,4.99,-0.08,-0.02,-0.31,-63.07,12.53,25.68
15053,-9.13,1.67,3.72,0.69,-0.24,-0.45,-63.07,12.53,25.68
15064,-9.13,1.67,3.72,0.69,-0.24,-0.45,-63.07,12.53,25.68
15075,-10.29,2.66,3.41,0.82,-0.51,-1.23,-63.07,12.53,25.68
15086,-10.29,2.66,3.41,0.82,-0.51,-1.23,-63.07,12.53,25.68
15097,-16.56,0.09,-1.23,-0.08,-0.67,-1.54,-63.07,12.53,25.68
15108,-16.56,0.09,-1.23,-0.08,-0.67,-1.54,-63.07,12.53,25.68
15119,-8.77,1.26,3.13,-1.10,-2.00,-1.04,-63.07,12.53,25.68
15130,-4.67,-2.33,6.67,-1.42,-1.90,-0.59,-63.07,12.53,25.68
15141,-4.67,-2.33,6.67,-1.42,-1.90,-0.59,-63.07,12.53,25.68
15152,-5.17,-1.00,8.11,-0.97,-0.71,0.39,-58.70,10.61,28.63
15163,-5.17,-1.00,8.11,-0.97,-0.71,0.39,-58.70,10.61,28.63
15174,-5.65,1.66,7.23,-0.38,0.36,0.61,-58.70,10.61,28.63
15185,-5.65,1.66,7.23,-0.38,0.36,0.61,-58.70,10.61,28.63
15197,-7.70,-3.44,7.40,0.03,0.93,-0.09,-58.70,10.61,28.63
15207,-7.70,-3.44,7.40,0.03,0.93,-0.09,-58.70,10.61,28.63
15218,-9.17,-2.68,6.91,0.25,1.09,0.16,-58.70,10.61,28.63
15229,-9.17,-2.68,6.91,0.25,1.09,0.16,-58.70,10.61,28.63
15240,-7.86,0.47,5.13,0.47,0.94,0.30,-58.70,10.61,28.63
15251,-7.29,1.55,3.18,0.48,0.62,-0.01,-58.70,10.61,28.63
15262,-7.29,1.55,3.18,0.48,0.62,-0.01,-58.70,10.61,28.63
15273,-8.74,-0.06,6.49,0.39,0.25,-0.39,-58.70,10.61,28.63
15284,-8.74,-0.06,6.49,0.39,0.25,-0.39,-58.70,10.61,28.63
15295,-9.38,-0.90,3.56,0.36,0.51,-0.27,-64.61,12.24,27.85
15306,-9.38,-0.90,3.56,0.36,0.51,-0.27,-64.61,12.24,27.85
15317,-9.69,0.58,3.39,0.37,0.32,-0.00,-64.61,12.24,27.85
15328,-9.69,0.58,3.39,0.37,0.32,-0.00,-64.61,12.24,27.85
15339,-9.72,0.51,3.43,0.28,0.09,-0.08,-64.61,12.24,27.85
15350,-8.94,0.31,3.74,0.13,-0.14,-0.14,-64.61,12.24,27.85
15361,-8.94,0.31,3.74,0.13,-0.14,-0.14,-64.61,12.24,27.85
15372,-8.27,-0.18,5.14,0.03,-0.27,-0.18,-64.61,12.24,27.85
15383,-8.27,-0.18,5.14,0.03,-0.27,-0.18,-64.61,12.24,27.85
15394,-8.55,0.05,4.76,-0.11,-0.04,-0.03,-64.61,12.24,27.85
15405,-8.55,0.05,4.76,-0.11,-0.04,-0.03,-64.61,12.24,27.85
15416,-8.32,0.26,4.94,-0.10,0.17,0.08,-66.92,12.09,26.15
15427,-8.32,0.26,4.94,-0.10,0.17,0.08,-66.92,12.09,26.15
15438,-6.85,-0.13,6.21,-0.03,0.51,0.14,-66.92,12.09,26.15
15449,-6.85,-0.13,6.21,-0.03,0.51,0.14,-66.92,12.09,26.15
15460,-11.76,3.52,-1.24,0.19,0.98,0.11,-66.92,12.09,26.15
15471,-9.61,2.52,4.29,0.54,0.26,-0.60,-66.92,12.09,26.15
15482,-9.61,2.52,4.29,0.54,0.26,-0.60,-66.92,12.09,26.15
15493,-8.78,0.07,0.89,0.29,0.00,-1.40,-66.92,12.09,26.15
15504,-8.78,0.07,0.89,0.29,0.00,-1.40,-66.92,12.09,26.15
15515,-12.72,-3.96,3.78,0.46,-0.38,-1.27,-66.92,12.09,26.15
15526,-12.72,-3.96,3.78,0.46,-0.38,-1.27,-66.92,12.09,26.15
15537,-10.96,-1.83,0.94,-0.36,-0.91,-0.13,-66.92,10.91,25.53
15548,-10.96,-1.83,0.94,-0.36,-0.91,-0.13,-66.92,10.91,25.53
15559,-6.18,-0.28,7.64,-1.10,-1.62,0.50,-66.92,10.91,25.53
15570,-5.55,-0.62,6.02,-1.06,-0.72,0.65,-66.92,10.91,25.53
15581,-5.55,-0.62,6.02,-1.06,-0.72,0.65,-66.92,10.91,25.53
15592,-6.62,0.08,7.37,-0.23,0.07,0.76,-66.92,10.91,25.53
15603,-6.62,0.08,7.37,-0.23,0.07,0.76,-66.92,10.91,25.53
15614,-7.98,-1.28,6.06,-0.05,0.57,0.51,-66.92,10.91,25.53
15625,-7.98,-1.28,6.06,-0.05,0.57,0.51,-66.92,10.91,25.53
15636,-8.13,-0.75,4.92,0.12,0.46,0.40,-66.92,10.91,25.53
15653,-8.13,-0.75,4.92,0.12,0.46,0.40,-66.92,10.91,25.53
15658,-8.13,-0.06,4.94,0.28,0.43,0.39,-66.92,10.91,25.53
15669,-8.13,-0.06,4.94,0.28,0.43,0.39,-66.92,10.91,25.53
15680,-8.66,0.74,3.91,0.33,0.62,0.41,-65.63,13.12,24.75
15691,-10.88,1.44,4.74,0.34,0.70,0.27,-65.63,13.12,24.75
15702,-10.88,1.44,4.74,0.34,0.70,0.27,-65.63,13.12,24.75
15713,-9.72,-0.48,3.64,-0.08,0.36,-0.06,-65.63,13.12,24.75
15724,-9.72,-0.48,3.64,-0.08,0.36,-0.06,-65.63,13.12,24.75
15735,-9.24,0.16,3.73,-0.12,0.07,-0.09,-65.63,13.12,24.75
15746,-9.24,0.16,3.73,-0.12,0.07,-0.09,-65.63,13.12,24.75
15757,-8.60,-1.35,4.14,-0.25,0.07,0.03,-65.63,13.12,24.75
15768,-8.60,-1.35,4.14,-0.25,0.07,0.03,-65.63,13.12,24.75
15779,-8.04,-0.57,3.97,-0.33,0.02,0.54,-65.63,13.12,24.75
15790,-8.04,-0.57,3.97,-0.33,0.02,0.54,-65.63,13.12,24.75
15801,-8.26,-0.39,5.26,-0.03,-0.09,0.74,-65.89,12.98,26.77
15812,-8.89,-0.14,4.10,0.24,-0.11,0.68,-65.89,12.98,26.77
15823,-8.89,-0.14,4.10,0.24,-0.11,0.68,-65.89,12.98,26.77
15834,-9.79,2.06,4.49,0.68,-0.16,0.45,-65.89,12.98,26.77
15845,-9.79,2.06,4.49,0.68,-0.16,0.45,-65.89,12.98,26.77
15856,-10.05,2.41,4.18,0.56,-0.03,-0.14,-65.89,12.98,26.77
15867,-10.05,2.41,4.18,0.56,-0.03,-0.14,-65.89,12.98,26.77
15878,-10.01,2.26,3.61,-0.06,0.17,-0.64,-65.89,12.98,26.77
15889,-10.01,2.26,3.61,-0.06,0.17,-0.64,-65.89,12.98,26.77
15900,-8.42,-0.03,4.36,-0.29,0.30,-0.84,-65.89,12.98,26.77
15911,-7.70,-2.64,3.87,-0.51,0.19,-0.31,-65.63,12.83,25.99
15922,-7.70,-2.64,3.87,-0.51,0.19,-0.31,-65.63,12.83,25.99
15938,-8.76,0.45,5.09,-0.53,-0.00,0.54,-65.63,12.83,25.99
15944,-8.76,0.45,5.09,-0.53,-0.00,0.54,-65.63,12.83,25.99
15955,-9.29,1.26,4.24,-0.55,0.00,0.36,-65.63,12.83,25.99
15966,-9.29,1.26,4.24,-0.55,0.00,0.36,-65.63,12.83,25.99
15977,-9.15,-0.78,3.92,-0.37,0.04,-0.05,-65.63,12.83,25.99
15988,-9.15,-0.78,3.92,-0.37,0.04,-0.05,-65.63,12.83,25.99
15999,-9.41,0.45,4.34,0.09,0.10,-0.02,-65.63,12.83,25.99
16010,-9.41,0.45,4.34,0.09,0.10,-0.02,-65.63,12.83,25.99
16021,-9.19,1.47,4.25,0.28,0.22,-0.19,-65.63,12.83,25.99
16032,-8.47,-0.67,3.04,0.13,0.21,-0.32,-66.40,13.27,24.91
16043,-8.47,-0.67,3.04,0.13,0.21,-0.32,-66.40,13.27,24.91
16055,-9.04,-1.01,4.34,0.03,0.03,-0.03,-66.40,13.27,24.91
16065,-9.04,-1.01,4.34,0.03,0.03,-0.03,-66.40,13.27,24.91
16076,-8.79,0.31,3.28,0.23,0.07,0.30,-66.40,13.27,24.91
16087,-8.79,0.31,3.28,0.23,0.07,0.30,-66.40,13.27,24.91
16098,-8.83,0.99,3.96,0.23,-0.07,0.39,-66.40,13.27,24.91
16109,-8.83,0.99,3.96,0.23,-0.07,0.39,-66.40,13.27,24.91
16120,-8.87,-0.02,4.47,0.04,-0.13,0.33,-66.40,13.27,24.91
16131,-9.29,0.36,4.38,-0.28,-0.09,0.26,-66.40,13.27,24.91
16142,-9.29,0.36,4.38,-0.28,-0.09,0.26,-66.40,13.27,24.91
16153,-9.26,0.61,3.80,-0.29,0.01,0.14,-66.40,13.27,24.91
16164,-9.26,0.61,3.80,-0.29,0.01,0.14,-66.40,13.27,24.91
16175,-9.63,0.94,4.14,0.16,0.06,0.02,-67.43,13.57,25.53
16186,-9.63,0.94,4.14,0.16,0.06,0.02,-67.43,13.57,25.53
16197,-9.26,1.39,3.50,0.43,0.16,-0.25,-67.43,13.57,25.53
16208,-9.26,1.39,3.50,0.43,0.16,-0.25,-67.43,13.57,25.53
16219,-8.30,-0.58,3.41,0.24,0.14,-0.40,-67.43,13.57,25.53
16230,-8.30,-0.58,3.41,0.24,0.14,-0.40,-67.43,13.57,25.53
16241,-8.86,-0.68,4.15,-0.08,0.00,-0.03,-67.43,13.57,25.53
16252,-8.66,-0.21,3.72,-0.14,-0.03,0.47,-67.43,13.57,25.53
16263,-8.66,-0.21,3.72,-0.14,-0.03,0.47,-67.43,13.57,25.53
16274,-8.61,-0.39,4.19,0.15,-0.17,0.67,-67.43,13.57,25.53
16285,-8.61,-0.39,4.19,0.15,-0.17,0.67,-67.43,13.57,25.53
16296,-8.91,0.67,4.66,0.40,-0.24,0.64,-64.35,14.16,25.22
16307,-8.91,0.67,4.66,0.40,-0.24,0.64,-64.35,14.16,25.22
16323,-9.77,1.88,4.16,0.50,-0.19,0.37,-64.35,14.16,25.22
16329,-9.77,1.88,4.16,0.50,-0.19,0.37,-64.35,14.16,25.22
16340,-9.51,1.56,3.00,0.31,-0.07,0.05,-64.35,14.16,25.22
16351,-10.27,1.53,4.48,-0.04,-0.10,-0.09,-64.35,14.16,25.22
16362,-10.27,1.53,4.48,-0.04,-0.10,-0.09,-64.35,14.16,25.22
16373,-11.58,0.08,1.93,-0.43,0.08,-0.17,-64.35,14.16,25.22
16384,-11.58,0.08,1.93,-0.43,0.08,-0.17,-64.35,14.16,25.22
16395,-8.70,0.81,4.88,-0.58,-0.52,0.11,-64.35,14.16,25.22
16406,-8.70,0.81,4.88,-0.58,-0.52,0.11,-64.35,14.16,25.22
16418,-6.62,2.27,4.18,-0.35,-0.27,0.34,-64.86,14.75,26.77
16428,-6.62,2.27,4.18,-0.35,-0.27,0.34,-64.86,14.75,26.77
16439,-8.05,2.88,4.09,-0.06,0.05,0.03,-64.86,14.75,26.77
16450,-8.05,2.88,4.09,-0.06,0.05,0.03,-64.86,14.75,26.77
16466,-10.04,-0.86,5.25,-0.04,-0.05,-0.53,-64.86,14.75,26.77
16472,-8.10,-1.86,5.73,-0.02,-0.20,-0.47,-64.86,14.75,26.77
16483,-8.10,-1.86,5.73,-0.02,-0.20,-0.47,-64.86,14.75,26.77
16494,-6.85,0.82,4.67,0.23,-0.09,-0.11,-64.86,14.75,26.77
16505,-6.85,0.82,4.67,0.23,-0.09,-0.11,-64.86,14.75,26.77
16516,-8.46,-0.33,6.29,0.29,0.07,-0.29,-64.86,14.75,26.77
16527,-8.46,-0.33,6.29,0.29,0.07,-0.29,-64.86,14.75,26.77
16538,-9.55,0.14,3.22,0.37,0.45,-0.09,-64.86,14.75,26.77
16549,-9.55,0.14,3.22,0.37,0.45,-0.09,-64.86,14.75,26.77
16560,-9.89,1.79,3.06,0.30,0.33,0.12,-65.12,13.42,26.30
16571,-9.73,1.43,2.68,-0.03,0.11,0.03,-65.12,13.42,26.30
16582,-9.73,1.43,2.68,-0.03,0.11,0.03,-65.12,13.42,26.30
16593,-8.64,0.67,4.43,-0.18,-0.18,-0.07,-65.12,13.42,26.30
16604,-8.64,0.67,4.43,-0.18,-0.18,-0.07,-65.12,13.42,26.30
16615,-8.17,0.11,5.41,-0.13,-0.15,-0.09,-65.12,13.42,26.30
16626,-8.17,0.11,5.41,-0.13,-0.15,-0.09,-65.12,13.42,26.30
16637,-8.16,-0.09,5.36,0.09,0.10,-0.05,-65.12,13.42,26.30
16648,-8.16,-0.09,5.36,0.09,0.10,-0.05,-65.12,13.42,26.30
16659,-10.87,1.09,3.41,0.24,0.37,0.04,-65.12,13.42,26.30
16670,-10.87,1.09,3.41,0.24,0.37,0.04,-65.12,13.42,26.30
16681,-9.44,1.81,2.24,0.12,0.17,0.04,-65.63,14.31,25.68
16692,-9.43,1.95,3.33,0.15,-0.02,-0.11,-65.63,14.31,25.68
16703,-9.43,1.95,3.33,0.15,-0.02,-0.11,-65.63,14.31,25.68
16714,-8.96,0.44,4.71,-0.02,-0.08,-0.27,-65.63,14.31,25.68
16725,-8.96,0.44,4.71,-0.02,-0.08,-0.27,-65.63,14.31,25.68
16736,-8.50,-0.97,4.57,-0.34,-0.01,-0.06,-65.63,14.31,25.68
16747,-8.50,-0.97,4.57,-0.34,-0.01,-0.06,-65.63,14.31,25.68
16758,-8.72,0.28,5.00,-0.41,-0.02,0.37,-65.63,14.31,25.68
16769,-8.72,0.28,5.00,-0.41,-0.02,0.37,-65.63,14.31,25.68
16780,-8.50,-0.70,4.32,-0.19,-0.04,0.39,-65.63,14.31,25.68
16791,-8.50,-0.70,4.32,-0.19,-0.04,0.39,-65.63,14.31,25.68
16802,-9.04,0.66,4.14,0.38,-0.05,0.40,-63.84,13.57,25.84
16813,-9.92,2.63,4.22,0.70,0.01,0.22,-63.84,13.57,25.84
16824,-9.92,2.63,4.22,0.70,0.01,0.22,-63.84,13.57,25.84
16835,-10.33,3.11,4.67,0.50,0.21,-0.30,-63.84,13.57,25.84
16846,-10.33,3.11,4.67,0.50,0.21,-0.30,-63.84,13.57,25.84
16857,-8.77,1.12,2.73,0.01,0.46,-0.75,-63.84,13.57,25.84
16868,-8.77,1.12,2.73,0.01,0.46,-0.75,-63.84,13.57,25.84
16879,-8.45,-0.34,1.96,-0.59,0.26,-0.59,-63.84,13.57,25.84
16895,-8.45,-0.34,1.96,-0.59,0.26,-0.59,-63.84,13.57,25.84
16901,-8.40,-1.90,3.40,-0.39,0.02,0.00,-63.84,13.57,25.84
16912,-9.90,0.91,4.81,-0.08,-0.07,0.64,-63.84,13.57,25.84
16923,-9.90,0.91,4.81,-0.08,-0.07,0.64,-63.84,13.57,25.84
16934,-9.76,0.95,4.31,-0.27,-0.25,0.43,-65.89,13.86,25.22
16945,-9.76,0.95,4.31,-0.27,-0.25,0.43,-65.89,13.86,25.22
16956,-8.21,1.38,4.19,-0.38,-0.26,0.19,-65.89,13.86,25.22
16967,-8.21,1.38,4.19,-0.38,-0.26,0.19,-65.89,13.86,25.22
16978,-8.81,1.15,3.94,-0.29,-0.13,-0.01,-65.89,13.86,25.22
16989,-8.81,1.15,3.94,-0.29,-0.13,-0.01,-65.89,13.86,25.22
17000,-8.58,0.41,4.25,-0.24,-0.07,-0.07,-65.89,13.86,25.22
17011,-8.58,0.41,4.25,-0.24,-0.07,-0.07,-65.89,13.86,25.22
17022,-8.76,0.75,4.26,-0.18,0.00,0.05,-65.89,13.86,25.22
17033,-8.77,0.67,4.22,-0.06,0.05,0.06,-65.89,13.86,25.22
17044,-8.77,0.67,4.22,-0.06,0.05,0.06,-65.89,13.86,25.22
17055,-8.78,0.93,4.04,-0.01,0.07,0.04,-64.09,12.83,26.61
17066,-8.78,0.93,4.04,-0.01,0.07,0.04,-64.09,12.83,26.61
17077,-8.77,0.94,4.15,-0.06,0.08,0.02,-64.09,12.83,26.61
17088,-8.77,0.94,4.15,-0.06,0.08,0.02,-64.09,12.83,26.61
17099,-8.77,0.51,4.36,-0.14,0.12,0.01,-64.09,12.83,26.61
17110,-8.77,0.51,4.36,-0.14,0.12,0.01,-64.09,12.83,26.61
17121,-10.04,1.37,2.60,-0.21,0.14,0.05,-64.09,12.83,26.61
17132,-8.94,0.79,3.14,-0.39,-0.07,-0.01,-64.09,12.83,26.61
17143,-8.94,0.79,3.14,-0.39,-0.07,-0.01,-64.09,12.83,26.61
17154,-8.92,-0.10,3.94,-0.50,-0.18,-0.02,-64.09,12.83,26.61
17165,-8.92,-0.10,3.94,-0.50,-0.18,-0.02,-64.09,12.83,26.61
17181,-9.05,-0.13,5.13,-0.66,-0.21,0.03,-62.81,13.27,26.46
17187,-9.05,-0.13,5.13,-0.66,-0.21,0.03,-62.81,13.27,26.46
17198,-8.84,-1.34,4.17,-0.57,-0.09,0.04,-62.81,13.27,26.46
17209,-8.84,-1.34,4.17,-0.57,-0.09,0.04,-62.81,13.27,26.46
17220,-9.12,0.37,4.47,0.30,-0.00,0.17,-62.81,13.27,26.46
17231,-9.12,0.37,4.47,0.30,-0.00,0.17,-62.81,13.27,26.46
17242,-9.91,2.83,4.67,0.65,0.11,-0.18,-62.81,13.27,26.46
17253,-9.40,1.60,3.66,0.39,0.37,-0.79,-62.81,13.27,26.46
17264,-9.40,1.60,3.66,0.39,0.37,-0.79,-62.81,13.27,26.46
17275,-9.20,1.95,2.60,-0.26,0.45,-0.77,-62.81,13.27,26.46
17286,-9.20,1.95,2.60,-0.26,0.45,-0.77,-62.81,13.27,26.46
17297,-8.99,-0.10,2.09,-0.85,0.24,-0.57,-64.86,11.80,27.39
17308,-8.99,-0.10,2.09,-0.85,0.24,-0.57,-64.86,11.80,27.39
17324,-7.96,-2.80,1.74,-0.69,-0.05,-0.02,-64.86,11.80,27.39
17330,-7.96,-2.80,1.74,-0.69,-0.05,-0.02,-64.86,11.80,27.39
17341,-9.39,-0.08,4.19,-0.03,-0.41,0.73,-64.86,11.80,27.39
17352,-12.06,2.04,3.75,0.02,-0.88,0.51,-64.86,11.80,27.39
17363,-12.06,2.04,3.75,0.02,-0.88,0.51,-64.86,11.80,27.39
17374,-7.03,0.89,4.25,-0.16,-1.27,-0.32,-64.86,11.80,27.39
17385,-7.03,0.89,4.25,-0.16,-1.27,-0.32,-64.86,11.80,27.39
17396,-9.23,1.38,4.42,0.42,-1.10,-0.75,-64.86,11.80,27.39
17407,-9.23,1.38,4.42,0.42,-1.10,-0.75,-64.86,11.80,27.39
17418,-7.86,0.17,6.11,0.94,-1.10,-1.06,-64.86,11.80,27.39
17429,-7.86,0.17,6.11,0.94,-1.10,-1.06,-64.86,11.80,27.39
17440,-8.04,-2.89,7.41,1.27,-0.40,-0.80,-63.07,11.06,27.85
17451,-8.04,-2.89,7.41,1.27,-0.40,-0.80,-63.07,11.06,27.85
17462,-9.66,0.17,2.99,1.49,0.85,0.50,-63.07,11.06,27.85
17473,-10.62,5.35,1.07,1.19,0.82,0.93,-63.07,11.06,27.85
17484,-10.62,5.35,1.07,1.19,0.82,0.93,-63.07,11.06,27.85
17495,-8.24,3.75,3.88,0.55,-0.06,-0.01,-63.07,11.06,27.85
17506,-8.24,3.75,3.88,0.55,-0.06,-0.01,-63.07,11.06,27.85
17517,-6.72,0.67,6.20,-0.04,-0.41,-0.77,-63.07,11.06,27.85
17528,-6.72,0.67,6.20,-0.04,-0.41,-0.77,-63.07,11.06,27.85
17539,-7.63,-1.64,7.26,-0.46,-0.09,-0.88,-63.07,11.06,27.85
17550,-7.63,-1.64,7.26,-0.46,-0.09,-0.88,-63.07,11.06,27.85
17561,-8.01,-3.79,5.29,-0.41,0.30,-0.39,-64.86,12.98,26.77
17572,-8.09,-2.01,5.64,0.24,0.12,0.24,-64.86,12.98,26.77
17583,-8.09,-2.01,5.64,0.24,0.12,0.24,-64.86,12.98,26.77
17594,-7.98,-0.47,6.20,0.44,-0.22,0.24,-64.86,12.98,26.77
17605,-7.98,-0.47,6.20,0.44,-0.22,0.24,-64.86,12.98,26.77
17616,-7.33,-2.72,6.36,0.51,-0.19,-0.09,-64.86,12.98,26.77
17627,-7.33,-2.72,6.36,0.51,-0.19,-0.09,-64.86,12.98,26.77
17638,-9.09,0.02,4.59,0.87,0.29,0.33,-64.86,12.98,26.77
17649,-9.09,0.02,4.59,0.87,0.29,0.33,-64.86,12.98,26.77
17660,-9.81,3.00,2.95,0.53,0.37,0.37,-64.86,12.98,26.77
17671,-9.81,3.00,2.95,0.53,0.37,0.37,-64.86,12.98,26.77
17682,-9.68,1.56,3.40,0.08,0.11,-0.03,-65.63,14.01,25.06
17693,-8.99,0.30,3.60,-0.02,-0.13,-0.14,-65.63,14.01,25.06
17704,-8.99,0.30,3.60,-0.02,-0.13,-0.14,-65.63,14.01,25.06
17715,-7.84,0.76,5.10,0.25,-0.36,-0.07,-65.63,14.01,25.06
17726,-7.84,0.76,5.10,0.25,-0.36,-0.07,-65.63,14.01,25.06
17737,-8.15,1.17,5.37,0.41,-0.15,-0.02,-65.63,14.01,25.06
17748,-8.15,1.17,5.37,0.41,-0.15,-0.02,-65.63,14.01,25.06
17759,-9.35,1.18,4.53,0.28,0.12,-0.04,-65.63,14.01,25.06
17770,-9.35,1.18,4.53,0.28,0.12,-0.04,-65.63,14.01,25.06
17781,-9.38,0.39,4.11,0.15,0.04,-0.09,-65.63,14.01,25.06
17792,-9.38,0.39,4.11,0.15,0.04,-0.09,-65.63,14.01,25.06
17803,-8.59,0.36,4.47,0.17,-0.17,-0.05,-65.63,14.01,25.06
17814,-8.44,0.55,5.19,0.36,-0.19,0.00,-62.55,14.60,24.75
17825,-8.44,0.55,5.19,0.36,-0.19,0.00,-62.55,14.60,24.75
17836,-8.50,0.93,5.15,0.40,0.01,-0.03,-62.55,14.60,24.75
17847,-8.50,0.93,5.15,0.40,0.01,-0.03,-62.55,14.60,24.75
17858,-9.53,0.21,4.22,0.47,0.15,-0.12,-62.55,14.60,24.75
17869,-9.53,0.21,4.22,0.47,0.15,-0.12,-62.55,14.60,24.75
17880,-8.96,0.81,4.02,0.46,-0.05,-0.09,-62.55,14.60,24.75
17891,-8.96,0.81,4.02,0.46,-0.05,-0.09,-62.55,14.60,24.75
17902,-8.27,0.95,5.05,0.34,-0.18,-0.05,-62.55,14.60,24.75
17913,-7.98,0.64,4.65,0.21,-0.08,0.01,-62.55,14.60,24.75
17924,-7.98,0.64,4.65,0.21,-0.08,0.01,-62.55,14.60,24.75
17935,-8.91,1.05,5.21,0.34,0.06,0.09,-64.09,14.31,25.06
17946,-8.91,1.05,5.21,0.34,0.06,0.09,-64.09,14.31,25.06
17957,-8.55,1.43,4.20,0.37,0.15,0.03,-64.09,14.31,25.06
17968,-8.55,1.43,4.20,0.37,0.15,0.03,-64.09,14.31,25.06
17979,-8.95,1.54,4.54,0.30,0.22,-0.01,-64.09,14.31,25.06
17995,-8.95,1.54,4.54,0.30,0.22,-0.01,-64.09,14.31,25.06
18001,-8.94,1.06,3.99,0.22,0.29,-0.06,-64.09,14.31,25.06
18012,-8.94,1.06,3.99,0.22,0.29,-0.06,-64.09,14.31,25.06
18023,-7.76,0.71,5.23,0.34,0.21,-0.15,-64.09,14.31,25.06
18034,-11.17,1.10,2.83,0.66,0.47,-0.14,-64.09,14.31,25.06
18045,-11.17,1.10,2.83,0.66,0.47,-0.14,-64.09,14.31,25.06
18056,-9.00,3.57,2.55,0.37,0.13,-0.04,-65.63,15.78,23.20
18068,-9.00,3.57,2.55,0.37,0.13,-0.04,-65.63,15.78,23.20
18078,-9.23,1.13,5.36,0.00,-0.10,-0.27,-65.63,15.78,23.20
18089,-9.23,1.13,5.36,0.00,-0.10,-0.27,-65.63,15.78,23.20
18100,-8.19,-0.31,3.71,-0.61,0.06,-0.04,-65.63,15.78,23.20
18111,-8.19,-0.31,3.71,-0.61,0.06,-0.04,-65.63,15.78,23.20
18122,-8.81,0.35,4.96,-0.85,-0.04,0.44,-65.63,15.78,23.20
18133,-8.48,-0.44,4.96,-0.75,-0.03,0.57,-65.63,15.78,23.20
18144,-8.48,-0.44,4.96,-0.75,-0.03,0.57,-65.63,15.78,23.20
18155,-8.91,0.59,4.93,-0.58,-0.08,0.57,-65.63,15.78,23.20
18166,-8.91,0.59,4.93,-0.58,-0.08,0.57,-65.63,15.78,23.20
18177,-9.22,0.57,4.18,-0.08,-0.02,0.39,-65.63,15.78,23.20
18188,-9.22,0.57,4.18,-0.08,-0.02,0.39,-65.63,15.78,23.20
18199,-9.28,1.76,3.21,0.46,0.01,0.29,-62.04,16.67,23.20
18210,-9.28,1.76,3.21,0.46,0.01,0.29,-62.04,16.67,23.20
18221,-10.03,4.11,5.26,0.81,0.01,-0.11,-62.04,16.67,23.20
18232,-10.03,4.11,5.26,0.81,0.01,-0.11,-62.04,16.67,23.20
18243,-8.40,0.63,4.28,0.81,0.18,-0.83,-62.04,16.67,23.20
18254,-8.42,0.15,4.05,0.75,0.21,-0.59,-62.04,16.67,23.20
18265,-8.42,0.15,4.05,0.75,0.21,-0.59,-62.04,16.67,23.20
18276,-8.86,0.99,5.09,0.47,0.20,-0.10,-62.04,16.67,23.20
18287,-8.86,0.99,5.09,0.47,0.20,-0.10,-62.04,16.67,23.20
18298,-8.37,-0.25,3.78,0.21,0.34,0.29,-62.04,16.67,23.20
18309,-8.37,-0.25,3.78,0.21,0.34,0.29,-62.04,16.67,23.20
18320,-8.75,1.61,4.37,0.18,0.28,0.66,-65.89,16.82,23.67
18331,-8.75,1.61,4.37,0.18,0.28,0.66,-65.89,16.82,23.67
18342,-8.64,1.77,4.06,-0.06,0.13,0.55,-65.89,16.82,23.67
18353,-9.24,2.29,4.04,-0.44,-0.00,0.30,-65.89,16.82,23.67
18364,-9.24,2.29,4.04,-0.44,-0.00,0.30,-65.89,16.82,23.67
18375,-9.16,1.57,3.31,-0.69,-0.07,-0.00,-65.89,16.82,23.67
18386,-9.16,1.57,3.31,-0.69,-0.07,-0.00,-65.89,16.82,23.67
18397,-9.45,1.02,4.40,-0.11,-0.08,-0.08,-65.89,16.82,23.67
18408,-9.45,1.02,4.40,-0.11,-0.08,-0.08,-65.89,16.82,23.67
18419,-9.81,2.88,5.15,0.29,0.06,-0.28,-65.89,16.82,23.67
18430,-9.81,2.88,5.15,0.29,0.06,-0.28,-65.89,16.82,23.67
18441,-8.99,1.93,3.12,0.37,0.23,-0.77,-65.12,15.49,22.58
18452,-8.99,1.93,3.12,0.37,0.23,-0.77,-65.12,15.49,22.58
18463,-8.17,-0.22,3.31,0.38,0.18,-0.72,-65.12,15.49,22.58
18474,-8.83,0.48,5.36,0.04,0.12,-0.12,-65.12,15.49,22.58
18485,-8.83,0.48,5.36,0.04,0.12,-0.12,-65.12,15.49,22.58
18496,-8.37,0.12,3.73,-0.34,0.23,0.36,-65.12,15.49,22.58
18507,-8.37,0.12,3.73,-0.34,0.23,0.36,-65.12,15.49,22.58
18518,-9.23,1.78,4.30,-0.42,0.15,0.66,-65.12,15.49,22.58
18529,-9.23,1.78,4.30,-0.42,0.15,0.66,-65.12,15.49,22.58
18540,-9.31,2.56,3.60,-0.88,0.05,0.41,-65.12,15.49,22.58
18551,-9.31,2.56,3.60,-0.88,0.05,0.41,-65.12,15.49,22.58
18562,-9.19,1.51,3.31,-0.73,-0.05,-0.02,-65.12,15.19,21.65
18573,-9.19,1.51,3.31,-0.73,-0.05,-0.02,-65.12,15.19,21.65
18584,-9.53,1.62,4.23,-0.14,-0.08,-0.19,-65.12,15.19,21.65
18595,-9.00,1.45,3.92,0.15,0.03,-0.39,-65.12,15.19,21.65
18606,-9.00,1.45,3.92,0.15,0.03,-0.39,-65.12,15.19,21.65
18617,-8.66,-0.39,4.09,0.33,0.03,-0.46,-65.12,15.19,21.65
18628,-8.66,-0.39,4.09,0.33,0.03,-0.46,-65.12,15.19,21.65
18639,-8.82,0.98,4.52,0.27,0.01,-0.14,-65.12,15.19,21.65
18650,-8.82,0.98,4.52,0.27,0.01,-0.14,-65.12,15.19,21.65
18661,-8.88,0.74,4.67,-0.30,0.02,-0.03,-65.12,15.19,21.65
18672,-8.88,0.74,4.67,-0.30,0.02,-0.03,-65.12,15.19,21.65
18683,-8.77,-0.42,4.00,-0.79,0.07,0.20,-65.12,15.19,21.65
18694,-9.35,1.87,4.18,-0.91,0.09,0.56,-68.20,15.49,22.89
18705,-9.35,1.87,4.18,-0.91,0.09,0.56,-68.20,15.49,22.89
18716,-9.36,2.29,3.49,-1.16,0.10,0.31,-68.20,15.49,22.89
18727,-9.36,2.29,3.49,-1.16,0.10,0.31,-68.20,15.49,22.89
18738,-9.15,0.82,3.46,-0.62,0.06,-0.04,-68.20,15.49,22.89
18749,-9.15,0.82,3.46,-0.62,0.06,-0.04,-68.20,15.49,22.89
18760,-9.18,0.62,4.08,0.11,0.02,-0.14,-68.20,15.49,22.89
18771,-9.18,0.62,4.08,0.11,0.02,-0.14,-68.20,15.49,22.89
18782,-8.87,0.94,3.26,0.53,0.06,-0.23,-68.20,15.49,22.89
18793,-8.87,0.94,3.26,0.53,0.06,-0.23,-68.20,15.49,22.89
18804,-9.08,0.97,3.93,0.54,0.01,-0.26,-68.20,15.49,22.89
18815,-9.11,0.56,4.16,0.44,0.04,-0.15,-66.40,15.63,23.98
18826,-9.11,0.56,4.16,0.44,0.04,-0.15,-66.40,15.63,23.98
18837,-8.74,0.21,4.08,0.38,0.13,0.12,-66.40,15.63,23.98
18848,-8.74,0.21,4.08,0.38,0.13,0.12,-66.40,15.63,23.98
18859,-8.92,1.72,4.12,0.32,0.11,0.36,-66.40,15.63,23.98
18870,-8.92,1.72,4.12,0.32,0.11,0.36,-66.40,15.63,23.98
18881,-8.92,1.80,4.04,0.05,0.06,0.29,-66.40,15.63,23.98
18892,-8.92,1.80,4.04,0.05,0.06,0.29,-66.40,15.63,23.98
18903,-8.83,1.14,3.85,-0.24,-0.03,0.15,-66.40,15.63,23.98
18914,-8.94,0.96,4.26,-0.39,-0.09,0.11,-66.40,15.63,23.98
18925,-8.94,0.96,4.26,-0.39,-0.09,0.11,-66.40,15.63,23.98
18936,-8.95,-0.39,5.40,-0.52,-0.06,0.22,-64.35,16.23,23.98
18947,-8.95,-0.39,5.40,-0.52,-0.06,0.22,-64.35,16.23,23.98
18958,-8.92,-0.68,4.33,-0.57,0.10,0.34,-64.35,16.23,23.98
18969,-8.92,-0.68,4.33,-0.57,0.10,0.34,-64.35,16.23,23.98
18980,-9.23,1.60,3.41,0.12,0.21,0.46,-64.35,16.23,23.98
18991,-9.23,1.60,3.41,0.12,0.21,0.46,-64.35,16.23,23.98
19008,-10.08,4.41,3.13,0.51,0.15,0.14,-64.35,16.23,23.98
19013,-10.08,4.41,3.13,0.51,0.15,0.14,-64.35,16.23,23.98
19024,-10.22,5.44,2.66,0.02,0.12,-0.59,-64.35,16.23,23.98
19035,-8.94,1.24,2.28,-0.83,0.01,-1.22,-64.35,16.23,23.98
19046,-8.94,1.24,2.28,-0.83,0.01,-1.22,-64.35,16.23,23.98
19057,-8.53,-1.69,2.29,-1.17,-0.24,-0.97,-64.35,16.23,23.98
19068,-8.53,-1.69,2.29,-1.17,-0.24,-0.97,-64.35,16.23,23.98
19079,-10.72,-4.65,5.44,-0.73,-0.31,-0.09,-66.92,13.27,24.60
19090,-10.72,-4.65,5.44,-0.73,-0.31,-0.09,-66.92,13.27,24.60
19102,-10.59,-0.24,4.46,-0.55,-0.52,0.96,-66.92,13.27,24.60
19112,-10.59,-0.24,4.46,-0.55,-0.52,0.96,-66.92,13.27,24.60
19123,-7.76,2.29,5.15,-0.64,-0.70,1.25,-66.92,13.27,24.60
19134,-7.96,3.40,3.52,-0.36,0.03,0.77,-66.92,13.27,24.60
19145,-7.96,3.40,3.52,-0.36,0.03,0.77,-66.92,13.27,24.60
19156,-8.52,2.70,2.20,-0.18,0.40,0.12,-66.92,13.27,24.60
19167,-8.52,2.70,2.20,-0.18,0.40,0.12,-66.92,13.27,24.60
19178,-7.60,1.28,3.71,-0.19,0.05,-0.37,-66.92,13.27,24.60
19189,-7.60,1.28,3.71,-0.19,0.05,-0.37,-66.92,13.27,24.60
19200,-8.16,0.67,6.23,-0.23,-0.55,-0.57,-62.55,12.53,25.37
19211,-8.16,0.67,6.23,-0.23,-0.55,-0.57,-62.55,12.53,25.37
19222,-6.29,-3.53,9.15,-0.11,-0.70,-0.76,-62.55,12.53,25.37
19233,-6.29,-3.53,9.15,-0.11,-0.70,-0.76,-62.55,12.53,25.37
19244,-7.60,-1.26,5.30,0.48,0.08,0.03,-62.55,12.53,25.37
19255,-9.97,1.76,4.14,0.67,0.31,0.42,-62.55,12.53,25.37
19266,-9.97,1.76,4.14,0.67,0.31,0.42,-62.55,12.53,25.37
19277,-9.60,1.62,2.79,0.40,0.29,0.20,-62.55,12.53,25.37
19288,-9.60,1.62,2.79,0.40,0.29,0.20,-62.55,12.53,25.37
19299,-8.61,1.86,3.94,0.40,0.25,0.04,-62.55,12.53,25.37
19310,-8.61,1.86,3.94,0.40,0.25,0.04,-62.55,12.53,25.37
19321,-10.41,1.77,1.27,0.43,0.29,-0.13,-63.32,17.41,24.29
19332,-10.41,1.77,1.27,0.43,0.29,-0.13,-63.32,17.41,24.29
19343,-9.57,2.10,4.53,0.09,-0.10,-0.18,-63.32,17.41,24.29
19354,-8.89,-0.43,4.30,-0.29,0.01,-0.15,-63.32,17.41,24.29
19365,-8.89,-0.43,4.30,-0.29,0.01,-0.15,-63.32,17.41,24.29
19376,-8.38,-0.10,4.35,-0.55,0.04,0.30,-63.32,17.41,24.29
19387,-8.38,-0.10,4.35,-0.55,0.04,0.30,-63.32,17.41,24.29
19398,-8.32,-0.20,5.27,-0.26,-0.08,0.41,-63.32,17.41,24.29
19409,-8.32,-0.20,5.27,-0.26,-0.08,0.41,-63.32,17.41,24.29
19420,-8.10,0.16,3.71,0.13,-0.09,0.41,-63.32,17.41,24.29
19436,-8.10,0.16,3.71,0.13,-0.09,0.41,-63.32,17.41,24.29
19442,-9.77,2.42,4.50,0.28,-0.21,0.30,-63.32,17.41,24.29
19453,-9.77,2.42,4.50,0.28,-0.21,0.30,-63.32,17.41,24.29
19464,-9.72,3.18,4.72,0.13,-0.13,-0.28,-65.89,15.93,23.67
19475,-9.24,0.88,3.26,-0.20,0.11,-0.65,-65.89,15.93,23.67
19486,-9.24,0.88,3.26,-0.20,0.11,-0.65,-65.89,15.93,23.67
19497,-8.84,1.76,4.02,-0.42,0.20,-0.40,-65.89,15.93,23.67
19509,-8.84,1.76,4.02,-0.42,0.20,-0.40,-65.89,15.93,23.67
19519,-8.98,0.88,3.76,-0.67,0.19,-0.26,-65.89,15.93,23.67
19530,-8.98,0.88,3.76,-0.67,0.19,-0.26,-65.89,15.93,23.67
19541,-9.26,1.33,3.19,-0.54,0.14,-0.31,-65.89,15.93,23.67
19552,-9.26,1.33,3.19,-0.54,0.14,-0.31,-65.89,15.93,23.67
19563,-9.51,-0.51,5.34,-0.08,0.16,-0.51,-65.89,15.93,23.67
19574,-9.51,-0.51,5.34,-0.08,0.16,-0.51,-65.89,15.93,23.67
19585,-9.75,0.93,5.20,0.29,0.46,-0.76,-65.12,13.42,24.44
19596,-7.81,0.68,5.35,0.80,0.69,-1.34,-65.12,13.42,24.44
19607,-7.81,0.68,5.35,0.80,0.69,-1.34,-65.12,13.42,24.44
19618,-7.80,-3.50,2.29,0.77,0.48,-1.24,-65.12,13.42,24.44
19629,-7.80,-3.50,2.29,0.77,0.48,-1.24,-65.12,13.42,24.44
19640,-9.41,2.23,4.24,0.74,0.07,-0.12,-65.12,13.42,24.44
19651,-9.41,2.23,4.24,0.74,0.07,-0.12,-65.12,13.42,24.44
19662,-8.72,-1.05,2.21,-0.28,-0.09,-0.04,-65.12,13.42,24.44
19673,-8.72,-1.05,2.21,-0.28,-0.09,-0.04,-65.12,13.42,24.44
19684,-8.15,-2.36,3.11,-0.34,-0.36,0.74,-65.12,13.42,24.44
19695,-9.25,1.54,5.30,-0.19,-0.47,1.56,-65.38,13.57,24.60
19706,-9.25,1.54,5.30,-0.19,-0.47,1.56,-65.38,13.57,24.60
19717,-8.57,0.84,4.76,-0.99,-0.36,1.07,-65.38,13.57,24.60
19728,-8.57,0.84,4.76,-0.99,-0.36,1.07,-65.38,13.57,24.60
19739,-9.63,1.48,3.95,-1.23,-0.24,0.69,-65.38,13.57,24.60
19750,-9.63,1.48,3.95,-1.23,-0.24,0.69,-65.38,13.57,24.60
19761,-9.57,1.87,3.27,-0.97,-0.14,0.39,-65.38,13.57,24.60
19772,-9.57,1.87,3.27,-0.97,-0.14,0.39,-65.38,13.57,24.60
19783,-9.40,0.33,3.96,-0.84,-0.10,0.08,-65.38,13.57,24.60
19794,-9.40,0.33,3.96,-0.84,-0.10,0.08,-65.38,13.57,24.60
19805,-9.19,0.24,4.16,-0.45,-0.04,-0.03,-65.38,13.57,24.60
19816,-9.40,0.29,5.67,0.15,0.05,-0.17,-63.58,12.83,25.06
19827,-9.40,0.29,5.67,0.15,0.05,-0.17,-63.58,12.83,25.06
19838,-9.01,0.45,3.84,0.44,0.24,-0.38,-63.58,12.83,25.06
19849,-9.01,0.45,3.84,0.44,0.24,-0.38,-63.58,12.83,25.06
19860,-8.79,-0.28,4.27,0.67,0.22,-0.34,-63.58,12.83,25.06
19871,-8.79,-0.28,4.27,0.67,0.22,-0.34,-63.58,12.83,25.06
19882,-8.76,-0.07,4.04,0.64,0.18,-0.06,-63.58,12.83,25.06
19893,-8.76,-0.07,4.04,0.64,0.18,-0.06,-63.58,12.83,25.06
19904,-8.84,0.29,3.42,0.58,0.11,0.19,-63.58,12.83,25.06
19915,-9.00,1.52,4.05,0.43,-0.03,0.39,-63.58,12.83,25.06
19926,-9.00,1.52,4.05,0.43,-0.03,0.39,-63.58,12.83,25.06
19937,-9.05,0.57,4.42,-0.00,-0.11,0.28,-63.58,12.83,25.06
19948,-9.05,0.57,4.42,-0.00,-0.11,0.28,-63.58,12.83,25.06
19959,-9.22,0.55,4.76,-0.31,-0.05,0.14,-66.66,12.53,24.75
19970,-9.22,0.55,4.76,-0.31,-0.05,0.14,-66.66,12.53,24.75
19982,-9.16,0.33,4.35,-0.19,0.08,0.07,-66.66,12.53,24.75
19992,-9.16,0.33,4.35,-0.19,0.08,0.07,-66.66,12.53,24.75
20003,-9.70,2.49,4.11,-0.07,0.17,0.06,-66.66,12.53,24.75
20014,-9.70,2.49,4.11,-0.07,0.17,0.06,-66.66,12.53,24.75
20025,-9.25,1.38,3.22,-0.47,0.24,-0.19,-66.66,12.53,24.75
20036,-8.68,-0.72,2.76,-0.87,0.13,-0.21,-66.66,12.53,24.75
20047,-8.68,-0.72,2.76,-0.87,0.13,-0.21,-66.66,12.53,24.75
20058,-8.42,-0.83,4.13,-0.73,-0.03,0.18,-66.66,12.53,24.75
20069,-8.42,-0.83,4.13,-0.73,-0.03,0.18,-66.66,12.53,24.75
20080,-8.40,-0.27,5.54,-0.36,-0.04,0.51,-65.89,12.98,24.60
20091,-8.40,-0.27,5.54,-0.36,-0.04,0.51,-65.89,12.98,24.60
20102,-8.70,-0.96,4.10,0.09,-0.07,0.68,-65.89,12.98,24.60
20113,-8.70,-0.96,4.10,0.09,-0.07,0.68,-65.89,12.98,24.60
20124,-9.35,3.94,3.46,0.73,-0.09,0.59,-65.89,12.98,24.60
20135,-10.25,3.69,3.05,0.53,-0.12,-0.22,-65.89,12.98,24.60
20146,-10.25,3.69,3.05,0.53,-0.12,-0.22,-65.89,12.98,24.60
20157,-9.87,2.27,3.25,-0.22,-0.10,-0.83,-65.89,12.98,24.60
20168,-9.87,2.27,3.25,-0.22,-0.10,-0.83,-65.89,12.98,24.60
20179,-8.37,-0.93,4.65,-0.51,0.07,-0.98,-65.89,12.98,24.60
20190,-8.37,-0.93,4.65,-0.51,0.07,-0.98,-65.89,12.98,24.60
20201,-8.06,-1.86,3.83,-0.78,0.14,-0.22,-66.66,11.06,25.99
20212,-8.06,-1.86,3.83,-0.78,0.14,-0.22,-66.66,11.06,25.99
20223,-9.15,1.57,4.30,-0.60,0.05,0.37,-66.66,11.06,25.99
20234,-9.15,1.57,4.30,-0.60,0.05,0.37,-66.66,11.06,25.99
20245,-9.07,-0.10,3.42,-0.31,0.06,0.06,-66.66,11.06,25.99
20256,-9.48,0.24,3.96,0.16,0.02,0.01,-66.66,11.06,25.99
20267,-9.48,0.24,3.96,0.16,0.02,0.01,-66.66,11.06,25.99
20278,-9.27,1.75,3.78,0.31,0.13,-0.08,-66.66,11.06,25.99
20289,-9.27,1.75,3.78,0.31,0.13,-0.08,-66.66,11.06,25.99
20300,-8.91,0.43,3.93,-0.03,0.13,-0.25,-66.66,11.06,25.99
20311,-8.91,0.43,3.93,-0.03,0.13,-0.25,-66.66,11.06,25.99
20322,-8.83,-0.47,3.93,-0.34,0.06,-0.09,-66.66,11.06,25.99
20333,-8.83,-0.47,3.93,-0.34,0.06,-0.09,-66.66,11.06,25.99
20344,-8.83,-0.09,3.87,-0.40,0.00,0.26,-66.92,12.98,27.08
20355,-9.08,1.34,3.85,-0.40,-0.07,0.40,-66.92,12.98,27.08
20366,-9.08,1.34,3.85,-0.40,-0.07,0.40,-66.92,12.98,27.08
20377,-9.38,1.07,3.93,-0.58,-0.08,0.15,-66.92,12.98,27.08
20388,-9.38,1.07,3.93,-0.58,-0.08,0.15,-66.92,12.98,27.08
20399,-9.26,0.87,3.48,-0.62,-0.04,-0.10,-66.92,12.98,27.08
20411,-9.26,0.87,3.48,-0.62,-0.04,-0.10,-66.92,12.98,27.08
20421,-9.16,0.00,3.87,-0.47,-0.03,-0.25,-66.92,12.98,27.08
20432,-9.16,0.00,3.87,-0.47,-0.03,-0.25,-66.92,12.98,27.08
20443,-9.35,0.53,4.31,-0.01,0.02,-0.29,-66.92,12.98,27.08
20454,-9.35,0.53,4.31,-0.01,0.02,-0.29,-66.92,12.98,27.08
20465,-8.87,-0.35,3.91,0.31,0.10,-0.43,-65.12,10.76,25.99
20476,-8.73,-1.04,4.08,0.21,0.07,-0.29,-65.12,10.76,25.99
20487,-8.73,-1.04,4.08,0.21,0.07,-0.29,-65.12,10.76,25.99
20498,-9.01,-0.14,4.70,-0.19,0.05,-0.00,-65.12,10.76,25.99
20509,-9.01,-0.14,4.70,-0.19,0.05,-0.00,-65.12,10.76,25.99
20520,-9.34,-0.67,3.28,-0.80,0.09,0.16,-65.12,10.76,25.99
20531,-9.34,-0.67,3.28,-0.80,0.09,0.16,-65.12,10.76,25.99
20542,-9.48,1.64,3.33,-0.83,0.01,0.50,-65.12,10.76,25.99
20553,-9.48,1.64,3.33,-0.83,0.01,0.50,-65.12,10.76,25.99
20564,-9.13,-0.15,3.48,-0.35,-0.03,0.17,-65.12,10.76,25.99
20575,-9.13,-0.15,3.48,-0.35,-0.03,0.17,-65.12,10.76,25.99
20586,-9.52,1.36,3.91,-0.03,-0.04,-0.07,-66.15,10.17,25.68
20597,-9.35,-0.15,3.49,-0.09,-0.00,-0.37,-66.15,10.17,25.68
20608,-9.35,-0.15,3.49,-0.09,-0.00,-0.37,-66.15,10.17,25.68
20619,-9.31,-2.35,4.48,0.03,-0.05,-0.36,-66.15,10.17,25.68
20630,-9.31,-2.35,4.48,0.03,-0.05,-0.36,-66.15,10.17,25.68
20641,-11.24,-2.00,2.50,-0.11,-0.20,0.04,-66.15,10.17,25.68
20652,-11.24,-2.00,2.50,-0.11,-0.20,0.04,-66.15,10.17,25.68
20663,-7.35,0.63,5.23,-0.36,-0.58,0.49,-66.15,10.17,25.68
20674,-7.35,0.63,5.23,-0.36,-0.58,0.49,-66.15,10.17,25.68
20685,-7.15,0.27,4.40,-0.16,-0.35,0.49,-66.15,10.17,25.68
20696,-6.42,2.02,4.43,0.46,-0.22,0.55,-66.15,10.17,25.68
20707,-6.42,2.02,4.43,0.46,-0.22,0.55,-66.15,10.17,25.68
20718,-8.46,0.78,6.87,0.59,0.03,0.08,-63.32,10.91,27.08
20729,-8.46,0.78,6.87,0.59,0.03,0.08,-63.32,10.91,27.08
20740,-9.16,-0.93,3.83,0.37,0.56,-0.09,-63.32,10.91,27.08
20751,-9.16,-0.93,3.83,0.37,0.56,-0.09,-63.32,10.91,27.08
20762,-10.83,1.99,2.23,0.22,0.45,0.07,-63.32,10.91,27.08
20773,-10.83,1.99,2.23,0.22,0.45,0.07,-63.32,10.91,27.08
20784,-9.66,1.51,2.35,-0.20,0.07,-0.32,-63.32,10.91,27.08
20795,-9.66,1.51,2.35,-0.20,0.07,-0.32,-63.32,10.91,27.08
20806,-9.26,-0.68,4.04,-0.55,-0.04,-0.45,-63.32,10.91,27.08
20817,-8.25,-2.33,4.29,-0.65,0.01,-0.03,-63.32,10.91,27.08
20828,-8.25,-2.33,4.29,-0.65,0.01,-0.03,-63.32,10.91,27.08
20839,-8.96,-1.21,5.54,-0.23,-0.08,0.41,-65.12,10.76,26.61
20850,-8.96,-1.21,5.54,-0.23,-0.08,0.41,-65.12,10.76,26.61
20866,-8.27,-2.02,3.76,0.22,-0.03,0.54,-65.12,10.76,26.61
20872,-8.27,-2.02,3.76,0.22,-0.03,0.54,-65.12,10.76,26.61
20883,-9.17,0.83,4.59,0.74,-0.11,0.69,-65.12,10.76,26.61
20894,-9.17,0.83,4.59,0.74,-0.11,0.69,-65.12,10.76,26.61
20905,-9.80,2.02,4.15,0.95,-0.04,0.32,-65.12,10.76,26.61
20916,-10.30,2.35,3.28,0.69,0.07,-0.29,-65.12,10.76,26.61
20927,-10.30,2.35,3.28,0.69,0.07,-0.29,-65.12,10.76,26.61
20938,-9.73,2.93,2.89,0.21,0.17,-0.83,-65.12,10.76,26.61
20949,-9.73,2.93,2.89,0.21,0.17,-0.83,-65.12,10.76,26.61
20960,-8.04,-1.42,2.97,-0.11,0.17,-1.03,-67.18,11.94,26.92
20971,-8.04,-1.42,2.97,-0.11,0.17,-1.03,-67.18,11.94,26.92
20982,-8.18,-1.62,3.92,-0.23,-0.04,0.01,-67.18,11.94,26.92
20993,-8.18,-1.62,3.92,-0.23,-0.04,0.01,-67.18,11.94,26.92
21004,-8.16,0.11,4.80,-0.21,-0.17,0.70,-67.18,11.94,26.92
21015,-8.16,0.11,4.80,-0.21,-0.17,0.70,-67.18,11.94,26.92
21026,-8.24,-0.91,3.77,-0.13,-0.15,0.76,-67.18,11.94,26.92
21037,-7.98,-0.84,4.19,-0.20,-0.35,1.10,-67.18,11.94,26.92
21048,-7.98,-0.84,4.19,-0.20,-0.35,1.10,-67.18,11.94,26.92
21059,-9.37,0.68,6.14,-0.94,-0.48,1.36,-67.18,11.94,26.92
21070,-9.37,0.68,6.14,-0.94,-0.48,1.36,-67.18,11.94,26.92
21081,-10.46,3.71,4.87,-1.34,-0.18,0.92,-61.52,11.94,28.47
21092,-10.46,3.71,4.87,-1.34,-0.18,0.92,-61.52,11.94,28.47
21103,-9.51,1.92,1.81,-0.54,0.12,0.17,-61.52,11.94,28.47
21114,-9.51,1.92,1.81,-0.54,0.12,0.17,-61.52,11.94,28.47
21125,-11.24,6.14,5.41,0.40,0.09,-0.37,-61.52,11.94,28.47
21136,-9.07,2.91,3.97,0.46,0.53,-1.82,-61.52,11.94,28.47
21152,-9.07,2.91,3.97,0.46,0.53,-1.82,-61.52,11.94,28.47
21158,-6.87,-3.99,2.62,0.75,0.59,-2.42,-61.52,11.94,28.47
21169,-6.87,-3.99,2.62,0.75,0.59,-2.42,-61.52,11.94,28.47
21180,-7.93,-4.80,4.69,1.20,0.27,-1.06,-61.52,11.94,28.47
21191,-7.93,-4.80,4.69,1.20,0.27,-1.06,-61.52,11.94,28.47
21202,-8.61,-1.20,4.25,0.91,0.25,0.32,-61.52,11.94,28.47
21213,-8.61,-1.20,4.25,0.91,0.25,0.32,-61.52,11.94,28.47
21224,-8.74,0.17,3.68,0.54,0.23,0.90,-63.32,11.20,24.60
21235,-8.74,0.17,3.68,0.54,0.23,0.90,-63.32,11.20,24.60
21246,-8.67,1.11,3.40,0.06,0.09,1.07,-63.32,11.20,24.60
21257,-9.17,1.19,4.32,-0.02,-0.10,0.93,-63.32,11.20,24.60
21268,-9.17,1.19,4.32,-0.02,-0.10,0.93,-63.32,11.20,24.60
21279,-9.42,1.21,4.68,0.02,-0.04,0.64,-63.32,11.20,24.60
21290,-9.42,1.21,4.68,0.02,-0.04,0.64,-63.32,11.20,24.60
21301,-9.47,1.59,3.47,0.30,0.13,0.36,-63.32,11.20,24.60
21312,-9.47,1.59,3.47,0.30,0.13,0.36,-63.32,11.20,24.60
21323,-10.18,3.75,3.67,0.51,0.14,-0.01,-63.32,11.20,24.60
21334,-10.18,3.75,3.67,0.51,0.14,-0.01,-63.32,11.20,24.60
21345,-10.03,3.34,3.27,-0.18,0.25,-0.68,-68.20,14.01,25.37
21356,-8.77,0.58,0.85,-1.38,0.24,-0.79,-68.20,14.01,25.37
21367,-8.77,0.58,0.85,-1.38,0.24,-0.79,-68.20,14.01,25.37
21378,-8.80,-4.78,3.25,-1.49,-0.23,-0.31,-68.20,14.01,25.37
21389,-8.80,-4.78,3.25,-1.49,-0.23,-0.31,-68.20,14.01,25.37
21400,-12.08,-5.86,5.91,-0.60,-0.20,0.96,-68.20,14.01,25.37
21412,-12.08,-5.86,5.91,-0.60,-0.20,0.96,-68.20,14.01,25.37
21422,-11.45,-6.80,6.81,-0.18,-0.60,2.17,-68.20,14.01,25.37
21433,-11.45,-6.80,6.81,-0.18,-0.60,2.17,-68.20,14.01,25.37
21444,-12.64,1.39,7.95,-0.04,-1.12,2.84,-68.20,14.01,25.37
21455,-12.64,1.39,7.95,-0.04,-1.12,2.84,-68.20,14.01,25.37
21466,-11.20,0.35,7.19,0.60,-1.60,1.09,-57.93,15.78,27.23
21477,-5.42,-3.14,12.37,1.46,-2.34,-0.63,-57.93,15.78,27.23
21488,-5.42,-3.14,12.37,1.46,-2.34,-0.63,-57.93,15.78,27.23
21499,-3.36,0.02,8.93,1.97,-1.51,-1.22,-57.93,15.78,27.23
21510,-3.36,0.02,8.93,1.97,-1.51,-1.22,-57.93,15.78,27.23
21521,-3.36,-0.30,7.83,2.36,-1.00,-2.09,-57.93,15.78,27.23
21532,-3.36,-0.30,7.83,2.36,-1.00,-2.09,-57.93,15.78,27.23
21543,-5.32,-1.73,4.63,2.60,-0.65,-2.18,-57.93,15.78,27.23
21554,-5.32,-1.73,4.63,2.60,-0.65,-2.18,-57.93,15.78,27.23
21565,-6.37,0.92,3.94,2.13,-0.80,-1.63,-57.93,15.78,27.23
21576,-6.37,0.92,3.94,2.13,-0.80,-1.63,-57.93,15.78,27.23
21587,-5.41,3.55,2.21,1.64,-0.88,-1.31,-57.93,15.78,27.23
21598,-4.80,4.93,1.70,1.61,-0.75,-1.28,-61.01,17.55,26.92
21609,-4.80,4.93,1.70,1.61,-0.75,-1.28,-61.01,17.55,26.92
21620,-6.49,5.74,3.09,1.75,-0.25,-1.44,-61.01,17.55,26.92
21631,-6.49,5.74,3.09,1.75,-0.25,-1.44,-61.01,17.55,26.92
21642,-10.36,3.80,-0.00,1.64,0.56,-1.53,-61.01,17.55,26.92
21653,-10.36,3.80,-0.00,1.64,0.56,-1.53,-61.01,17.55,26.92
21664,-11.05,3.37,-2.55,1.28,0.49,-0.94,-61.01,17.55,26.92
21675,-11.05,3.37,-2.55,1.28,0.49,-0.94,-61.01,17.55,26.92
21686,-9.80,5.75,3.36,0.72,-0.14,-0.35,-61.01,17.55,26.92
21697,-10.25,3.67,4.39,0.21,0.32,-0.71,-61.01,17.55,26.92
21708,-10.25,3.67,4.39,0.21,0.32,-0.71,-61.01,17.55,26.92
21719,-12.39,0.17,2.06,0.13,0.70,-0.98,-64.86,17.41,23.36
21730,-12.39,0.17,2.06,0.13,0.70,-0.98,-64.86,17.41,23.36
21741,-11.86,-0.23,3.33,-0.05,0.14,-0.78,-64.86,17.41,23.36
21752,-11.86,-0.23,3.33,-0.05,0.14,-0.78,-64.86,17.41,23.36
21763,-9.67,0.10,5.31,-0.18,-0.41,-0.60,-64.86,17.41,23.36
21774,-9.67,0.10,5.31,-0.18,-0.41,-0.60,-64.86,17.41,23.36
21785,-7.82,-0.32,6.68,-0.18,-0.39,-0.50,-64.86,17.41,23.36
21796,-7.82,-0.32,6.68,-0.18,-0.39,-0.50,-64.86,17.41,23.36
21807,-8.12,-0.37,5.12,0.04,0.19,-0.28,-64.86,17.41,23.36
21818,-9.36,0.66,3.87,0.17,0.36,-0.01,-64.86,17.41,23.36
21829,-9.36,0.66,3.87,0.17,0.36,-0.01,-64.86,17.41,23.36
21840,-10.55,0.23,6.46,0.29,0.19,0.02,-65.63,15.19,23.51
21851,-10.55,0.23,6.46,0.29,0.19,0.02,-65.63,15.19,23.51
21862,-9.68,0.97,3.59,0.32,0.37,0.08,-65.63,15.19,23.51
21873,-9.68,0.97,3.59,0.32,0.37,0.08,-65.63,15.19,23.51
21884,-7.89,2.71,2.91,0.10,0.20,0.05,-65.63,15.19,23.51
21895,-7.89,2.71,2.91,0.10,0.20,0.05,-65.63,15.19,23.51
21906,-9.26,1.08,4.00,-0.03,0.20,-0.18,-65.63,15.19,23.51
21917,-10.23,0.19,3.06,-0.02,0.13,-0.10,-65.63,15.19,23.51
21928,-10.23,0.19,3.06,-0.02,0.13,-0.10,-65.63,15.19,23.51
21939,-8.16,0.37,4.93,0.13,-0.37,0.08,-65.63,15.19,23.51
21950,-8.16,0.37,4.93,0.13,-0.37,0.08,-65.63,15.19,23.51
21961,-6.80,1.02,6.37,0.53,-0.37,0.12,-65.63,15.19,23.51
21972,-6.80,1.02,6.37,0.53,-0.37,0.12,-65.63,15.19,23.51
21983,-7.81,1.94,5.99,0.68,0.07,-0.14,-65.63,16.37,23.82
21994,-7.81,1.94,5.99,0.68,0.07,-0.14,-65.63,16.37,23.82
22010,-10.30,0.27,4.41,0.52,0.39,-0.35,-65.63,16.37,23.82
22016,-10.30,0.27,4.41,0.52,0.39,-0.35,-65.63,16.37,23.82
22027,-10.03,0.39,3.27,0.15,0.21,-0.07,-65.63,16.37,23.82
22038,-8.32,1.15,4.34,-0.07,-0.15,0.14,-65.63,16.37,23.82
22049,-8.32,1.15,4.34,-0.07,-0.15,0.14,-65.63,16.37,23.82
22060,-7.80,0.68,5.37,0.15,-0.12,0.12,-65.63,16.37,23.82
22071,-7.80,0.68,5.37,0.15,-0.12,0.12,-65.63,16.37,23.82
22082,-7.93,1.09,5.41,0.43,0.18,0.10,-65.63,16.37,23.82
22093,-7.93,1.09,5.41,0.43,0.18,0.10,-65.63,16.37,23.82
22104,-10.10,1.32,3.52,0.54,0.29,0.08,-65.12,16.67,21.34
22115,-10.10,1.32,3.52,0.54,0.29,0.08,-65.12,16.67,21.34
22126,-9.18,2.82,3.27,0.12,0.06,0.06,-65.12,16.67,21.34
22137,-8.56,1.16,3.63,-0.03,-0.05,0.01,-65.12,16.67,21.34
22149,-8.56,1.16,3.63,-0.03,-0.05,0.01,-65.12,16.67,21.34
22159,-8.16,0.72,4.42,-0.07,-0.11,0.32,-65.12,16.67,21.34
22170,-8.16,0.72,4.42,-0.07,-0.11,0.32,-65.12,16.67,21.34
22181,-7.78,-0.31,4.31,0.13,-0.12,0.82,-65.12,16.67,21.34
22192,-7.78,-0.31,4.31,0.13,-0.12,0.82,-65.12,16.67,21.34
22203,-7.58,-1.34,4.89,1.09,-0.15,1.48,-65.12,16.67,21.34
22214,-7.58,-1.34,4.89,1.09,-0.15,1.48,-65.12,16.67,21.34
22225,-7.76,1.87,5.62,1.68,-0.20,2.01,-61.52,20.80,20.41
22236,-7.76,1.87,5.62,1.68,-0.20,2.01,-61.52,20.80,20.41
22247,-9.42,5.68,5.65,1.39,-0.21,1.52,-61.52,20.80,20.41
22258,-9.57,4.92,4.25,0.81,-0.06,0.55,-61.52,20.80,20.41
22269,-9.57,4.92,4.25,0.81,-0.06,0.55,-61.52,20.80,20.41
22280,-10.37,6.31,4.59,0.18,-0.07,-0.27,-61.52,20.80,20.41
22291,-10.37,6.31,4.59,0.18,-0.07,-0.27,-61.52,20.80,20.41
22302,-11.17,7.86,3.58,-0.43,-0.04,-1.59,-61.52,20.80,20.41
22313,-11.17,7.86,3.58,-0.43,-0.04,-1.59,-61.52,20.80,20.41
22324,-8.04,7.08,5.97,-0.44,0.08,-3.50,-61.52,20.80,20.41
22335,-8.04,7.08,5.97,-0.44,0.08,-3.50,-61.52,20.80,20.41
22346,-4.46,-8.12,4.94,-0.68,0.33,-4.44,-68.97,16.23,21.19
22357,-4.46,-8.12,4.94,-0.68,0.33,-4.44,-68.97,16.23,21.19
22368,-6.34,-6.53,3.34,0.47,0.26,-1.64,-68.97,16.23,21.19
22379,-9.04,3.85,5.48,1.20,0.01,0.39,-68.97,16.23,21.19
22390,-9.04,3.85,5.48,1.20,0.01,0.39,-68.97,16.23,21.19
22401,-8.05,1.77,2.60,-0.07,0.14,0.32,-68.97,16.23,21.19
22412,-8.05,1.77,2.60,-0.07,0.14,0.32,-68.97,16.23,21.19
22423,-8.81,0.74,4.63,-0.94,-0.10,0.56,-68.97,16.23,21.19
22434,-8.81,0.74,4.63,-0.94,-0.10,0.56,-68.97,16.23,21.19
22445,-9.60,1.46,3.97,-1.78,-0.02,0.95,-68.97,16.23,21.19
22456,-9.60,1.46,3.97,-1.78,-0.02,0.95,-68.97,16.23,21.19
22467,-9.47,2.18,4.03,-2.01,-0.00,0.87,-68.97,16.23,21.19
22478,-8.78,0.71,3.63,-1.58,-0.02,0.63,-67.69,15.49,21.65
22489,-8.78,0.71,3.63,-1.58,-0.02,0.63,-67.69,15.49,21.65
22500,-8.65,1.12,5.42,-0.86,-0.07,0.44,-67.69,15.49,21.65
22512,-8.65,1.12,5.42,-0.86,-0.07,0.44,-67.69,15.49,21.65
22522,-8.41,-1.19,5.51,-0.16,-0.03,0.02,-67.69,15.49,21.65
22533,-8.41,-1.19,5.51,-0.16,-0.03,0.02,-67.69,15.49,21.65
22544,-8.95,2.06,5.05,0.47,0.09,0.06,-67.69,15.49,21.65
22555,-8.95,2.06,5.05,0.47,0.09,0.06,-67.69,15.49,21.65
22566,-9.00,2.09,4.87,0.49,0.15,-0.24,-67.69,15.49,21.65
22577,-9.00,2.09,4.87,0.49,0.15,-0.24,-67.69,15.49,21.65
22588,-8.48,0.81,3.57,0.14,0.19,-0.31,-67.69,15.49,21.65
22599,-9.14,0.95,4.88,-0.04,0.11,-0.09,-67.69,16.67,22.27
22610,-9.14,0.95,4.88,-0.04,0.11,-0.09,-67.69,16.67,22.27
22621,-8.59,0.44,3.77,-0.19,0.18,0.06,-67.69,16.67,22.27
22632,-8.59,0.44,3.77,-0.19,0.18,0.06,-67.69,16.67,22.27
22643,-8.66,0.84,4.19,-0.13,0.11,0.29,-67.69,16.67,22.27
22654,-8.66,0.84,4.19,-0.13,0.11,0.29,-67.69,16.67,22.27
22665,-8.38,0.85,4.74,-0.21,0.04,0.36,-67.69,16.67,22.27
22676,-8.38,0.85,4.74,-0.21,0.04,0.36,-67.69,16.67,22.27
22687,-8.12,-0.55,5.21,-0.10,-0.01,0.38,-67.69,16.67,22.27
22698,-8.09,0.18,4.74,0.13,-0.02,0.62,-67.69,16.67,22.27
22709,-8.09,0.18,4.74,0.13,-0.02,0.62,-67.69,16.67,22.27
22720,-9.08,2.56,3.94,0.51,-0.06,0.65,-66.66,19.03,21.65
22731,-9.08,2.56,3.94,0.51,-0.06,0.65,-66.66,19.03,21.65
22742,-9.80,4.15,3.57,0.59,-0.09,0.22,-66.66,19.03,21.65
22753,-9.80,4.15,3.57,0.59,-0.09,0.22,-66.66,19.03,21.65
22764,-9.88,3.20,4.26,0.15,-0.12,-0.35,-66.66,19.03,21.65
22775,-9.88,3.20,4.26,0.15,-0.12,-0.35,-66.66,19.03,21.65
22786,-8.96,1.13,4.89,-0.53,-0.03,-0.73,-66.66,19.03,21.65
22797,-8.96,1.13,4.89,-0.53,-0.03,-0.73,-66.66,19.03,21.65
22808,-8.87,-0.58,3.38,-0.63,0.06,-0.54,-66.66,19.03,21.65
22819,-7.15,0.28,5.61,-0.52,-0.20,0.01,-66.66,19.03,21.65
22830,-7.15,0.28,5.61,-0.52,-0.20,0.01,-66.66,19.03,21.65
22841,-7.64,1.26,4.72,-0.19,0.07,0.24,-66.66,19.03,21.65
22852,-7.64,1.26,4.72,-0.19,0.07,0.24,-66.66,19.03,21.65
22863,-10.17,0.60,4.63,-0.01,0.14,0.17,-66.92,17.11,21.19
22874,-10.17,0.60,4.63,-0.01,0.14,0.17,-66.92,17.11,21.19
22885,-9.29,1.39,4.48,-0.29,0.03,0.17,-66.92,17.11,21.19
22896,-9.29,1.39,4.48,-0.29,0.03,0.17,-66.92,17.11,21.19
22907,-9.01,1.10,4.02,-0.61,0.10,0.18,-66.92,17.11,21.19
22918,-9.16,1.84,4.20,-0.59,0.13,0.17,-66.92,17.11,21.19
22929,-9.16,1.84,4.20,-0.59,0.13,0.17,-66.92,17.11,21.19
22940,-8.92,1.26,3.89,-0.56,0.15,0.01,-66.92,17.11,21.19
22951,-8.92,1.26,3.89,-0.56,0.15,0.01,-66.92,17.11,21.19
22962,-8.96,0.91,5.01,-0.28,0.07,-0.16,-66.92,17.11,21.19
22973,-8.96,0.91,5.01,-0.28,0.07,-0.16,-66.92,17.11,21.19
22984,-8.56,-0.18,4.70,0.09,0.10,-0.32,-67.43,16.23,23.05
22995,-8.56,-0.18,4.70,0.09,0.10,-0.32,-67.43,16.23,23.05
23006,-8.67,1.45,4.91,0.51,0.14,-0.30,-67.43,16.23,23.05
23017,-8.67,1.45,4.91,0.51,0.14,-0.30,-67.43,16.23,23.05
23028,-8.74,0.94,3.46,0.60,0.19,-0.42,-67.43,16.23,23.05
23039,-9.00,2.18,4.04,0.25,0.10,-0.33,-67.43,16.23,23.05
23050,-9.00,2.18,4.04,0.25,0.10,-0.33,-67.43,16.23,23.05
23061,-8.88,0.30,3.69,-0.22,-0.01,-0.34,-67.43,16.23,23.05
23072,-8.88,0.30,3.69,-0.22,-0.01,-0.34,-67.43,16.23,23.05
23083,-8.70,-1.48,4.38,-0.41,-0.08,-0.01,-67.43,16.23,23.05
23094,-8.70,-1.48,4.38,-0.41,-0.08,-0.01,-67.43,16.23,23.05
23105,-10.48,0.20,3.77,-0.30,-0.08,0.54,-67.43,15.34,23.05
23116,-10.48,0.20,3.77,-0.30,-0.08,0.54,-67.43,15.34,23.05
23127,-7.78,2.02,5.16,-0.36,-0.35,0.63,-67.43,15.34,23.05
23138,-8.20,2.47,4.74,-0.31,-0.15,0.29,-67.43,15.34,23.05
23149,-8.20,2.47,4.74,-0.31,-0.15,0.29,-67.43,15.34,23.05
23160,-7.55,0.62,5.17,-0.22,-0.08,-0.12,-67.43,15.34,23.05
23171,-7.55,0.62,5.17,-0.22,-0.08,-0.12,-67.43,15.34,23.05
23182,-8.35,0.96,4.98,-0.06,0.13,-0.09,-67.43,15.34,23.05
23193,-8.35,0.96,4.98,-0.06,0.13,-0.09,-67.43,15.34,23.05
23209,-9.72,0.72,4.31,-0.06,0.28,-0.03,-67.43,15.34,23.05
23215,-9.72,0.72,4.31,-0.06,0.28,-0.03,-67.43,15.34,23.05
23226,-8.92,0.82,3.96,-0.29,0.06,-0.01,-67.43,15.34,23.05
23237,-8.92,0.82,3.96,-0.29,0.06,-0.01,-67.43,15.34,23.05
23248,-8.92,0.78,4.68,-0.27,-0.06,-0.04,-68.46,15.93,22.43
23259,-8.61,-0.73,4.45,-0.06,-0.06,-0.09,-68.46,15.93,22.43
23270,-8.61,-0.73,4.45,-0.06,-0.06,-0.09,-68.46,15.93,22.43
23281,-8.80,0.61,4.71,0.42,-0.06,0.05,-68.46,15.93,22.43
23292,-8.80,0.61,4.71,0.42,-0.06,0.05,-68.46,15.93,22.43
23303,-9.35,1.91,4.98,0.64,-0.04,-0.06,-68.46,15.93,22.43
