time,ax,ay,az,gx,gy,gz,mx,my,mz
401,-0.46,6.34,-8.06,0.06,0.03,0.02,-39.61,22.56,-19.00
411,-0.41,6.30,-8.11,0.03,0.02,0.00,-39.61,22.56,-19.00
422,-0.41,6.30,-8.11,0.03,0.02,0.00,-39.61,22.56,-19.00
433,-0.55,6.43,-7.96,-0.06,-0.04,-0.04,-38.42,22.40,-18.55
444,-0.44,6.33,-8.09,0.05,0.03,0.01,-38.42,22.40,-18.55
455,-0.44,6.33,-8.09,0.05,0.03,0.01,-38.42,22.40,-18.55
466,-0.49,6.39,-8.01,-0.02,-0.01,-0.02,-38.42,22.40,-18.55
477,-0.49,6.39,-8.01,-0.02,-0.01,-0.02,-38.42,22.40,-18.55
488,-0.49,6.39,-8.02,-0.00,-0.00,-0.01,-38.42,22.40,-18.55
499,-0.49,6.39,-8.02,-0.00,-0.00,-0.01,-38.42,22.40,-18.55
510,-0.45,6.35,-8.05,0.02,0.01,-0.00,-38.42,22.40,-18.55
521,-0.45,6.35,-8.05,0.02,0.01,-0.00,-38.42,22.40,-18.55
532,-0.50,6.39,-8.00,-0.01,-0.01,-0.02,-38.42,22.40,-18.55
543,-0.50,6.39,-8.00,-0.01,-0.01,-0.02,-38.42,22.40,-18.55
554,-0.48,6.36,-8.04,0.01,0.01,-0.00,-38.42,22.40,-18.55
565,-0.49,6.39,-8.04,-0.01,-0.00,-0.01,-38.66,22.56,-19.30
576,-0.49,6.39,-8.04,-0.01,-0.00,-0.01,-38.66,22.56,-19.30
587,-0.46,6.37,-8.05,0.00,0.00,-0.01,-38.66,22.56,-19.30
598,-0.46,6.37,-8.05,0.00,0.00,-0.01,-38.66,22.56,-19.30
609,-0.47,6.36,-8.04,0.00,0.00,-0.01,-38.66,22.56,-19.30
620,-0.47,6.36,-8.04,0.00,0.00,-0.01,-38.66,22.56,-19.30
631,-0.49,6.39,-8.02,-0.00,-0.00,-0.01,-38.66,22.56,-19.30
642,-0.49,6.39,-8.02,-0.00,-0.00,-0.01,-38.66,22.56,-19.30
653,-0.49,6.38,-8.03,0.00,0.00,-0.01,-38.66,22.56,-19.30
664,-0.48,6.37,-8.04,-0.00,0.00,-0.01,-38.66,22.56,-19.30
675,-0.48,6.37,-8.04,-0.00,0.00,-0.01,-38.66,22.56,-19.30
687,-0.46,6.36,-8.04,0.00,0.00,-0.01,-38.42,23.04,-17.96
697,-0.46,6.36,-8.04,0.00,0.00,-0.01,-38.42,23.04,-17.96
708,-0.47,6.38,-8.03,0.00,0.00,-0.01,-38.42,23.04,-17.96
719,-0.47,6.38,-8.03,0.00,0.00,-0.01,-38.42,23.04,-17.96
730,-0.47,6.38,-8.03,-0.00,0.00,-0.01,-38.42,23.04,-17.96
741,-0.47,6.38,-8.03,-0.00,0.00,-0.01,-38.42,23.04,-17.96
752,-0.50,6.36,-8.05,0.00,0.00,-0.01,-38.42,23.04,-17.96
763,-0.50,6.36,-8.05,0.00,0.00,-0.01,-38.42,23.04,-17.96
774,-0.48,6.36,-8.01,-0.00,0.00,-0.01,-38.42,23.04,-17.96
785,-0.47,6.38,-8.02,0.00,0.00,-0.01,-38.42,23.04,-17.96
796,-0.47,6.38,-8.02,0.00,0.00,-0.01,-38.42,23.04,-17.96
807,-0.48,6.37,-8.04,0.00,0.00,-0.01,-37.70,22.24,-19.00
818,-0.48,6.37,-8.04,0.00,0.00,-0.01,-37.70,22.24,-19.00
829,-0.47,6.37,-8.06,-0.00,0.00,-0.01,-37.70,22.24,-19.00
840,-0.47,6.37,-8.06,-0.00,0.00,-0.01,-37.70,22.24,-19.00
851,-0.48,6.37,-8.03,-0.00,0.00,-0.01,-37.70,22.24,-19.00
862,-0.48,6.37,-8.03,-0.00,0.00,-0.01,-37.70,22.24,-19.00
873,-0.48,6.37,-8.03,-0.00,0.00,-0.01,-37.70,22.24,-19.00
884,-0.48,6.38,-8.03,-0.00,0.00,-0.01,-37.70,22.24,-19.00
895,-0.48,6.38,-8.03,-0.00,0.00,-0.01,-37.70,22.24,-19.00
906,-0.46,6.38,-8.04,0.00,0.00,-0.01,-37.70,22.24,-19.00
917,-0.46,6.38,-8.04,0.00,0.00,-0.01,-37.70,22.24,-19.00
928,-0.47,6.38,-8.04,0.00,0.00,-0.01,-37.70,22.24,-19.00
939,-0.47,6.38,-8.04,0.00,0.00,-0.01,-37.70,22.24,-19.00
950,-0.46,6.38,-8.08,-0.00,0.00,-0.01,-39.13,22.24,-19.59
961,-0.46,6.38,-8.08,-0.00,0.00,-0.01,-39.13,22.24,-19.59
972,-0.47,6.37,-8.04,-0.00,-0.00,-0.01,-39.13,22.24,-19.59
983,-0.47,6.37,-8.04,-0.00,-0.00,-0.01,-39.13,22.24,-19.59
998,-0.49,6.37,-8.04,0.00,-0.00,-0.01,-39.13,22.24,-19.59
1005,-0.48,6.38,-8.04,0.00,0.00,-0.01,-39.13,22.24,-19.59
1016,-0.48,6.38,-8.04,0.00,0.00,-0.01,-39.13,22.24,-19.59
1027,-0.48,6.36,-8.04,0.00,0.00,-0.01,-39.13,22.24,-19.59
1038,-0.48,6.36,-8.04,0.00,0.00,-0.01,-39.13,22.24,-19.59
1050,-0.49,6.39,-8.05,-0.00,0.00,-0.01,-39.13,22.24,-19.59
1060,-0.49,6.39,-8.05,-0.00,0.00,-0.01,-39.13,22.24,-19.59
1071,-0.48,6.38,-8.06,0.00,0.00,-0.01,-38.66,23.85,-19.89
1082,-0.48,6.38,-8.06,0.00,0.00,-0.01,-38.66,23.85,-19.89
1093,-0.45,6.37,-8.07,0.00,0.00,-0.01,-38.66,23.85,-19.89
1104,-0.46,6.36,-8.04,-0.00,0.00,-0.01,-38.66,23.85,-19.89
1115,-0.46,6.36,-8.04,-0.00,0.00,-0.01,-38.66,23.85,-19.89
1126,-0.47,6.37,-8.07,0.00,0.00,-0.01,-38.66,23.85,-19.89
1137,-0.47,6.37,-8.07,0.00,0.00,-0.01,-38.66,23.85,-19.89
1148,-0.49,6.36,-8.03,-0.00,0.00,-0.01,-38.66,23.85,-19.89
1159,-0.49,6.36,-8.03,-0.00,0.00,-0.01,-38.66,23.85,-19.89
1170,-0.48,6.36,-8.05,-0.00,0.00,-0.01,-38.66,23.85,-19.89
1181,-0.48,6.36,-8.05,-0.00,0.00,-0.01,-38.66,23.85,-19.89
1192,-0.49,6.36,-8.06,-0.00,0.00,-0.01,-39.13,22.24,-19.59
1203,-0.49,6.36,-8.06,-0.00,0.00,-0.01,-39.13,22.24,-19.59
1214,-0.46,6.36,-8.05,0.00,0.00,-0.01,-39.13,22.24,-19.59
1225,-0.48,6.37,-8.05,-0.00,0.00,-0.01,-39.13,22.24,-19.59
1236,-0.48,6.37,-8.05,-0.00,0.00,-0.01,-39.13,22.24,-19.59
1247,-0.48,6.37,-8.03,-0.00,-0.00,-0.01,-39.13,22.24,-19.59
1258,-0.48,6.37,-8.03,-0.00,-0.00,-0.01,-39.13,22.24,-19.59
1269,-0.47,6.37,-8.04,0.00,0.00,-0.01,-39.13,22.24,-19.59
1280,-0.47,6.37,-8.04,0.00,0.00,-0.01,-39.13,22.24,-19.59
1291,-0.46,6.38,-8.03,-0.00,0.00,-0.01,-39.13,22.24,-19.59
1302,-0.46,6.38,-8.03,-0.00,0.00,-0.01,-39.13,22.24,-19.59
1313,-0.47,6.38,-8.03,-0.00,0.00,-0.01,-37.70,23.21,-19.89
1324,-0.48,6.36,-8.05,-0.00,0.00,-0.01,-37.70,23.21,-19.89
1335,-0.48,6.36,-8.05,-0.00,0.00,-0.01,-37.70,23.21,-19.89
1346,-0.47,6.37,-8.06,0.00,0.00,-0.01,-37.70,23.21,-19.89
1357,-0.47,6.37,-8.06,0.00,0.00,-0.01,-37.70,23.21,-19.89
1368,-0.47,6.37,-8.06,-0.00,0.00,-0.01,-37.70,23.21,-19.89
1379,-0.47,6.37,-8.06,-0.00,0.00,-0.01,-37.70,23.21,-19.89
1390,-0.47,6.35,-8.06,-0.00,0.00,-0.01,-37.70,23.21,-19.89
1401,-0.47,6.35,-8.06,-0.00,0.00,-0.01,-37.70,23.21,-19.89
1412,-0.47,6.37,-8.06,-0.00,0.00,-0.01,-37.70,23.21,-19.89
1423,-0.47,6.37,-8.06,-0.00,0.00,-0.01,-37.70,23.21,-19.89
1434,-0.48,6.39,-8.05,-0.00,0.00,-0.01,-37.70,23.21,-19.89
1445,-0.48,6.37,-8.09,0.00,0.00,-0.01,-39.37,22.72,-18.85
1456,-0.48,6.37,-8.09,0.00,0.00,-0.01,-39.37,22.72,-18.85
1467,-0.48,6.36,-8.06,0.00,0.00,-0.01,-39.37,22.72,-18.85
1478,-0.48,6.36,-8.06,0.00,0.00,-0.01,-39.37,22.72,-18.85
1489,-0.47,6.37,-8.04,-0.00,-0.00,-0.01,-39.37,22.72,-18.85
1500,-0.47,6.37,-8.04,-0.00,-0.00,-0.01,-39.37,22.72,-18.85
1511,-0.49,6.38,-8.03,0.00,0.00,-0.01,-39.37,22.72,-18.85
1522,-0.49,6.38,-8.03,0.00,0.00,-0.01,-39.37,22.72,-18.85
1533,-0.49,6.38,-8.04,-0.00,0.00,-0.01,-39.37,22.72,-18.85
1544,-0.49,6.38,-8.04,-0.00,0.00,-0.01,-39.37,22.72,-18.85
1555,-0.48,6.36,-8.04,0.00,0.00,-0.01,-39.37,22.72,-18.85
1566,-0.46,6.37,-8.07,-0.00,0.00,-0.01,-39.13,22.88,-20.19
1577,-0.46,6.37,-8.07,-0.00,0.00,-0.01,-39.13,22.88,-20.19
1588,-0.47,6.38,-8.02,-0.00,0.00,-0.01,-39.13,22.88,-20.19
1599,-0.47,6.38,-8.02,-0.00,0.00,-0.01,-39.13,22.88,-20.19
1610,-0.48,6.39,-8.05,-0.00,0.00,-0.01,-39.13,22.88,-20.19
1621,-0.48,6.39,-8.05,-0.00,0.00,-0.01,-39.13,22.88,-20.19
1632,-0.48,6.37,-8.03,-0.00,0.00,-0.01,-39.13,22.88,-20.19
1643,-0.48,6.37,-8.03,-0.00,0.00,-0.01,-39.13,22.88,-20.19
1654,-0.48,6.36,-8.05,0.00,0.00,-0.01,-39.13,22.88,-20.19
1665,-0.46,6.36,-8.06,0.00,0.00,-0.01,-39.13,22.88,-20.19
1676,-0.46,6.36,-8.06,0.00,0.00,-0.01,-39.13,22.88,-20.19
1687,-0.49,6.37,-8.04,-0.00,0.00,-0.01,-39.37,23.04,-18.85
1698,-0.49,6.37,-8.04,-0.00,0.00,-0.01,-39.37,23.04,-18.85
1709,-0.47,6.37,-8.03,-0.00,0.00,-0.01,-39.37,23.04,-18.85
1720,-0.47,6.37,-8.03,-0.00,0.00,-0.01,-39.37,23.04,-18.85
1731,-0.47,6.37,-8.06,-0.00,0.00,-0.01,-39.37,23.04,-18.85
1742,-0.47,6.37,-8.06,-0.00,0.00,-0.01,-39.37,23.04,-18.85
1753,-0.47,6.36,-8.04,-0.00,0.00,-0.01,-39.37,23.04,-18.85
1764,-0.47,6.36,-8.04,-0.00,0.00,-0.01,-39.37,23.04,-18.85
1775,-0.47,6.37,-8.05,-0.00,0.00,-0.01,-39.37,23.04,-18.85
1786,-0.47,6.37,-8.03,0.00,-0.00,-0.01,-39.37,23.04,-18.85
1797,-0.47,6.37,-8.03,0.00,-0.00,-0.01,-39.37,23.04,-18.85
1808,-0.47,6.37,-8.04,-0.00,0.00,-0.01,-39.37,23.04,-18.85
1819,-0.47,6.37,-8.04,-0.00,0.00,-0.01,-39.37,23.04,-18.85
1830,-0.47,6.37,-8.05,-0.00,0.00,-0.01,-37.70,23.53,-18.70
1841,-0.47,6.37,-8.05,-0.00,0.00,-0.01,-37.70,23.53,-18.70
1852,-0.47,6.36,-8.04,-0.00,0.00,-0.01,-37.70,23.53,-18.70
1863,-0.47,6.36,-8.04,-0.00,0.00,-0.01,-37.70,23.53,-18.70
1874,-0.46,6.37,-8.04,0.00,0.00,-0.01,-37.70,23.53,-18.70
1885,-0.48,6.36,-8.06,-0.00,0.00,-0.01,-37.70,23.53,-18.70
1896,-0.48,6.36,-8.06,-0.00,0.00,-0.01,-37.70,23.53,-18.70
1907,-0.48,6.36,-8.04,-0.00,0.00,-0.01,-37.70,23.53,-18.70
1918,-0.48,6.36,-8.04,-0.00,0.00,-0.01,-37.70,23.53,-18.70
1929,-0.46,6.38,-8.03,-0.00,0.00,-0.01,-37.70,23.53,-18.70
1940,-0.46,6.38,-8.03,-0.00,0.00,-0.01,-37.70,23.53,-18.70
1951,-0.48,6.38,-8.07,-0.00,0.00,-0.01,-38.66,23.21,-19.89
1962,-0.48,6.38,-8.07,-0.00,0.00,-0.01,-38.66,23.21,-19.89
1973,-0.48,6.37,-8.06,0.00,0.00,-0.01,-38.66,23.21,-19.89
1989,-0.48,6.37,-8.06,0.00,0.00,-0.01,-38.66,23.21,-19.89
1995,-0.48,6.38,-8.04,-0.00,-0.00,-0.01,-38.66,23.21,-19.89
2006,-0.48,6.39,-8.04,-0.00,0.00,-0.01,-38.66,23.21,-19.89
2017,-0.48,6.39,-8.04,-0.00,0.00,-0.01,-38.66,23.21,-19.89
2028,-0.47,6.37,-8.03,-0.00,0.00,-0.01,-38.66,23.21,-19.89
2039,-0.47,6.37,-8.03,-0.00,0.00,-0.01,-38.66,23.21,-19.89
2050,-0.46,6.36,-8.04,-0.00,-0.00,-0.01,-38.66,23.21,-19.89
2061,-0.46,6.36,-8.04,-0.00,-0.00,-0.01,-38.66,23.21,-19.89
2072,-0.46,6.37,-8.04,-0.00,0.00,-0.01,-39.37,22.40,-20.04
2083,-0.46,6.37,-8.04,-0.00,0.00,-0.01,-39.37,22.40,-20.04
2094,-0.46,6.38,-8.05,-0.00,0.00,-0.01,-39.37,22.40,-20.04
2106,-0.47,6.37,-8.04,-0.00,0.00,-0.01,-39.37,22.40,-20.04
2116,-0.47,6.37,-8.04,-0.00,0.00,-0.01,-39.37,22.40,-20.04
2127,-0.46,6.35,-8.06,-0.00,0.00,-0.01,-39.37,22.40,-20.04
2138,-0.46,6.35,-8.06,-0.00,0.00,-0.01,-39.37,22.40,-20.04
2149,-0.48,6.36,-8.04,0.00,0.00,-0.01,-39.37,22.40,-20.04
2160,-0.48,6.36,-8.04,0.00,0.00,-0.01,-39.37,22.40,-20.04
2171,-0.49,6.36,-8.04,-0.00,0.00,-0.01,-39.37,22.40,-20.04
2182,-0.49,6.36,-8.04,-0.00,0.00,-0.01,-39.37,22.40,-20.04
2193,-0.48,6.36,-8.03,-0.00,-0.00,-0.01,-39.37,22.40,-20.04
2204,-0.48,6.36,-8.03,-0.00,-0.00,-0.01,-39.37,22.40,-20.04
2215,-0.48,6.37,-8.04,-0.00,0.00,-0.01,-38.18,22.88,-19.89
2226,-0.46,6.35,-8.06,-0.00,0.00,-0.01,-38.18,22.88,-19.89
2237,-0.46,6.35,-8.06,-0.00,0.00,-0.01,-38.18,22.88,-19.89
2248,-0.47,6.35,-8.05,-0.00,0.00,-0.01,-38.18,22.88,-19.89
2259,-0.47,6.35,-8.05,-0.00,0.00,-0.01,-38.18,22.88,-19.89
2270,-0.49,6.37,-8.06,-0.00,0.00,-0.01,-38.18,22.88,-19.89
2281,-0.49,6.37,-8.06,-0.00,0.00,-0.01,-38.18,22.88,-19.89
2292,-0.48,6.38,-8.07,-0.00,0.00,-0.01,-38.18,22.88,-19.89
2303,-0.48,6.38,-8.07,-0.00,0.00,-0.01,-38.18,22.88,-19.89
2314,-0.48,6.36,-8.05,0.00,0.00,-0.01,-38.18,22.88,-19.89
2325,-0.47,6.37,-8.08,-0.00,0.00,-0.01,-41.03,23.21,-19.89
2336,-0.47,6.37,-8.08,-0.00,0.00,-0.01,-41.03,23.21,-18.70
2347,-0.48,6.35,-8.06,-0.00,0.00,-0.01,-41.03,23.21,-18.70
2358,-0.48,6.35,-8.06,-0.00,0.00,-0.01,-41.03,23.21,-18.70
2369,-0.49,6.37,-8.03,-0.00,-0.00,-0.01,-41.03,23.21,-18.70
2380,-0.49,6.37,-8.03,-0.00,-0.00,-0.01,-41.03,23.21,-18.70
2391,-0.49,6.37,-8.05,-0.00,0.00,-0.01,-41.03,23.21,-18.70
2402,-0.49,6.37,-8.05,-0.00,0.00,-0.01,-41.03,23.21,-18.70
2413,-0.48,6.37,-8.05,-0.00,0.00,-0.01,-41.03,23.21,-18.70
2424,-0.48,6.37,-8.05,-0.00,0.00,-0.01,-41.03,23.21,-18.70
2435,-0.47,6.37,-8.05,-0.00,0.00,-0.01,-41.03,23.21,-18.70
2446,-0.47,6.38,-8.05,-0.00,0.00,-0.01,-38.66,22.88,-20.19
2457,-0.47,6.38,-8.05,-0.00,0.00,-0.01,-38.66,22.88,-20.19
2468,-0.47,6.36,-8.06,-0.00,0.00,-0.01,-38.66,22.88,-20.19
2479,-0.47,6.36,-8.06,-0.00,0.00,-0.01,-38.66,22.88,-20.19
2490,-0.47,6.36,-8.05,-0.00,0.00,-0.01,-38.66,22.88,-20.19
2501,-0.47,6.36,-8.05,-0.00,0.00,-0.01,-38.66,22.88,-20.19
2512,-0.48,6.36,-8.02,-0.00,0.00,-0.01,-38.66,22.88,-20.19
2523,-0.48,6.36,-8.02,-0.00,0.00,-0.01,-38.66,22.88,-20.19
2534,-0.48,6.36,-8.05,-0.00,0.00,-0.01,-38.66,22.88,-20.19
2545,-0.48,6.36,-8.05,-0.00,0.00,-0.01,-38.66,22.88,-20.19
2556,-0.46,6.34,-8.05,-0.00,-0.00,-0.01,-38.66,22.88,-20.19
2567,-0.47,6.37,-8.05,-0.00,0.00,-0.01,-38.66,23.21,-19.30
2578,-0.47,6.37,-8.05,-0.00,0.00,-0.01,-38.66,23.21,-19.30
2589,-0.47,6.37,-8.06,-0.00,0.00,-0.01,-38.66,23.21,-19.30
2600,-0.47,6.37,-8.06,-0.00,0.00,-0.01,-38.66,23.21,-19.30
2611,-0.48,6.35,-8.03,-0.00,0.00,-0.01,-38.66,23.21,-19.30
2622,-0.48,6.35,-8.03,-0.00,0.00,-0.01,-38.66,23.21,-19.30
2633,-0.47,6.36,-8.04,-0.00,0.00,-0.01,-38.66,23.21,-19.30
2644,-0.47,6.36,-8.04,-0.00,0.00,-0.01,-38.66,23.21,-19.30
2655,-0.47,6.37,-8.05,0.00,0.00,-0.01,-38.66,23.21,-19.30
2667,-0.47,6.36,-8.04,0.00,0.00,-0.01,-38.66,23.21,-19.30
2677,-0.47,6.36,-8.04,0.00,0.00,-0.01,-38.66,23.21,-19.30
2688,-0.47,6.37,-8.08,-0.00,0.00,-0.01,-38.66,23.21,-19.30
2699,-0.47,6.37,-8.08,-0.00,0.00,-0.01,-38.66,23.21,-19.30
2710,-0.47,6.37,-8.08,-0.00,0.00,-0.01,-40.32,22.72,-20.04
2721,-0.47,6.37,-8.08,-0.00,0.00,-0.01,-40.32,22.72,-20.04
2732,-0.47,6.37,-8.05,0.00,0.00,-0.01,-40.32,22.72,-20.04
2743,-0.47,6.37,-8.05,0.00,0.00,-0.01,-40.32,22.72,-20.04
2754,-0.48,6.37,-8.05,-0.00,0.00,-0.01,-40.32,22.72,-20.04
2765,-0.48,6.37,-8.05,-0.00,0.00,-0.01,-40.32,22.72,-20.04
2776,-0.48,6.37,-8.05,-0.00,0.00,-0.01,-40.32,22.72,-20.04
2787,-0.48,6.37,-8.05,-0.00,-0.00,-0.01,-40.32,22.72,-20.04
2798,-0.48,6.37,-8.05,-0.00,-0.00,-0.01,-40.32,22.72,-20.04
2809,-0.49,6.37,-8.06,-0.00,0.00,-0.01,-40.32,22.72,-20.04
2820,-0.49,6.37,-8.06,-0.00,0.00,-0.01,-40.32,22.72,-20.04
2831,-0.48,6.36,-8.08,-0.00,0.00,-0.01,-39.61,22.24,-19.00
2842,-0.48,6.36,-8.08,-0.00,0.00,-0.01,-39.61,22.24,-19.00
2853,-0.47,6.36,-8.05,0.00,0.00,-0.01,-39.61,22.24,-19.00
2864,-0.47,6.36,-8.05,0.00,0.00,-0.01,-39.61,22.24,-19.00
2875,-0.47,6.37,-8.05,-0.00,0.00,-0.01,-39.61,22.24,-19.00
2886,-0.48,6.37,-8.04,-0.00,0.00,-0.01,-39.61,22.24,-19.00
2897,-0.48,6.37,-8.04,-0.00,0.00,-0.01,-39.61,22.24,-19.00
2908,-0.47,6.34,-8.02,0.00,0.00,-0.01,-39.61,22.24,-19.00
2919,-0.47,6.34,-8.02,0.00,0.00,-0.01,-39.61,22.24,-19.00
2930,-0.48,6.36,-8.05,0.00,-0.00,-0.01,-39.61,22.24,-19.00
2941,-0.48,6.36,-8.05,0.00,-0.00,-0.01,-39.61,22.24,-19.00
2952,-0.48,6.36,-8.07,-0.00,0.00,-0.01,-37.94,23.69,-20.34
2963,-0.48,6.36,-8.07,-0.00,0.00,-0.01,-37.94,23.69,-20.34
2974,-0.46,6.35,-8.06,-0.00,0.00,-0.01,-37.94,23.69,-20.34
2985,-0.46,6.35,-8.06,-0.00,0.00,-0.01,-37.94,23.69,-20.34
2996,-0.46,6.37,-8.06,-0.00,0.00,-0.01,-37.94,23.69,-20.34
3007,-0.49,6.36,-8.03,-0.00,0.00,-0.01,-37.94,23.69,-20.34
3018,-0.49,6.36,-8.03,-0.00,0.00,-0.01,-37.94,23.69,-20.34
3029,-0.47,6.37,-8.04,-0.00,0.00,-0.01,-37.94,23.69,-20.34
3040,-0.47,6.37,-8.04,-0.00,0.00,-0.01,-37.94,23.69,-20.34
3051,-0.47,6.37,-8.06,0.00,0.00,-0.01,-37.94,23.69,-20.34
3062,-0.47,6.37,-8.06,0.00,0.00,-0.01,-37.94,23.69,-20.34
3073,-0.48,6.36,-8.08,-0.00,0.00,-0.01,-37.94,23.69,-20.34
3084,-0.48,6.36,-8.08,-0.00,0.00,-0.01,-37.94,23.69,-20.34
3095,-0.49,6.36,-8.06,-0.00,0.00,-0.01,-37.23,22.56,-20.19
3106,-0.48,6.36,-8.06,-0.00,0.00,-0.01,-37.23,22.56,-20.19
3117,-0.48,6.36,-8.06,-0.00,0.00,-0.01,-37.23,22.56,-20.19
3128,-0.48,6.37,-8.03,-0.00,0.00,-0.01,-37.23,22.56,-20.19
3139,-0.48,6.37,-8.03,-0.00,0.00,-0.01,-37.23,22.56,-20.19
3150,-0.47,6.36,-8.07,-0.00,0.00,-0.01,-37.23,22.56,-20.19
3162,-0.47,6.36,-8.07,-0.00,0.00,-0.01,-37.23,22.56,-20.19
3172,-0.47,6.35,-8.05,-0.00,0.00,-0.01,-37.23,22.56,-20.19
3183,-0.47,6.35,-8.05,-0.00,0.00,-0.01,-37.23,22.56,-20.19
3194,-0.48,6.37,-8.03,-0.00,0.00,-0.01,-37.23,22.56,-20.19
3209,-0.48,6.37,-8.03,-0.00,0.00,-0.01,-37.23,22.56,-20.19
3216,-0.48,6.37,-8.07,-0.00,-0.00,-0.01,-40.56,22.56,-19.89
3227,-0.48,6.37,-8.05,-0.00,-0.00,-0.01,-40.56,22.56,-19.89
3238,-0.48,6.37,-8.05,-0.00,-0.00,-0.01,-40.56,22.56,-19.89
3249,-0.46,6.38,-8.05,-0.00,0.00,-0.01,-40.56,22.56,-19.89
3260,-0.46,6.38,-8.05,-0.00,0.00,-0.01,-40.56,22.56,-19.89
3271,-0.47,6.36,-8.07,-0.00,0.00,-0.01,-40.56,22.56,-19.89
3282,-0.47,6.36,-8.07,-0.00,0.00,-0.01,-40.56,22.56,-19.89
3293,-0.46,6.37,-8.04,-0.00,0.00,-0.01,-40.56,22.56,-19.89
3304,-0.46,6.37,-8.04,-0.00,0.00,-0.01,-40.56,22.56,-19.89
3315,-0.48,6.37,-8.05,-0.00,0.00,-0.01,-40.56,22.56,-19.89
3326,-0.47,6.36,-8.04,-0.00,0.00,-0.01,-39.61,22.56,-19.89
3337,-0.47,6.36,-8.04,-0.00,0.00,-0.01,-39.61,23.53,-18.11
3348,-0.47,6.36,-8.07,-0.00,0.00,-0.01,-39.61,23.53,-18.11
3359,-0.47,6.36,-8.07,-0.00,0.00,-0.01,-39.61,23.53,-18.11
3370,-0.47,6.35,-8.05,-0.00,0.00,-0.01,-39.61,23.53,-18.11
3381,-0.47,6.35,-8.05,-0.00,0.00,-0.01,-39.61,23.53,-18.11
3392,-0.48,6.36,-8.06,-0.00,0.00,-0.01,-39.61,23.53,-18.11
3403,-0.48,6.36,-8.06,-0.00,0.00,-0.01,-39.61,23.53,-18.11
3414,-0.47,6.37,-8.06,-0.00,0.00,-0.01,-39.61,23.53,-18.11
3425,-0.47,6.37,-8.06,-0.00,0.00,-0.01,-39.61,23.53,-18.11
3436,-0.46,6.36,-8.05,-0.00,-0.00,-0.01,-39.61,23.53,-18.11
3447,-0.47,6.35,-8.03,-0.00,0.00,-0.01,-39.61,23.53,-18.11
3458,-0.47,6.35,-8.03,-0.00,0.00,-0.01,-39.61,23.53,-18.11
3469,-0.47,6.37,-8.04,-0.00,0.00,-0.01,-39.13,22.88,-20.49
3480,-0.47,6.37,-8.04,-0.00,0.00,-0.01,-39.13,22.88,-20.49
3491,-0.47,6.36,-8.05,-0.00,0.00,-0.01,-39.13,22.88,-20.49
3502,-0.47,6.36,-8.05,-0.00,0.00,-0.01,-39.13,22.88,-20.49
3513,-0.46,6.37,-8.03,-0.00,0.00,-0.01,-39.13,22.88,-20.49
3524,-0.46,6.37,-8.03,-0.00,0.00,-0.01,-39.13,22.88,-20.49
3535,-0.47,6.36,-8.06,-0.00,0.00,-0.01,-39.13,22.88,-20.49
3546,-0.47,6.36,-8.06,-0.00,0.00,-0.01,-39.13,22.88,-20.49
3557,-0.47,6.35,-8.06,-0.00,0.00,-0.01,-39.13,22.88,-20.49
3568,-0.47,6.37,-8.01,-0.00,0.00,-0.01,-39.13,22.88,-20.49
3579,-0.47,6.37,-8.01,-0.00,0.00,-0.01,-39.13,22.88,-20.49
3590,-0.47,6.35,-8.07,-0.00,0.00,-0.01,-39.13,23.53,-20.78
3601,-0.47,6.35,-8.07,-0.00,0.00,-0.01,-39.13,23.53,-20.78
3612,-0.47,6.36,-8.05,-0.00,0.00,-0.01,-39.13,23.53,-20.78
3623,-0.47,6.36,-8.05,-0.00,0.00,-0.01,-39.13,23.53,-20.78
3634,-0.47,6.37,-8.06,-0.00,0.00,-0.01,-39.13,23.53,-20.78
3645,-0.47,6.37,-8.06,-0.00,0.00,-0.01,-39.13,23.53,-20.78
3656,-0.47,6.36,-8.07,-0.00,-0.00,-0.01,-39.13,23.53,-20.78
3667,-0.48,6.36,-8.05,0.00,0.00,-0.01,-39.13,23.53,-20.78
3678,-0.48,6.36,-8.05,0.00,0.00,-0.01,-39.13,23.53,-20.78
3689,-0.48,6.36,-8.02,-0.00,0.00,-0.01,-39.13,23.53,-20.78
3700,-0.48,6.36,-8.02,-0.00,0.00,-0.01,-39.13,23.53,-20.78
3711,-0.47,6.37,-8.08,-0.00,-0.00,-0.01,-39.13,22.88,-19.00
3722,-0.47,6.37,-8.08,-0.00,-0.00,-0.01,-39.13,22.88,-19.00
3733,-0.45,6.36,-8.04,-0.00,-0.00,-0.01,-39.13,22.88,-19.00
3744,-0.45,6.36,-8.04,-0.00,-0.00,-0.01,-39.13,22.88,-19.00
3755,-0.46,6.36,-8.06,-0.00,0.00,-0.01,-39.13,22.88,-19.00
3766,-0.46,6.36,-8.06,-0.00,0.00,-0.01,-39.13,22.88,-19.00
3777,-0.47,6.36,-8.07,-0.00,0.00,-0.01,-39.13,22.88,-19.00
3788,-0.49,6.36,-8.04,-0.00,-0.00,-0.01,-39.13,22.88,-19.00
3799,-0.49,6.36,-8.04,-0.00,-0.00,-0.01,-39.13,22.88,-19.00
3810,-0.48,6.36,-8.07,-0.00,0.00,-0.01,-39.13,22.88,-19.00
3821,-0.48,6.36,-8.07,-0.00,0.00,-0.01,-39.13,22.88,-19.00
3832,-0.47,6.37,-8.07,0.00,0.00,-0.01,-39.37,22.40,-19.15
3843,-0.47,6.37,-8.07,0.00,0.00,-0.01,-39.37,22.40,-19.15
3854,-0.47,6.36,-8.06,0.00,0.00,-0.01,-39.37,22.40,-19.15
3865,-0.47,6.36,-8.06,0.00,0.00,-0.01,-39.37,22.40,-19.15
3876,-0.48,6.37,-8.06,-0.00,0.00,-0.01,-39.37,22.40,-19.15
3887,-0.47,6.37,-8.05,-0.00,0.00,-0.01,-39.37,22.40,-19.15
3898,-0.47,6.37,-8.05,-0.00,0.00,-0.01,-39.37,22.40,-19.15
3909,-0.48,6.36,-8.05,-0.00,0.00,-0.01,-39.37,22.40,-19.15
3920,-0.48,6.36,-8.05,-0.00,0.00,-0.01,-39.37,22.40,-19.15
3931,-0.47,6.37,-8.05,-0.00,0.00,-0.01,-39.37,22.40,-19.15
3942,-0.47,6.37,-8.05,-0.00,0.00,-0.01,-39.37,22.40,-19.15
3953,-0.47,6.35,-8.05,-0.00,0.00,-0.01,-39.37,22.40,-19.15
3964,-0.47,6.35,-8.05,-0.00,0.00,-0.01,-39.37,22.40,-19.15
3975,-0.48,6.38,-8.09,-0.00,0.00,-0.01,-38.18,21.91,-19.30
3986,-0.48,6.38,-8.09,-0.00,0.00,-0.01,-38.18,21.91,-19.30
3997,-0.48,6.36,-8.09,-0.00,0.00,-0.01,-38.18,21.91,-19.30
4008,-0.46,6.36,-8.06,-0.00,0.00,-0.01,-38.18,21.91,-19.30
4019,-0.46,6.36,-8.06,-0.00,0.00,-0.01,-38.18,21.91,-19.30
4030,-0.49,6.36,-8.04,-0.00,0.00,-0.01,-38.18,21.91,-19.30
4041,-0.49,6.36,-8.04,-0.00,0.00,-0.01,-38.18,21.91,-19.30
4052,-0.47,6.37,-8.05,-0.00,0.00,-0.01,-38.18,21.91,-19.30
4063,-0.47,6.37,-8.05,-0.00,0.00,-0.01,-38.18,21.91,-19.30
4075,-0.47,6.36,-8.05,-0.00,0.00,-0.01,-38.18,21.91,-19.30
4085,-0.47,6.36,-8.05,-0.00,0.00,-0.01,-38.18,21.91,-19.30
4101,-0.48,6.37,-8.07,-0.00,0.00,-0.01,-38.66,22.88,-19.30
4107,-0.47,6.37,-8.04,-0.00,0.00,-0.01,-38.66,22.88,-19.30
4118,-0.47,6.37,-8.04,-0.00,0.00,-0.01,-38.66,22.88,-19.30
4129,-0.48,6.37,-8.05,-0.00,0.00,-0.01,-38.66,22.88,-19.30
4140,-0.48,6.37,-8.05,-0.00,0.00,-0.01,-38.66,22.88,-19.30
4151,-0.47,6.36,-8.04,-0.00,0.00,-0.01,-38.66,22.88,-19.30
4162,-0.47,6.36,-8.04,-0.00,0.00,-0.01,-38.66,22.88,-19.30
4173,-0.47,6.35,-8.06,-0.00,0.00,-0.01,-38.66,22.88,-19.30
4184,-0.47,6.35,-8.06,-0.00,0.00,-0.01,-38.66,22.88,-19.30
4195,-0.47,6.36,-8.04,-0.00,0.00,-0.01,-38.66,22.88,-19.30
4206,-0.47,6.36,-8.04,-0.00,0.00,-0.01,-38.66,22.88,-19.30
4217,-0.47,6.36,-8.06,-0.00,0.00,-0.01,-38.89,23.37,-19.44
4228,-0.46,6.37,-8.04,-0.00,0.00,-0.01,-38.89,23.37,-19.44
4239,-0.46,6.37,-8.04,-0.00,0.00,-0.01,-38.89,23.37,-19.44
4250,-0.48,6.38,-8.06,-0.00,0.00,-0.01,-38.89,23.37,-19.44
4261,-0.48,6.38,-8.06,-0.00,0.00,-0.01,-38.89,23.37,-19.44
4272,-0.48,6.35,-8.08,-0.00,0.00,-0.01,-38.89,23.37,-19.44
4283,-0.48,6.35,-8.08,-0.00,0.00,-0.01,-38.89,23.37,-19.44
4294,-0.47,6.36,-8.05,-0.00,0.00,-0.01,-38.89,23.37,-19.44
4305,-0.47,6.36,-8.05,-0.00,0.00,-0.01,-38.89,23.37,-19.44
4316,-0.47,6.34,-8.04,-0.00,0.00,-0.01,-38.89,23.37,-19.44
4327,-0.47,6.37,-8.02,-0.00,0.00,-0.01,-38.89,23.37,-19.44
4338,-0.47,6.37,-8.02,-0.00,0.00,-0.01,-38.89,23.37,-19.44
4349,-0.47,6.37,-8.07,-0.00,-0.00,-0.01,-38.66,23.53,-18.40
4360,-0.47,6.37,-8.07,-0.00,-0.00,-0.01,-38.66,23.53,-18.40
4371,-0.47,6.37,-8.02,-0.00,0.00,-0.01,-38.66,23.53,-18.40
4382,-0.47,6.37,-8.02,-0.00,0.00,-0.01,-38.66,23.53,-18.40
4393,-0.47,6.36,-8.03,-0.00,0.00,-0.01,-38.66,23.53,-18.40
4404,-0.47,6.36,-8.03,-0.00,0.00,-0.01,-38.66,23.53,-18.40
4415,-0.47,6.36,-8.06,-0.00,0.00,-0.01,-38.66,23.53,-18.40
4426,-0.47,6.36,-8.06,-0.00,0.00,-0.01,-38.66,23.53,-18.40
4437,-0.47,6.36,-8.04,-0.00,0.00,-0.01,-38.66,23.53,-18.40
4448,-0.48,6.35,-8.01,-0.00,0.00,-0.01,-38.66,23.53,-18.40
4459,-0.48,6.35,-8.01,-0.00,0.00,-0.01,-38.66,23.53,-18.40
4470,-0.47,6.36,-8.07,-0.00,0.00,-0.01,-37.23,22.88,-19.00
4481,-0.47,6.36,-8.07,-0.00,0.00,-0.01,-37.23,22.88,-19.00
4492,-0.46,6.37,-8.05,0.00,0.00,-0.01,-37.23,22.88,-19.00
4503,-0.46,6.37,-8.05,0.00,0.00,-0.01,-37.23,22.88,-19.00
4514,-0.47,6.35,-8.04,-0.00,0.00,-0.01,-37.23,22.88,-19.00
4525,-0.47,6.35,-8.04,-0.00,0.00,-0.01,-37.23,22.88,-19.00
4536,-0.48,6.37,-8.03,-0.00,0.00,-0.01,-37.23,22.88,-19.00
4547,-0.48,6.37,-8.03,-0.00,0.00,-0.01,-37.23,22.88,-19.00
4558,-0.47,6.38,-8.04,-0.00,0.00,-0.01,-37.23,22.88,-19.00
4569,-0.47,6.37,-8.02,-0.00,0.00,-0.01,-37.23,22.88,-19.00
4580,-0.47,6.37,-8.02,-0.00,0.00,-0.01,-37.23,22.88,-19.00
4591,-0.47,6.37,-8.05,-0.00,0.00,-0.01,-39.13,21.91,-19.89
4602,-0.47,6.37,-8.05,-0.00,0.00,-0.01,-39.13,21.91,-19.89
4613,-0.47,6.35,-8.06,-0.00,-0.00,-0.01,-39.13,21.91,-19.89
4624,-0.47,6.35,-8.06,-0.00,-0.00,-0.01,-39.13,21.91,-19.89
4635,-0.48,6.37,-8.04,-0.00,-0.00,-0.01,-39.13,21.91,-19.89
4646,-0.48,6.37,-8.04,-0.00,-0.00,-0.01,-39.13,21.91,-19.89
4657,-0.48,6.36,-8.04,-0.00,-0.00,-0.01,-39.13,21.91,-19.89
4668,-0.47,6.37,-8.03,0.00,-0.00,-0.01,-39.13,21.91,-19.89
4679,-0.47,6.37,-8.03,0.00,-0.00,-0.01,-39.13,21.91,-19.89
4690,-0.46,6.34,-8.03,-0.00,-0.00,-0.01,-39.13,21.91,-19.89
4701,-0.46,6.34,-8.03,-0.00,-0.00,-0.01,-39.13,21.91,-19.89
4712,-0.46,6.35,-8.02,-0.00,-0.00,-0.01,-39.13,21.91,-19.89
4723,-0.46,6.35,-8.02,-0.00,-0.00,-0.01,-39.13,21.91,-19.89
4734,-0.48,6.36,-8.07,-0.00,0.00,-0.01,-39.61,24.17,-19.59
4745,-0.48,6.36,-8.07,-0.00,0.00,-0.01,-39.61,24.17,-19.59
4756,-0.47,6.36,-8.05,-0.00,-0.00,-0.01,-39.61,24.17,-19.59
4767,-0.47,6.36,-8.05,-0.00,-0.00,-0.01,-39.61,24.17,-19.59
4778,-0.45,6.36,-8.04,-0.00,0.00,-0.01,-39.61,24.17,-19.59
4789,-0.47,6.34,-8.05,-0.00,0.00,-0.01,-39.61,24.17,-19.59
4800,-0.47,6.34,-8.05,-0.00,0.00,-0.01,-39.61,24.17,-19.59
4811,-0.47,6.35,-8.06,-0.00,0.00,-0.01,-39.61,24.17,-19.59
4822,-0.47,6.35,-8.06,-0.00,0.00,-0.01,-39.61,24.17,-19.59
4833,-0.46,6.34,-8.05,-0.00,0.00,-0.01,-39.61,24.17,-19.59
4844,-0.46,6.34,-8.05,-0.00,0.00,-0.01,-39.61,24.17,-19.59
4855,-0.47,6.37,-8.05,-0.00,0.00,-0.01,-40.32,22.72,-20.04
4866,-0.47,6.37,-8.05,-0.00,0.00,-0.01,-40.32,22.72,-20.04
4877,-0.48,6.37,-8.05,-0.00,0.00,-0.01,-40.32,22.72,-20.04
4888,-0.46,6.36,-8.05,0.00,0.00,-0.01,-40.32,22.72,-20.04
4899,-0.46,6.36,-8.05,0.00,0.00,-0.01,-40.32,22.72,-20.04
4910,-0.46,6.34,-8.05,-0.00,0.00,-0.01,-40.32,22.72,-20.04
4921,-0.46,6.34,-8.05,-0.00,0.00,-0.01,-40.32,22.72,-20.04
4932,-0.48,6.35,-8.02,-0.00,0.00,-0.01,-40.32,22.72,-20.04
4943,-0.48,6.35,-8.02,-0.00,0.00,-0.01,-40.32,22.72,-20.04
4954,-0.48,6.37,-8.04,-0.00,0.00,-0.01,-40.32,22.72,-20.04
4966,-0.48,6.37,-8.04,-0.00,0.00,-0.01,-40.32,22.72,-20.04
4976,-0.46,6.37,-8.06,-0.00,0.00,-0.01,-38.89,22.40,-19.74
4987,-0.46,6.37,-8.06,-0.00,0.00,-0.01,-38.89,22.40,-19.74
4998,-0.47,6.37,-8.07,-0.00,-0.00,-0.01,-38.89,22.40,-19.74
5009,-0.48,6.36,-8.05,-0.00,0.00,-0.01,-38.89,22.40,-19.74
5020,-0.48,6.36,-8.05,-0.00,0.00,-0.01,-38.89,22.40,-19.74
5031,-0.48,6.36,-8.06,-0.00,0.00,-0.01,-38.89,22.40,-19.74
5042,-0.48,6.36,-8.06,-0.00,0.00,-0.01,-38.89,22.40,-19.74
5053,-0.47,6.37,-8.05,-0.00,-0.00,-0.01,-38.89,22.40,-19.74
5064,-0.47,6.37,-8.05,-0.00,-0.00,-0.01,-38.89,22.40,-19.74
5075,-0.46,6.37,-8.04,-0.00,-0.00,-0.01,-38.89,22.40,-19.74
5086,-0.46,6.37,-8.04,-0.00,-0.00,-0.01,-38.89,22.40,-19.74
5097,-0.46,6.36,-8.04,-0.00,0.00,-0.01,-39.37,23.04,-18.25
5108,-0.47,6.34,-8.09,0.00,0.00,-0.01,-39.37,23.04,-18.25
5119,-0.47,6.34,-8.09,0.00,0.00,-0.01,-39.37,23.04,-18.25
5130,-0.48,6.35,-8.07,-0.00,0.00,-0.01,-39.37,23.04,-18.25
5141,-0.48,6.35,-8.07,-0.00,0.00,-0.01,-39.37,23.04,-18.25
5152,-0.46,6.37,-8.05,-0.00,0.00,-0.01,-39.37,23.04,-18.25
5163,-0.46,6.37,-8.05,-0.00,0.00,-0.01,-39.37,23.04,-18.25
5174,-0.47,6.36,-8.05,-0.00,0.00,-0.01,-39.37,23.04,-18.25
5185,-0.47,6.36,-8.05,-0.00,0.00,-0.01,-39.37,23.04,-18.25
5196,-0.46,6.36,-8.04,-0.00,0.00,-0.01,-39.37,23.04,-18.25
5207,-0.46,6.36,-8.04,-0.00,0.00,-0.01,-39.37,23.04,-18.25
5218,-0.46,6.36,-8.06,-0.00,0.00,-0.01,-39.37,23.04,-18.25
5229,-0.47,6.35,-8.06,-0.00,0.00,-0.01,-38.89,22.72,-18.85
5240,-0.47,6.35,-8.06,-0.00,0.00,-0.01,-38.89,22.72,-18.85
5251,-0.47,6.36,-8.06,-0.00,0.00,-0.01,-38.89,22.72,-18.85
5262,-0.47,6.36,-8.06,-0.00,0.00,-0.01,-38.89,22.72,-18.85
5273,-0.47,6.37,-8.06,-0.00,0.00,-0.01,-38.89,22.72,-18.85
5284,-0.47,6.37,-8.06,-0.00,0.00,-0.01,-38.89,22.72,-18.85
5295,-0.47,6.36,-8.03,0.00,0.00,-0.01,-38.89,22.72,-18.85
5306,-0.47,6.36,-8.03,0.00,0.00,-0.01,-38.89,22.72,-18.85
5317,-0.48,6.35,-8.05,-0.00,-0.00,-0.01,-38.89,22.72,-18.85
5328,-0.47,6.36,-8.04,-0.00,0.00,-0.01,-38.89,22.72,-18.85
5339,-0.47,6.36,-8.04,-0.00,0.00,-0.01,-38.89,22.72,-18.85
5350,-0.46,6.37,-8.05,-0.00,0.00,-0.01,-38.42,22.40,-20.63
5366,-0.46,6.37,-8.05,-0.00,0.00,-0.01,-38.42,22.40,-20.63
5372,-0.45,6.36,-8.06,-0.00,0.00,-0.01,-38.42,22.40,-20.63
5383,-0.45,6.36,-8.06,-0.00,0.00,-0.01,-38.42,22.40,-20.63
5394,-0.46,6.35,-8.06,-0.00,0.00,-0.01,-38.42,22.40,-20.63
5405,-0.46,6.35,-8.06,-0.00,0.00,-0.01,-38.42,22.40,-20.63
5416,-0.47,6.36,-8.04,-0.00,-0.00,-0.01,-38.42,22.40,-20.63
5427,-0.47,6.36,-8.04,-0.00,-0.00,-0.01,-38.42,22.40,-20.63
5438,-0.47,6.35,-8.05,-0.00,0.00,-0.01,-38.42,22.40,-20.63
5449,-0.47,6.36,-8.04,-0.00,0.00,-0.01,-38.42,22.40,-20.63
5461,-0.47,6.36,-8.04,-0.00,0.00,-0.01,-38.42,22.40,-20.63
5471,-0.47,6.36,-8.05,0.00,0.00,-0.01,-39.13,22.88,-19.89
5482,-0.47,6.36,-8.05,0.00,0.00,-0.01,-39.13,22.88,-19.89
5493,-0.48,6.35,-8.09,-0.00,0.00,-0.01,-39.13,22.88,-19.89
5504,-0.48,6.35,-8.09,-0.00,0.00,-0.01,-39.13,22.88,-19.89
5515,-0.48,6.36,-8.07,-0.00,0.00,-0.01,-39.13,22.88,-19.89
5526,-0.48,6.36,-8.07,-0.00,0.00,-0.01,-39.13,22.88,-19.89
5537,-0.46,6.37,-8.07,-0.00,0.00,-0.01,-39.13,22.88,-19.89
5548,-0.46,6.37,-8.07,-0.00,0.00,-0.01,-39.13,22.88,-19.89
5559,-0.47,6.36,-8.05,-0.00,0.00,-0.01,-39.13,22.88,-19.89
5570,-0.46,6.39,-8.04,-0.00,0.00,-0.01,-39.13,22.88,-19.89
5581,-0.46,6.39,-8.04,-0.00,0.00,-0.01,-39.13,22.88,-19.89
5592,-0.46,6.35,-8.05,-0.00,0.00,-0.01,-39.13,22.88,-19.89
5603,-0.46,6.35,-8.05,-0.00,0.00,-0.01,-39.13,22.88,-19.89
5614,-0.47,6.36,-8.06,-0.00,-0.00,-0.01,-38.42,22.72,-19.74
5625,-0.47,6.36,-8.06,-0.00,-0.00,-0.01,-38.42,22.72,-19.74
5636,-0.47,6.36,-8.05,-0.00,0.00,-0.01,-38.42,22.72,-19.74
5647,-0.47,6.36,-8.05,-0.00,0.00,-0.01,-38.42,22.72,-19.74
5658,-0.45,6.36,-8.01,-0.00,0.00,-0.01,-38.42,22.72,-19.74
5669,-0.47,6.34,-8.06,-0.02,-0.02,-0.03,-38.42,22.72,-19.74
5680,-0.47,6.34,-8.06,-0.02,-0.02,-0.03,-38.42,22.72,-19.74
5691,-0.53,6.39,-8.04,-0.04,-0.03,-0.03,-38.42,22.72,-19.74
5702,-0.53,6.39,-8.04,-0.04,-0.03,-0.03,-38.42,22.72,-19.74
5713,-0.49,6.36,-8.06,-0.00,-0.00,-0.01,-38.42,22.72,-19.74
5724,-0.49,6.36,-8.06,-0.00,-0.00,-0.01,-38.42,22.72,-19.74
5740,-0.51,6.39,-8.05,-0.01,-0.01,-0.01,-36.99,23.37,-19.15
5746,-0.51,6.39,-8.05,-0.01,-0.01,-0.01,-36.99,23.37,-19.15
5757,-1.03,6.19,-8.16,-0.02,0.05,-0.06,-36.99,23.37,-19.15
5768,-1.03,6.19,-8.16,-0.02,0.05,-0.06,-36.99,23.37,-19.15
5779,-0.55,6.66,-7.75,-0.02,0.44,-0.56,-36.99,23.37,-19.15
5790,-0.38,6.45,-8.02,0.01,0.77,-0.91,-36.99,23.37,-19.15
5801,-0.38,6.45,-8.02,0.01,0.77,-0.91,-36.99,23.37,-19.15
5812,-0.30,6.43,-8.01,-0.02,0.78,-0.94,-36.99,23.37,-19.15
5823,-0.30,6.43,-8.01,-0.02,0.78,-0.94,-36.99,23.37,-19.15
5834,-0.32,6.28,-8.06,-0.02,0.63,-0.78,-36.99,23.37,-19.15
5845,-0.32,6.28,-8.06,-0.02,0.63,-0.78,-36.99,23.37,-19.15
5856,-0.06,5.72,-8.48,0.06,0.19,-0.19,-38.66,21.27,-19.89
5867,-0.06,5.72,-8.48,0.06,0.19,-0.19,-38.66,21.27,-19.89
5878,0.13,5.29,-8.96,0.12,-0.28,0.52,-38.66,21.27,-19.89
5889,0.29,4.48,-9.51,0.06,-0.71,0.89,-38.66,21.27,-19.89
5900,0.29,4.48,-9.51,0.06,-0.71,0.89,-38.66,21.27,-19.89
5911,0.77,4.36,-10.00,0.16,-1.17,1.49,-38.66,21.27,-19.89
5922,0.77,4.36,-10.00,0.16,-1.17,1.49,-38.66,21.27,-19.89
5933,-1.32,7.45,-6.71,0.21,-1.60,2.07,-38.66,21.27,-19.89
5944,-1.32,7.45,-6.71,0.21,-1.60,2.07,-38.66,21.27,-19.89
5955,-1.38,12.56,-6.03,0.26,-0.79,1.36,-38.66,21.27,-19.89
5966,-1.38,12.56,-6.03,0.26,-0.79,1.36,-38.66,21.27,-19.89
5977,-1.25,10.14,-8.05,2.65,0.22,0.02,-38.66,21.27,-19.89
5988,-1.25,10.14,-8.05,2.65,0.22,0.02,-38.66,21.27,-19.89
5999,-0.43,5.95,-8.79,4.83,0.74,-0.76,-36.75,21.91,-20.49
6010,0.58,3.86,-8.74,5.65,0.79,-0.71,-36.75,21.91,-20.49
6021,0.58,3.86,-8.74,5.65,0.79,-0.71,-36.75,21.91,-20.49
6032,0.93,2.88,-8.01,5.45,0.79,-0.38,-36.75,21.91,-20.49
6043,0.93,2.88,-8.01,5.45,0.79,-0.38,-36.75,21.91,-20.49
6054,0.54,2.01,-9.84,4.01,1.05,-0.16,-36.75,21.91,-20.49
6065,0.54,2.01,-9.84,4.01,1.05,-0.16,-36.75,21.91,-20.49
6076,1.22,0.52,-13.92,2.85,1.25,-0.05,-36.75,21.91,-20.49
6087,1.22,0.52,-13.92,2.85,1.25,-0.05,-36.75,21.91,-20.49
6098,2.55,2.12,-16.19,1.90,0.59,0.02,-36.75,21.91,-20.49
6109,2.88,4.90,-14.13,2.49,-0.67,-0.15,-32.95,6.75,-28.22
6120,2.88,4.90,-14.13,2.49,-0.67,-0.15,-32.95,6.75,-28.22
6131,1.44,3.75,-8.79,4.31,-1.52,-0.61,-32.95,6.75,-28.22
6142,1.44,3.75,-8.79,4.31,-1.52,-0.61,-32.95,6.75,-28.22
6153,-0.17,0.65,-7.04,5.15,-1.37,-0.99,-32.95,6.75,-28.22
6164,-0.17,0.65,-7.04,5.15,-1.37,-0.99,-32.95,6.75,-28.22
6175,-0.62,-3.47,-9.76,5.13,-0.77,-1.03,-32.95,6.75,-28.22
6186,-0.62,-3.47,-9.76,5.13,-0.77,-1.03,-32.95,6.75,-28.22
6197,1.45,-4.76,-11.85,4.86,-0.72,-0.51,-32.95,6.75,-28.22
6208,1.45,-4.76,-11.85,4.86,-0.72,-0.51,-32.95,6.75,-28.22
6219,0.41,-1.41,-10.15,4.11,-1.52,0.05,-32.95,6.75,-28.22
6230,-0.89,0.45,-10.06,3.43,-2.07,-0.23,-40.56,-16.49,-24.35
6241,-0.89,0.45,-10.06,3.43,-2.07,-0.23,-40.56,-16.49,-24.35
6252,-2.18,-3.09,-9.56,3.90,-2.39,-0.91,-40.56,-16.49,-24.35
6263,-2.18,-3.09,-9.56,3.90,-2.39,-0.91,-40.56,-16.49,-24.35
6274,-2.18,-6.68,-8.77,4.32,-2.61,-1.00,-40.56,-16.49,-24.35
6285,-2.18,-6.68,-8.77,4.32,-2.61,-1.00,-40.56,-16.49,-24.35
6296,-1.99,-7.87,-7.93,3.48,-2.83,-0.58,-40.56,-16.49,-24.35
6307,-1.99,-7.87,-7.93,3.48,-2.83,-0.58,-40.56,-16.49,-24.35
6318,-1.82,-5.97,-7.62,1.54,-3.11,-0.22,-40.56,-16.49,-24.35
6329,-3.32,-3.77,-7.45,-0.12,-3.50,-0.59,-40.56,-16.49,-24.35
6340,-3.32,-3.77,-7.45,-0.12,-3.50,-0.59,-40.56,-16.49,-24.35
6351,-3.14,-3.50,-7.52,-0.16,-3.85,-1.42,-52.92,-25.20,-13.05
6362,-3.14,-3.50,-7.52,-0.16,-3.85,-1.42,-52.92,-25.20,-13.05
6373,-1.90,-4.72,-8.94,0.94,-4.27,-2.16,-52.92,-25.20,-13.05
6384,-1.90,-4.72,-8.94,0.94,-4.27,-2.16,-52.92,-25.20,-13.05
6395,0.03,-5.37,-9.81,3.24,-5.22,-2.37,-52.92,-25.20,-13.05
6406,0.03,-5.37,-9.81,3.24,-5.22,-2.37,-52.92,-25.20,-13.05
6418,1.39,-5.96,-6.33,5.58,-6.61,-2.07,-52.92,-25.20,-13.05
6428,1.39,-5.96,-6.33,5.58,-6.61,-2.07,-52.92,-25.20,-13.05
6439,1.70,-5.18,-2.02,5.11,-7.69,-1.69,-52.92,-25.20,-13.05
6450,0.63,-2.42,0.59,1.94,-8.34,-2.01,-52.92,-25.20,-13.05
6461,0.63,-2.42,0.59,1.94,-8.34,-2.01,-52.92,-25.20,-13.05
6472,8.76,-16.82,-1.59,1.48,-8.58,-3.31,-52.92,-25.20,-13.05
6483,8.76,-16.82,-1.59,1.48,-8.58,-3.31,-52.92,-25.20,-13.05
6494,-1.53,-9.02,23.94,17.43,-5.72,1.53,-41.51,-34.89,22.36
6505,-1.53,-9.02,23.94,17.43,-5.72,1.53,-41.51,-34.89,22.36
6516,-4.51,-4.56,14.28,8.67,-2.66,2.39,-41.51,-34.89,22.36
6527,-4.51,-4.56,14.28,8.67,-2.66,2.39,-41.51,-34.89,22.36
6538,-2.83,-3.68,5.31,1.96,-0.93,0.72,-41.51,-34.89,22.36
6549,-2.83,-3.68,5.31,1.96,-0.93,0.72,-41.51,-34.89,22.36
6560,-1.99,-6.94,6.48,3.30,-0.78,0.08,-41.51,-34.89,22.36
6571,-3.36,-8.36,8.88,3.53,-0.88,0.55,-41.51,-34.89,22.36
6582,-3.36,-8.36,8.88,3.53,-0.88,0.55,-41.51,-34.89,22.36
6593,-2.85,-6.45,7.01,2.30,-0.60,1.06,-41.51,-34.89,22.36
6604,-2.85,-6.45,7.01,2.30,-0.60,1.06,-41.51,-34.89,22.36
6615,-2.23,-5.75,7.20,1.90,-0.51,1.23,-38.89,-10.84,38.27
6626,-2.23,-5.75,7.20,1.90,-0.51,1.23,-38.89,-10.84,38.27
6637,-4.53,-3.44,1.94,2.08,-0.78,1.46,-38.89,-10.84,38.27
6648,-4.53,-3.44,1.94,2.08,-0.78,1.46,-38.89,-10.84,38.27
6659,-4.03,-0.97,7.56,6.69,-1.18,1.38,-38.89,-10.84,38.27
6670,-5.10,-2.25,12.54,8.35,-0.97,1.11,-38.89,-10.84,38.27
6681,-5.10,-2.25,12.54,8.35,-0.97,1.11,-38.89,-10.84,38.27
6692,-4.80,-1.20,10.25,3.39,-0.39,0.72,-38.89,-10.84,38.27
6703,-4.80,-1.20,10.25,3.39,-0.39,0.72,-38.89,-10.84,38.27
6714,-4.50,-0.96,7.72,0.06,0.17,0.51,-38.89,-10.84,38.27
6725,-4.50,-0.96,7.72,0.06,0.17,0.51,-38.89,-10.84,38.27
6736,-4.38,-1.81,8.12,-0.36,0.71,0.58,-36.75,4.49,39.02
6747,-4.38,-1.81,8.12,-0.36,0.71,0.58,-36.75,4.49,39.02
6758,-5.12,-0.08,6.29,-0.47,1.05,0.35,-36.75,4.49,39.02
6769,-5.12,-0.08,6.29,-0.47,1.05,0.35,-36.75,4.49,39.02
6780,-6.45,-1.36,6.24,0.32,1.28,0.30,-36.75,4.49,39.02
6791,-7.40,-0.51,4.18,-0.32,1.18,0.23,-36.75,4.49,39.02
6802,-7.40,-0.51,4.18,-0.32,1.18,0.23,-36.75,4.49,39.02
6813,-3.45,0.19,3.63,-0.18,0.74,-0.13,-36.75,4.49,39.02
6824,-3.45,0.19,3.63,-0.18,0.74,-0.13,-36.75,4.49,39.02
6835,2.27,2.75,0.58,1.07,-0.29,-0.60,-36.75,4.49,39.02
6847,2.27,2.75,0.58,1.07,-0.29,-0.60,-36.75,4.49,39.02
6857,-3.31,2.00,8.38,3.06,-0.69,0.03,-36.75,4.49,39.02
6868,-3.31,2.00,8.38,3.06,-0.69,0.03,-36.75,4.49,39.02
6879,-5.31,-0.54,10.14,4.68,-0.26,-0.25,-38.66,9.33,36.04
6890,-6.51,-3.51,14.37,2.81,-0.19,-0.52,-38.66,9.33,36.04
6901,-6.51,-3.51,14.37,2.81,-0.19,-0.52,-38.66,9.33,36.04
6912,-5.14,-1.93,11.28,-2.76,0.03,-0.52,-38.66,9.33,36.04
6923,-5.14,-1.93,11.28,-2.76,0.03,-0.52,-38.66,9.33,36.04
6934,-4.64,-0.81,10.62,-2.74,0.32,-0.21,-38.66,9.33,36.04
6945,-4.64,-0.81,10.62,-2.74,0.32,-0.21,-38.66,9.33,36.04
6956,-5.65,-1.64,11.56,-0.98,0.49,-0.16,-38.66,9.33,36.04
6972,-5.65,-1.64,11.56,-0.98,0.49,-0.16,-38.66,9.33,36.04
6978,-5.68,-2.06,11.50,-1.21,0.55,-0.44,-38.66,9.33,36.04
6989,-5.68,-2.06,11.50,-1.21,0.55,-0.44,-38.66,9.33,36.04
7000,-5.19,-2.49,10.71,-1.38,0.66,-0.58,-41.51,7.07,36.04
7011,-5.53,-2.00,9.52,-1.17,0.73,-0.53,-41.51,7.07,36.04
7022,-5.53,-2.00,9.52,-1.17,0.73,-0.53,-41.51,7.07,36.04
7033,-4.87,-1.81,9.06,-1.16,0.56,-0.57,-41.51,7.07,36.04
7044,-4.87,-1.81,9.06,-1.16,0.56,-0.57,-41.51,7.07,36.04
7055,-4.76,-2.18,7.66,-1.12,0.46,-0.67,-41.51,7.07,36.04
7066,-4.76,-2.18,7.66,-1.12,0.46,-0.67,-41.51,7.07,36.04
7077,-5.56,-3.30,6.64,0.37,0.53,-0.58,-41.51,7.07,36.04
7088,-5.56,-3.30,6.64,0.37,0.53,-0.58,-41.51,7.07,36.04
7099,-5.72,-2.51,7.13,1.77,0.40,-0.30,-41.51,7.07,36.04
7110,-5.14,-1.43,7.46,2.20,0.21,-0.28,-47.45,4.65,34.41
7121,-5.14,-1.43,7.46,2.20,0.21,-0.28,-47.45,4.65,34.41
7132,-4.61,-1.43,6.83,2.56,0.23,-0.26,-47.45,4.65,34.41
7143,-4.61,-1.43,6.83,2.56,0.23,-0.26,-47.45,4.65,34.41
7154,-6.50,-2.39,10.85,2.75,0.34,-0.13,-47.45,4.65,34.41
7165,-6.50,-2.39,10.85,2.75,0.34,-0.13,-47.45,4.65,34.41
7176,-4.46,-0.11,3.29,0.04,0.31,-0.16,-47.45,4.65,34.41
7188,-4.46,-0.11,3.29,0.04,0.31,-0.16,-47.45,4.65,34.41
7198,-5.66,-0.07,6.57,1.09,-0.34,-0.14,-47.45,4.65,34.41
7209,-5.66,-0.07,6.57,1.09,-0.34,-0.14,-47.45,4.65,34.41
7220,-6.48,-1.15,7.51,1.71,-0.55,-0.30,-47.45,4.65,34.41
7231,-6.18,-1.35,6.55,1.25,-0.46,-0.06,-47.45,4.65,34.41
7242,-6.18,-1.35,6.55,1.25,-0.46,-0.06,-47.45,4.65,34.41
7253,-6.81,0.91,7.56,0.73,-0.39,-0.03,-46.50,11.43,32.62
7264,-6.81,0.91,7.56,0.73,-0.39,-0.03,-46.50,11.43,32.62
7275,-6.28,-0.47,7.60,-0.34,-0.30,-0.61,-46.50,11.43,32.62
7286,-6.28,-0.47,7.60,-0.34,-0.30,-0.61,-46.50,11.43,32.62
7297,-5.92,-1.94,7.88,-1.46,-0.13,-0.70,-46.50,11.43,32.62
7308,-5.92,-1.94,7.88,-1.46,-0.13,-0.70,-46.50,11.43,32.62
7319,-5.37,-0.84,6.94,-2.45,0.08,-0.43,-46.50,11.43,32.62
7330,-5.37,-0.84,6.94,-2.45,0.08,-0.43,-46.50,11.43,32.62
7341,-3.99,0.31,3.85,-2.20,0.01,-0.48,-46.50,11.43,32.62
7352,-4.89,-3.81,10.84,-0.18,-0.12,-0.45,-46.50,11.43,32.62
7363,-4.89,-3.81,10.84,-0.18,-0.12,-0.45,-46.50,11.43,32.62
7374,-5.68,-3.12,7.48,-0.67,0.33,0.03,-46.97,4.00,35.60
7385,-5.68,-3.12,7.48,-0.67,0.33,0.03,-46.97,4.00,35.60
7396,-6.20,-2.17,8.54,0.39,0.49,0.43,-46.97,4.00,35.60
7407,-6.20,-2.17,8.54,0.39,0.49,0.43,-46.97,4.00,35.60
7418,-7.04,-0.97,8.77,-0.30,0.27,0.32,-46.97,4.00,35.60
7429,-7.04,-0.97,8.77,-0.30,0.27,0.32,-46.97,4.00,35.60
7440,-6.60,-1.55,8.57,-1.66,-0.05,-0.09,-46.97,4.00,35.60
7451,-6.09,-1.22,7.71,-1.90,-0.21,-0.19,-46.97,4.00,35.60
7462,-6.09,-1.22,7.71,-1.90,-0.21,-0.19,-46.97,4.00,35.60
7473,-6.17,-3.11,9.32,-1.37,-0.28,-0.17,-46.97,4.00,35.60
7484,-6.17,-3.11,9.32,-1.37,-0.28,-0.17,-46.97,4.00,35.60
7495,-5.75,-2.25,8.25,-1.52,-0.38,-0.12,-46.26,0.94,35.74
7506,-5.75,-2.25,8.25,-1.52,-0.38,-0.12,-46.26,0.94,35.74
7517,-5.11,-4.43,7.79,-0.78,-0.45,-0.09,-46.26,0.94,35.74
7529,-5.11,-4.43,7.79,-0.78,-0.45,-0.09,-46.26,0.94,35.74
7539,-4.95,-4.07,9.09,-0.62,-0.39,0.15,-46.26,0.94,35.74
7550,-4.95,-4.07,9.09,-0.62,-0.39,0.15,-46.26,0.94,35.74
7561,-4.74,-2.82,9.63,-1.88,-0.20,0.07,-46.26,0.94,35.74
7572,-3.96,-2.57,7.27,-4.27,0.07,-0.40,-46.26,0.94,35.74
7583,-3.96,-2.57,7.27,-4.27,0.07,-0.40,-46.26,0.94,35.74
7594,-3.00,-3.19,2.95,-4.71,0.27,-0.56,-46.26,0.94,35.74
7605,-3.00,-3.19,2.95,-4.71,0.27,-0.56,-46.26,0.94,35.74
7616,-3.55,-4.29,3.52,-2.37,0.30,-0.27,-42.46,-8.75,35.45
7627,-3.55,-4.29,3.52,-2.37,0.30,-0.27,-42.46,-8.75,35.45
7638,-4.19,-3.00,4.30,-1.46,0.27,-0.06,-42.46,-8.75,35.45
7649,-4.19,-3.00,4.30,-1.46,0.27,-0.06,-42.46,-8.75,35.45
7660,-4.76,-3.42,3.82,-0.62,0.40,-0.20,-42.46,-8.75,35.45
7671,-5.57,-5.75,4.95,-0.09,0.34,-0.40,-42.46,-8.75,35.45
7682,-5.57,-5.75,4.95,-0.09,0.34,-0.40,-42.46,-8.75,35.45
7693,-5.58,-6.84,5.63,-0.27,0.24,-0.35,-42.46,-8.75,35.45
7704,-5.58,-6.84,5.63,-0.27,0.24,-0.35,-42.46,-8.75,35.45
7715,-5.71,-7.55,5.38,-0.80,0.09,-0.12,-42.46,-8.75,35.45
7726,-5.71,-7.55,5.38,-0.80,0.09,-0.12,-42.46,-8.75,35.45
7737,-10.05,-9.20,10.85,-0.12,-0.13,0.25,-42.46,-8.75,35.45
7748,-10.05,-9.20,10.85,-0.12,-0.13,0.25,-42.46,-8.75,35.45
7759,-6.74,-10.12,7.53,0.14,-0.24,0.38,-45.79,-11.33,34.85
7770,-6.74,-10.12,7.53,0.14,-0.24,0.38,-45.79,-11.33,34.85
7781,-3.87,-6.44,3.17,-2.86,-0.85,0.66,-45.79,-11.33,34.85
7792,-3.60,-4.76,6.21,-2.18,-1.16,1.35,-45.79,-11.33,34.85
7803,-3.60,-4.76,6.21,-2.18,-1.16,1.35,-45.79,-11.33,34.85
7814,-5.21,0.33,6.01,-1.08,-0.55,1.57,-45.79,-11.33,34.85
7825,-5.21,0.33,6.01,-1.08,-0.55,1.57,-45.79,-11.33,34.85
7836,-5.08,-0.70,7.43,0.74,0.02,0.58,-45.79,-11.33,34.85
7847,-5.08,-0.70,7.43,0.74,0.02,0.58,-45.79,-11.33,34.85
7858,-5.56,-11.12,8.34,0.76,-0.26,-0.67,-45.79,-11.33,34.85
7869,-5.56,-11.12,8.34,0.76,-0.26,-0.67,-45.79,-11.33,34.85
7880,-4.34,-5.70,5.98,1.13,-0.08,0.01,-43.65,-11.17,35.60
7891,-4.37,-4.97,4.64,0.88,0.00,0.25,-43.65,-11.17,35.60
7902,-4.37,-4.97,4.64,0.88,0.00,0.25,-43.65,-11.17,35.60
7913,-4.91,-6.04,5.78,1.16,-0.20,0.31,-43.65,-11.17,35.60
7924,-4.91,-6.04,5.78,1.16,-0.20,0.31,-43.65,-11.17,35.60
7935,-6.50,-5.70,6.96,2.42,-0.21,0.89,-43.65,-11.17,35.60
7946,-6.50,-5.70,6.96,2.42,-0.21,0.89,-43.65,-11.17,35.60
7958,-3.32,-4.22,9.36,2.25,-0.26,1.51,-43.65,-11.17,35.60
7968,-3.32,-4.22,9.36,2.25,-0.26,1.51,-43.65,-11.17,35.60
7979,-7.70,-1.99,10.01,-0.94,-0.28,1.19,-43.65,-11.17,35.60
7990,-7.70,-1.99,10.01,-0.94,-0.28,1.19,-43.65,-11.17,35.60
8001,-4.84,-3.73,7.87,-2.45,0.45,0.11,-42.46,-5.52,36.04
8012,-4.86,-5.29,4.91,-2.17,0.93,-0.41,-42.46,-5.52,36.04
8023,-4.86,-5.29,4.91,-2.17,0.93,-0.41,-42.46,-5.52,36.04
8034,-3.08,-8.84,3.75,-1.44,0.71,-0.34,-42.46,-5.52,36.04
8045,-3.08,-8.84,3.75,-1.44,0.71,-0.34,-42.46,-5.52,36.04
8056,-5.19,-5.38,0.95,0.79,0.31,0.39,-42.46,-5.52,36.04
8067,-5.19,-5.38,0.95,0.79,0.31,0.39,-42.46,-5.52,36.04
8078,-6.36,-3.88,3.59,5.12,-0.43,0.55,-42.46,-5.52,36.04
8089,-6.36,-3.88,3.59,5.12,-0.43,0.55,-42.46,-5.52,36.04
8100,-9.44,-1.21,6.17,7.78,-1.03,0.27,-42.46,-5.52,36.04
8111,-6.03,-2.27,14.97,8.52,-0.97,0.04,-42.46,-5.52,36.04
8122,-6.03,-2.27,14.97,8.52,-0.97,0.04,-42.46,-5.52,36.04
8133,-4.74,-3.06,11.74,0.89,-0.15,0.09,-45.07,6.58,36.49
8144,-4.74,-3.06,11.74,0.89,-0.15,0.09,-45.07,6.58,36.49
8155,-5.87,0.00,4.56,-5.31,0.29,0.32,-45.07,6.58,36.49
8166,-5.87,0.00,4.56,-5.31,0.29,0.32,-45.07,6.58,36.49
8177,-6.35,-0.33,6.26,-3.07,0.15,0.03,-45.07,6.58,36.49
8188,-6.35,-0.33,6.26,-3.07,0.15,0.03,-45.07,6.58,36.49
8199,-4.64,-2.40,9.86,-2.18,0.19,-0.68,-45.07,6.58,36.49
8210,-4.64,-2.40,9.86,-2.18,0.19,-0.68,-45.07,6.58,36.49
8221,-3.88,-5.94,7.07,-3.23,0.82,-0.63,-45.07,6.58,36.49
8232,-4.44,-5.26,5.61,-2.95,1.15,0.11,-45.07,6.58,36.49
8243,-4.44,-5.26,5.61,-2.95,1.15,0.11,-45.07,6.58,36.49
8254,-5.63,-4.08,10.18,-3.78,1.13,0.24,-47.21,-7.45,35.45
8265,-5.63,-4.08,10.18,-3.78,1.13,0.24,-47.21,-7.45,35.45
8276,-4.85,-3.71,7.83,-7.15,1.52,-0.21,-47.21,-7.45,35.45
8287,-4.85,-3.71,7.83,-7.15,1.52,-0.21,-47.21,-7.45,35.45
8298,-5.27,-6.98,0.32,-6.91,1.74,-0.12,-47.21,-7.45,35.45
8309,-5.27,-6.98,0.32,-6.91,1.74,-0.12,-47.21,-7.45,35.45
8320,-6.64,-5.75,-1.87,-4.36,1.07,0.46,-47.21,-7.45,35.45
8331,-6.64,-5.75,-1.87,-4.36,1.07,0.46,-47.21,-7.45,35.45
8343,-7.29,-5.74,1.08,-0.48,0.42,0.83,-47.21,-7.45,35.45
8353,-7.87,-7.37,4.10,0.70,0.22,0.79,-47.21,-7.45,35.45
8364,-7.87,-7.37,4.10,0.70,0.22,0.79,-47.21,-7.45,35.45
8375,-7.80,-6.92,6.18,-0.14,0.50,1.06,-54.82,-16.49,29.79
8386,-7.80,-6.92,6.18,-0.14,0.50,1.06,-54.82,-16.49,29.79
8397,-9.47,-6.77,5.93,-2.79,1.09,1.20,-54.82,-16.49,29.79
8408,-9.47,-6.77,5.93,-2.79,1.09,1.20,-54.82,-16.49,29.79
8419,-7.11,-2.02,-3.19,-5.75,1.07,1.31,-54.82,-16.49,29.79
8430,-7.11,-2.02,-3.19,-5.75,1.07,1.31,-54.82,-16.49,29.79
8441,-6.06,-0.86,-6.61,-4.92,-0.20,0.82,-54.82,-16.49,29.79
8452,-8.23,-6.12,2.78,-0.71,-1.57,0.36,-54.82,-16.49,29.79
8463,-8.23,-6.12,2.78,-0.71,-1.57,0.36,-54.82,-16.49,29.79
8474,-8.75,-9.33,7.37,0.88,-1.09,0.29,-54.82,-16.49,29.79
8485,-8.75,-9.33,7.37,0.88,-1.09,0.29,-54.82,-16.49,29.79
8496,-6.72,-8.62,-0.22,-0.22,-0.07,0.40,-54.82,-16.49,29.79
8507,-6.72,-8.62,-0.22,-0.22,-0.07,0.40,-54.82,-16.49,29.79
8518,-5.14,-6.07,-1.82,0.06,-0.21,0.86,-58.38,-21.17,25.78
8529,-5.14,-6.07,-1.82,0.06,-0.21,0.86,-58.38,-21.17,25.78
8540,-6.76,-2.98,1.93,1.66,-0.56,1.21,-58.38,-21.17,25.78
8551,-6.76,-2.98,1.93,1.66,-0.56,1.21,-58.38,-21.17,25.78
8562,-8.60,-7.16,10.98,1.97,-0.32,0.94,-58.38,-21.17,25.78
8573,-8.76,-2.64,-1.70,-1.32,0.21,0.86,-58.38,-21.17,25.78
8584,-8.76,-2.64,-1.70,-1.32,0.21,0.86,-58.38,-21.17,25.78
8595,-8.11,-2.35,-0.89,0.59,-0.44,0.30,-58.38,-21.17,25.78
8606,-8.11,-2.35,-0.89,0.59,-0.44,0.30,-58.38,-21.17,25.78
8617,-7.84,-7.41,7.42,1.68,-1.00,-0.17,-58.38,-21.17,25.78
8628,-7.84,-7.41,7.42,1.68,-1.00,-0.17,-58.38,-21.17,25.78
8639,-7.86,-3.40,3.35,0.25,-0.54,-0.05,-57.43,-16.65,27.86
8650,-7.86,-3.40,3.35,0.25,-0.54,-0.05,-57.43,-16.65,27.86
8661,-7.48,-5.18,3.11,-0.10,-0.52,-0.43,-57.43,-16.65,27.86
8672,-7.85,-7.70,4.55,-0.31,-0.56,-0.47,-57.43,-16.65,27.86
8683,-7.85,-7.70,4.55,-0.31,-0.56,-0.47,-57.43,-16.65,27.86
8694,-7.82,-7.16,4.33,-0.39,-0.25,-0.15,-57.43,-16.65,27.86
8705,-7.82,-7.16,4.33,-0.39,-0.25,-0.15,-57.43,-16.65,27.86
8716,-6.86,-6.66,1.76,-0.38,-0.00,-0.08,-57.43,-16.65,27.86
8727,-6.86,-6.66,1.76,-0.38,-0.00,-0.08,-57.43,-16.65,27.86
8738,-6.22,-7.80,1.73,-0.12,-0.03,-0.07,-57.43,-16.65,27.86
8749,-6.22,-7.80,1.73,-0.12,-0.03,-0.07,-57.43,-16.65,27.86
8760,-7.42,-6.39,1.42,-0.12,0.13,0.24,-55.29,-16.17,30.09
8771,-7.42,-6.39,1.42,-0.12,0.13,0.24,-55.29,-16.17,30.09
8782,-7.61,-4.67,0.76,-0.19,0.30,0.32,-55.29,-16.17,30.09
8793,-8.10,-5.52,1.90,-0.14,0.20,0.31,-55.29,-16.17,30.09
8804,-8.10,-5.52,1.90,-0.14,0.20,0.31,-55.29,-16.17,30.09
8815,-8.53,-4.27,2.39,-0.30,-0.04,0.53,-55.29,-16.17,30.09
8826,-8.53,-4.27,2.39,-0.30,-0.04,0.53,-55.29,-16.17,30.09
8838,-8.41,-2.96,1.78,-0.35,-0.29,0.59,-55.29,-16.17,30.09
8848,-8.41,-2.96,1.78,-0.35,-0.29,0.59,-55.29,-16.17,30.09
8859,-8.02,-3.53,0.73,-0.62,-0.62,0.39,-55.29,-16.17,30.09
8870,-8.02,-3.53,0.73,-0.62,-0.62,0.39,-55.29,-16.17,30.09
8881,-8.48,-3.58,5.52,-0.12,-0.88,0.26,-56.25,-16.49,29.50
8892,-8.34,-6.05,3.34,0.13,-0.27,0.02,-56.25,-16.49,29.50
8903,-8.34,-6.05,3.34,0.13,-0.27,0.02,-56.25,-16.49,29.50
8914,-6.99,-6.06,0.07,-0.31,-0.04,-0.22,-56.25,-16.49,29.50
8925,-6.99,-6.06,0.07,-0.31,-0.04,-0.22,-56.25,-16.49,29.50
8936,-5.76,-7.93,1.17,0.30,-0.28,-0.28,-56.25,-16.49,29.50
8947,-5.76,-7.93,1.17,0.30,-0.28,-0.28,-56.25,-16.49,29.50
8958,-7.40,-5.04,4.11,1.14,-0.45,0.10,-56.25,-16.49,29.50
8969,-7.40,-5.04,4.11,1.14,-0.45,0.10,-56.25,-16.49,29.50
8980,-8.27,-3.56,4.97,1.27,-0.39,0.04,-56.25,-16.49,29.50
8991,-8.27,-3.56,4.97,1.27,-0.39,0.04,-56.25,-16.49,29.50
9002,-8.43,-4.53,5.06,0.79,-0.27,-0.28,-56.25,-16.49,29.50
9013,-8.18,-4.65,4.93,-0.06,-0.14,-0.57,-52.68,-14.39,31.73
9024,-8.18,-4.65,4.93,-0.06,-0.14,-0.57,-52.68,-14.39,31.73
9035,-7.91,-4.71,3.96,-0.71,-0.05,-0.80,-52.68,-14.39,31.73
9046,-7.91,-4.71,3.96,-0.71,-0.05,-0.80,-52.68,-14.39,31.73
9057,-7.96,-4.75,1.83,-0.37,0.11,-0.81,-52.68,-14.39,31.73
9069,-7.96,-4.75,1.83,-0.37,0.11,-0.81,-52.68,-14.39,31.73
9079,-7.07,-7.64,3.21,0.73,0.39,-0.80,-52.68,-14.39,31.73
9090,-7.07,-7.64,3.21,0.73,0.39,-0.80,-52.68,-14.39,31.73
9101,-7.46,-8.12,0.53,-0.53,0.39,-0.55,-52.68,-14.39,31.73
9112,-7.02,-6.34,-1.40,-0.68,0.12,-0.17,-52.68,-14.39,31.73
9123,-7.02,-6.34,-1.40,-0.68,0.12,-0.17,-52.68,-14.39,31.73
9134,-6.51,-7.98,-0.92,0.00,-0.30,0.09,-52.68,-18.27,29.65
9145,-6.51,-7.98,-0.92,0.00,-0.30,0.09,-52.68,-18.27,29.65
9156,-7.09,-7.40,1.91,0.69,-0.67,0.63,-52.68,-18.27,29.65
9167,-7.09,-7.40,1.91,0.69,-0.67,0.63,-52.68,-18.27,29.65
9178,-7.92,-4.94,4.83,0.76,-0.61,0.93,-52.68,-18.27,29.65
9189,-7.92,-4.94,4.83,0.76,-0.61,0.93,-52.68,-18.27,29.65
9200,-8.08,-3.38,4.66,0.51,-0.30,0.77,-52.68,-18.27,29.65
9211,-8.08,-3.38,4.66,0.51,-0.30,0.77,-52.68,-18.27,29.65
9222,-8.26,-2.88,4.60,0.32,-0.33,0.45,-52.68,-18.27,29.65
9233,-7.85,-4.06,5.66,0.17,-0.42,0.16,-52.68,-18.27,29.65
9244,-7.85,-4.06,5.66,0.17,-0.42,0.16,-52.68,-18.27,29.65
9255,-7.50,-5.44,5.34,-0.10,-0.25,0.05,-51.73,-14.72,32.32
9266,-7.50,-5.44,5.34,-0.10,-0.25,0.05,-51.73,-14.72,32.32
9277,-7.09,-5.58,4.37,-0.64,-0.01,0.12,-51.73,-14.72,32.32
9288,-7.09,-5.58,4.37,-0.64,-0.01,0.12,-51.73,-14.72,32.32
9299,-7.25,-5.51,2.11,-0.93,0.10,0.26,-51.73,-14.72,32.32
9310,-7.25,-5.51,2.11,-0.93,0.10,0.26,-51.73,-14.72,32.32
9321,-6.38,-5.86,2.18,-0.56,-0.04,0.42,-51.73,-14.72,32.32
9332,-6.38,-5.86,2.18,-0.56,-0.04,0.42,-51.73,-14.72,32.32
9343,-7.73,-5.04,1.77,-0.15,-0.29,0.67,-51.73,-14.72,32.32
9354,-8.40,-3.98,5.25,0.01,-0.45,0.71,-51.73,-14.72,32.32
9365,-8.40,-3.98,5.25,0.01,-0.45,0.71,-51.73,-14.72,32.32
9376,-6.48,-5.46,3.88,-0.72,0.07,-0.01,-51.73,-14.72,32.32
9387,-6.48,-5.46,3.88,-0.72,0.07,-0.01,-51.73,-14.72,32.32
9398,-5.27,-7.62,1.33,-0.35,0.54,-0.27,-53.39,-16.49,33.07
9409,-5.27,-7.62,1.33,-0.35,0.54,-0.27,-53.39,-16.49,33.07
9420,-6.59,-6.04,0.67,0.49,0.47,0.16,-53.39,-16.49,33.07
9431,-6.59,-6.04,0.67,0.49,0.47,0.16,-53.39,-16.49,33.07
9442,-8.31,-4.90,3.46,1.13,0.10,0.50,-53.39,-16.49,33.07
9453,-8.71,-3.67,4.85,1.05,-0.05,0.51,-53.39,-16.49,33.07
9464,-8.71,-3.67,4.85,1.05,-0.05,0.51,-53.39,-16.49,33.07
9476,-8.88,-3.26,5.18,0.60,0.11,0.30,-53.39,-16.49,33.07
9486,-8.88,-3.26,5.18,0.60,0.11,0.30,-53.39,-16.49,33.07
9497,-8.63,-3.43,4.08,-0.05,0.24,0.04,-53.39,-16.49,33.07
9508,-8.63,-3.43,4.08,-0.05,0.24,0.04,-53.39,-16.49,33.07
9519,-7.90,-4.25,3.51,-0.53,0.15,-0.17,-55.29,-13.26,31.88
9530,-7.90,-4.25,3.51,-0.53,0.15,-0.17,-55.29,-13.26,31.88
9541,-7.64,-5.76,3.40,-0.76,0.16,-0.27,-55.29,-13.26,31.88
9552,-7.64,-5.76,3.40,-0.76,0.16,-0.27,-55.29,-13.26,31.88
9563,-7.68,-5.65,2.56,-0.58,0.24,-0.15,-55.29,-13.26,31.88
9574,-7.77,-5.64,1.98,-0.67,0.22,-0.07,-55.29,-13.26,31.88
9585,-7.77,-5.64,1.98,-0.67,0.22,-0.07,-55.29,-13.26,31.88
9596,-7.70,-5.93,1.67,-0.52,0.14,0.09,-55.29,-13.26,31.88
9607,-7.70,-5.93,1.67,-0.52,0.14,0.09,-55.29,-13.26,31.88
9618,-7.90,-5.00,2.64,-0.18,-0.07,0.32,-55.29,-13.26,31.88
9629,-7.90,-5.00,2.64,-0.18,-0.07,0.32,-55.29,-13.26,31.88
9640,-8.00,-4.11,3.60,0.05,-0.16,0.29,-54.11,-14.39,32.32
9651,-8.00,-4.11,3.60,0.05,-0.16,0.29,-54.11,-14.39,32.32
9662,-8.15,-4.17,3.06,0.35,-0.07,0.21,-54.11,-14.39,32.32
9673,-7.90,-4.07,2.83,0.61,-0.04,0.10,-54.11,-14.39,32.32
9689,-7.90,-4.07,2.83,0.61,-0.04,0.10,-54.11,-14.39,32.32
9695,-7.53,-5.74,2.55,0.76,-0.04,-0.13,-54.11,-14.39,32.32
9706,-7.53,-5.74,2.55,0.76,-0.04,-0.13,-54.11,-14.39,32.32
9717,-7.52,-6.05,3.14,0.81,-0.04,-0.20,-54.11,-14.39,32.32
9728,-7.52,-6.05,3.14,0.81,-0.04,-0.20,-54.11,-14.39,32.32
9739,-7.44,-5.40,2.96,0.69,-0.03,-0.09,-54.11,-14.39,32.32
9750,-7.44,-5.40,2.96,0.69,-0.03,-0.09,-54.11,-14.39,32.32
9761,-7.68,-4.59,3.55,0.61,-0.03,0.17,-54.11,-14.39,32.32
9772,-7.68,-4.59,3.55,0.61,-0.03,0.17,-54.11,-14.39,32.32
9783,-8.95,-3.29,3.92,0.56,0.03,0.44,-53.63,-12.78,33.22
9794,-9.44,-3.02,4.65,0.25,0.05,0.27,-53.63,-12.78,33.22
9805,-9.44,-3.02,4.65,0.25,0.05,0.27,-53.63,-12.78,33.22
9816,-8.18,-4.28,3.73,-0.24,0.12,-0.05,-53.63,-12.78,33.22
9827,-8.18,-4.28,3.73,-0.24,0.12,-0.05,-53.63,-12.78,33.22
9838,-7.75,-4.86,2.91,-0.27,0.12,-0.05,-53.63,-12.78,33.22
9849,-7.75,-4.86,2.91,-0.27,0.12,-0.05,-53.63,-12.78,33.22
9860,-7.75,-5.16,3.01,-0.08,0.07,-0.05,-53.63,-12.78,33.22
9871,-7.75,-5.16,3.01,-0.08,0.07,-0.05,-53.63,-12.78,33.22
9882,-7.39,-5.60,2.70,0.09,0.17,-0.11,-53.63,-12.78,33.22
9893,-7.31,-5.26,2.34,0.28,0.15,-0.03,-57.67,-11.97,30.39
9904,-7.31,-5.26,2.34,0.28,0.15,-0.03,-57.67,-11.97,30.39
9915,-8.21,-3.84,3.92,0.44,-0.03,0.22,-57.67,-11.97,30.39
9926,-8.21,-3.84,3.92,0.44,-0.03,0.22,-57.67,-11.97,30.39
9937,-9.03,-3.00,4.10,0.30,-0.09,0.33,-57.67,-11.97,30.39
9948,-9.03,-3.00,4.10,0.30,-0.09,0.33,-57.67,-11.97,30.39
9959,-8.99,-3.28,4.22,0.06,-0.05,0.14,-57.67,-11.97,30.39
9971,-8.99,-3.28,4.22,0.06,-0.05,0.14,-57.67,-11.97,30.39
9981,-8.11,-4.54,3.58,-0.20,0.06,-0.11,-57.67,-11.97,30.39
9992,-8.11,-4.54,3.58,-0.20,0.06,-0.11,-57.67,-11.97,30.39
10003,-7.73,-4.68,2.48,-0.22,0.07,-0.11,-57.67,-11.97,30.39
10014,-8.22,-4.33,3.65,-0.03,-0.07,0.02,-55.53,-12.13,31.43
10025,-8.22,-4.33,3.65,-0.03,-0.07,0.02,-55.53,-12.13,31.43
10036,-8.25,-4.18,3.26,0.00,-0.06,0.05,-55.53,-12.13,31.43
10047,-8.25,-4.18,3.26,0.00,-0.06,0.05,-55.53,-12.13,31.43
10058,-8.02,-4.58,3.64,0.01,-0.07,0.01,-55.53,-12.13,31.43
10069,-8.02,-4.58,3.64,0.01,-0.07,0.01,-55.53,-12.13,31.43
10080,-8.00,-4.50,3.50,-0.04,-0.02,0.01,-55.53,-12.13,31.43
10091,-8.00,-4.50,3.50,-0.04,-0.02,0.01,-55.53,-12.13,31.43
10102,-8.24,-4.33,3.50,-0.04,0.03,0.03,-55.53,-12.13,31.43
10113,-8.06,-4.37,3.33,-0.06,0.06,0.03,-55.53,-12.13,31.43
10124,-8.06,-4.37,3.33,-0.06,0.06,0.03,-55.53,-12.13,31.43
10135,-7.75,-4.59,3.12,-0.03,0.06,0.06,-55.53,-12.13,31.43
10146,-7.75,-4.59,3.12,-0.03,0.06,0.06,-55.53,-12.13,31.43
10157,-8.15,-4.39,3.15,0.05,0.03,0.10,-55.06,-11.17,31.73
10168,-8.15,-4.39,3.15,0.05,0.03,0.10,-55.06,-11.17,31.73
10179,-8.10,-4.31,3.42,0.08,0.00,0.08,-55.06,-11.17,31.73
10190,-8.10,-4.31,3.42,0.08,0.00,0.08,-55.06,-11.17,31.73
10201,-8.36,-4.07,3.47,0.07,0.01,0.07,-55.06,-11.17,31.73
10212,-8.36,-4.07,3.47,0.07,0.01,0.07,-55.06,-11.17,31.73
10223,-8.14,-4.32,3.37,0.02,0.02,0.04,-55.06,-11.17,31.73
10234,-7.89,-4.54,2.99,0.05,0.04,0.03,-55.06,-11.17,31.73
10245,-7.89,-4.54,2.99,0.05,0.04,0.03,-55.06,-11.17,31.73
10256,-7.76,-4.59,3.19,0.17,0.02,0.07,-55.06,-11.17,31.73
10267,-7.76,-4.59,3.19,0.17,0.02,0.07,-55.06,-11.17,31.73
10278,-7.53,-4.76,2.96,0.27,-0.01,0.18,-54.82,-11.00,31.88
10289,-7.53,-4.76,2.96,0.27,-0.01,0.18,-54.82,-11.00,31.88
10300,-9.56,-3.79,2.04,0.45,-0.04,0.35,-54.82,-11.00,31.88
10311,-9.56,-3.79,2.04,0.45,-0.04,0.35,-54.82,-11.00,31.88
10322,-8.56,-3.87,3.82,0.42,-0.25,0.19,-54.82,-11.00,31.88
10333,-8.56,-3.87,3.82,0.42,-0.25,0.19,-54.82,-11.00,31.88
10344,-8.48,-3.45,4.55,0.30,-0.19,0.11,-54.82,-11.00,31.88
10355,-8.38,-4.41,4.05,0.04,-0.04,0.02,-54.82,-11.00,31.88
10366,-8.38,-4.41,4.05,0.04,-0.04,0.02,-54.82,-11.00,31.88
10377,-8.38,-4.04,3.68,-0.12,0.03,0.09,-54.82,-11.00,31.88
10388,-8.38,-4.04,3.68,-0.12,0.03,0.09,-54.82,-11.00,31.88
10399,-8.65,-4.13,4.21,-0.21,0.04,0.16,-55.77,-9.71,32.77
10410,-8.65,-4.13,4.21,-0.21,0.04,0.16,-55.77,-9.71,32.77
10421,-8.64,-3.39,3.20,-0.45,0.10,0.34,-55.77,-9.71,32.77
10432,-8.64,-3.39,3.20,-0.45,0.10,0.34,-55.77,-9.71,32.77
10443,-7.99,-4.01,2.60,-0.42,-0.01,0.50,-55.77,-9.71,32.77
10454,-8.06,-2.44,3.39,-0.27,-0.31,0.62,-55.77,-9.71,32.77
10465,-8.06,-2.44,3.39,-0.27,-0.31,0.62,-55.77,-9.71,32.77
10476,-7.82,-3.40,4.02,-0.28,-0.40,0.25,-55.77,-9.71,32.77
10492,-7.82,-3.40,4.02,-0.28,-0.40,0.25,-55.77,-9.71,32.77
10498,-7.94,-4.34,3.63,-0.39,-0.33,0.01,-55.77,-9.71,32.77
10509,-7.94,-4.34,3.63,-0.39,-0.33,0.01,-55.77,-9.71,32.77
10520,-8.40,-4.33,3.44,-0.37,-0.28,-0.09,-53.87,-8.75,31.88
10531,-8.40,-4.33,3.44,-0.37,-0.28,-0.09,-53.87,-8.75,31.88
10542,-8.51,-4.78,2.69,-0.25,-0.18,-0.16,-53.87,-8.75,31.88
10553,-8.51,-4.78,2.69,-0.25,-0.18,-0.16,-53.87,-8.75,31.88
10564,-8.55,-3.48,3.08,-0.02,-0.15,-0.12,-53.87,-8.75,31.88
10575,-8.31,-4.04,3.90,0.21,-0.09,-0.19,-53.87,-8.75,31.88
10586,-8.31,-4.04,3.90,0.21,-0.09,-0.19,-53.87,-8.75,31.88
10597,-8.58,-4.12,4.50,0.19,0.01,-0.22,-53.87,-8.75,31.88
10608,-8.58,-4.12,4.50,0.19,0.01,-0.22,-53.87,-8.75,31.88
10619,-8.36,-3.39,3.26,0.08,0.18,-0.20,-53.87,-8.75,31.88
10631,-8.36,-3.39,3.26,0.08,0.18,-0.20,-53.87,-8.75,31.88
10641,-8.14,-4.79,3.39,0.12,0.27,-0.23,-53.87,-8.75,31.88
10652,-8.14,-4.79,3.39,0.12,0.27,-0.23,-53.87,-8.75,31.88
10663,-8.53,-4.08,4.44,0.19,0.26,-0.09,-54.82,-10.36,33.07
10674,-8.24,-3.88,3.50,0.10,0.35,-0.08,-54.82,-10.36,33.07
10685,-8.24,-3.88,3.50,0.10,0.35,-0.08,-54.82,-10.36,33.07
10696,-8.27,-4.17,2.99,0.11,0.36,-0.03,-54.82,-10.36,33.07
10707,-8.27,-4.17,2.99,0.11,0.36,-0.03,-54.82,-10.36,33.07
10718,-8.06,-4.23,3.46,0.10,0.31,0.11,-54.82,-10.36,33.07
10729,-8.06,-4.23,3.46,0.10,0.31,0.11,-54.82,-10.36,33.07
10740,-8.50,-3.99,3.54,0.04,0.28,0.23,-54.82,-10.36,33.07
10751,-8.50,-3.99,3.54,0.04,0.28,0.23,-54.82,-10.36,33.07
10762,-8.16,-3.30,3.73,-0.14,0.25,0.36,-54.82,-10.36,33.07
10773,-8.16,-3.30,3.73,-0.14,0.25,0.36,-54.82,-10.36,33.07
10784,-8.11,-4.74,3.90,-0.34,0.18,0.42,-55.29,-8.75,31.58
10795,-7.85,-4.21,3.32,-0.50,0.06,0.49,-55.29,-8.75,31.58
10806,-7.85,-4.21,3.32,-0.50,0.06,0.49,-55.29,-8.75,31.58
10822,-7.68,-3.80,3.01,-0.47,-0.18,0.43,-55.29,-8.75,31.58
10828,-7.68,-3.80,3.01,-0.47,-0.18,0.43,-55.29,-8.75,31.58
10839,-8.37,-3.69,3.60,-0.35,-0.42,0.34,-55.29,-8.75,31.58
10850,-8.37,-3.69,3.60,-0.35,-0.42,0.34,-55.29,-8.75,31.58
10861,-8.26,-4.17,3.26,-0.27,-0.45,0.17,-55.29,-8.75,31.58
10872,-8.26,-4.17,3.26,-0.27,-0.45,0.17,-55.29,-8.75,31.58
10883,-8.15,-3.95,3.07,-0.23,-0.41,0.10,-55.29,-8.75,31.58
10894,-8.28,-4.33,3.34,-0.13,-0.43,0.04,-54.58,-9.23,32.32
10905,-8.28,-4.33,3.34,-0.13,-0.43,0.04,-54.58,-9.23,32.32
10916,-8.63,-3.69,3.91,-0.10,-0.38,-0.01,-54.58,-9.23,32.32
10927,-8.63,-3.69,3.91,-0.10,-0.38,-0.01,-54.58,-9.23,32.32
10938,-8.60,-3.85,3.46,-0.05,-0.25,-0.14,-54.58,-9.23,32.32
10949,-8.60,-3.85,3.46,-0.05,-0.25,-0.14,-54.58,-9.23,32.32
10960,-8.63,-3.83,3.62,0.04,-0.15,-0.16,-54.58,-9.23,32.32
10971,-8.63,-3.83,3.62,0.04,-0.15,-0.16,-54.58,-9.23,32.32
10982,-8.49,-3.82,3.57,0.09,-0.06,-0.17,-54.58,-9.23,32.32
10993,-8.49,-3.82,3.57,0.09,-0.06,-0.17,-54.58,-9.23,32.32
11009,-8.45,-3.81,3.50,0.14,0.01,-0.16,-54.58,-9.23,32.32
11015,-8.60,-4.13,4.38,0.16,0.10,-0.17,-54.58,-9.23,32.32
11026,-8.60,-4.13,4.38,0.16,0.10,-0.17,-54.58,-9.23,32.32
11037,-8.38,-3.90,3.68,0.16,0.20,-0.14,-54.58,-8.91,32.03
11048,-8.38,-3.90,3.68,0.16,0.20,-0.14,-54.58,-8.91,32.03
11059,-8.48,-3.84,3.68,0.16,0.19,-0.06,-54.58,-8.91,32.03
11070,-8.48,-3.84,3.68,0.16,0.19,-0.06,-54.58,-8.91,32.03
11081,-8.32,-3.80,3.53,0.17,0.19,-0.01,-54.58,-8.91,32.03
11092,-8.32,-3.80,3.53,0.17,0.19,-0.01,-54.58,-8.91,32.03
11103,-8.59,-3.83,3.68,0.18,0.16,0.04,-54.58,-8.91,32.03
11114,-8.30,-3.71,3.68,0.13,0.23,0.08,-54.58,-8.91,32.03
11125,-8.30,-3.71,3.68,0.13,0.23,0.08,-54.58,-8.91,32.03
11136,-8.36,-4.07,3.77,0.12,0.21,0.11,-54.58,-8.91,32.03
11147,-8.36,-4.07,3.77,0.12,0.21,0.11,-54.58,-8.91,32.03
11158,-8.58,-3.20,3.26,0.06,0.20,0.20,-55.29,-10.04,33.07
11169,-8.58,-3.20,3.26,0.06,0.20,0.20,-55.29,-10.04,33.07
11180,-8.27,-4.08,3.24,0.03,0.18,0.20,-55.29,-10.04,33.07
11191,-8.27,-4.08,3.24,0.03,0.18,0.20,-55.29,-10.04,33.07
11202,-8.37,-3.61,3.63,-0.06,0.09,0.31,-55.29,-10.04,33.07
11213,-8.37,-3.61,3.63,-0.06,0.09,0.31,-55.29,-10.04,33.07
11224,-8.50,-3.17,3.96,-0.21,-0.02,0.42,-55.29,-10.04,33.07
11235,-8.50,-2.79,3.72,-0.42,-0.16,0.44,-55.29,-10.04,33.07
11246,-8.50,-2.79,3.72,-0.42,-0.16,0.44,-55.29,-10.04,33.07
11257,-8.31,-3.28,2.86,-0.46,-0.33,0.35,-55.29,-10.04,33.07
11268,-8.31,-3.28,2.86,-0.46,-0.33,0.35,-55.29,-10.04,33.07
11279,-8.19,-3.51,3.22,-0.35,-0.39,0.26,-54.34,-6.81,33.07
11290,-8.19,-3.51,3.22,-0.35,-0.39,0.26,-54.34,-6.81,33.07
11301,-8.27,-4.27,3.14,-0.30,-0.39,0.13,-54.34,-6.81,33.07
11312,-8.27,-4.27,3.14,-0.30,-0.39,0.13,-54.34,-6.81,33.07
11323,-8.26,-3.12,3.32,-0.33,-0.49,0.09,-54.34,-6.81,33.07
11334,-8.26,-3.12,3.32,-0.33,-0.49,0.09,-54.34,-6.81,33.07
11345,-8.80,-3.56,3.90,-0.26,-0.48,-0.09,-54.34,-6.81,33.07
11356,-8.63,-3.60,2.99,-0.11,-0.26,-0.18,-54.34,-6.81,33.07
11367,-8.63,-3.60,2.99,-0.11,-0.26,-0.18,-54.34,-6.81,33.07
11378,-8.74,-4.07,3.98,0.07,-0.16,-0.17,-54.34,-6.81,33.07
11389,-8.74,-4.07,3.98,0.07,-0.16,-0.17,-54.34,-6.81,33.07
11400,-8.56,-3.36,3.36,0.12,-0.04,-0.12,-54.34,-6.81,33.07
11411,-8.56,-3.36,3.36,0.12,-0.04,-0.12,-54.34,-6.81,33.07
11422,-8.74,-3.61,4.33,0.19,0.03,-0.16,-53.16,-9.23,33.81
11433,-8.74,-3.61,4.33,0.19,0.03,-0.16,-53.16,-9.23,33.81
11444,-8.66,-4.64,4.55,0.13,0.23,-0.19,-53.16,-9.23,33.81
11456,-8.02,-3.69,2.58,0.03,0.42,-0.10,-53.16,-9.23,33.81
11466,-8.02,-3.69,2.58,0.03,0.42,-0.10,-53.16,-9.23,33.81
11482,-8.89,-3.51,3.68,0.19,0.29,0.00,-53.16,-9.23,33.81
11488,-8.89,-3.51,3.68,0.19,0.29,0.00,-53.16,-9.23,33.81
11499,-8.46,-3.58,3.84,0.20,0.28,0.08,-53.16,-9.23,33.81
11510,-8.46,-3.58,3.84,0.20,0.28,0.08,-53.16,-9.23,33.81
11521,-8.51,-3.35,3.47,0.08,0.32,0.15,-53.16,-9.23,33.81
11532,-8.51,-3.35,3.47,0.08,0.32,0.15,-53.16,-9.23,33.81
11543,-8.72,-3.73,3.78,-0.00,0.26,0.19,-54.34,-9.39,33.07
11554,-8.72,-3.73,3.78,-0.00,0.26,0.19,-54.34,-9.39,33.07
11565,-8.25,-3.48,3.14,-0.20,0.24,0.32,-54.34,-9.39,33.07
11576,-8.60,-2.98,3.12,-0.27,0.09,0.38,-54.34,-9.39,33.07
11587,-8.60,-2.98,3.12,-0.27,0.09,0.38,-54.34,-9.39,33.07
11598,-8.27,-2.69,3.01,-0.29,-0.05,0.39,-54.34,-9.39,33.07
11609,-8.27,-2.69,3.01,-0.29,-0.05,0.39,-54.34,-9.39,33.07
11620,-7.93,-2.92,4.20,-0.22,-0.23,0.38,-54.34,-9.39,33.07
11631,-7.93,-2.92,4.20,-0.22,-0.23,0.38,-54.34,-9.39,33.07
11642,-8.16,-3.21,3.41,-0.26,-0.39,0.28,-54.34,-9.39,33.07
11653,-8.16,-3.21,3.41,-0.26,-0.39,0.28,-54.34,-9.39,33.07
11664,-8.22,-3.34,3.10,-0.24,-0.48,0.16,-56.01,-8.91,32.62
11675,-8.18,-3.23,3.40,-0.22,-0.48,0.05,-56.01,-8.91,32.62
11686,-8.18,-3.23,3.40,-0.22,-0.48,0.05,-56.01,-8.91,32.62
11697,-8.21,-3.78,3.01,-0.25,-0.41,-0.09,-56.01,-8.91,32.62
11708,-8.21,-3.78,3.01,-0.25,-0.41,-0.09,-56.01,-8.91,32.62
11719,-8.78,-2.87,3.56,-0.28,-0.37,-0.09,-56.01,-8.91,32.62
11730,-8.78,-2.87,3.56,-0.28,-0.37,-0.09,-56.01,-8.91,32.62
11741,-8.72,-4.09,3.62,-0.11,-0.25,-0.15,-56.01,-8.91,32.62
11752,-8.72,-4.09,3.62,-0.11,-0.25,-0.15,-56.01,-8.91,32.62
11763,-8.64,-3.68,3.65,0.10,-0.15,-0.08,-56.01,-8.91,32.62
11774,-8.64,-3.68,3.65,0.10,-0.15,-0.08,-56.01,-8.91,32.62
11785,-8.58,-2.99,3.78,0.22,-0.08,-0.08,-52.68,-9.23,33.81
11796,-8.54,-3.49,4.01,0.27,-0.02,-0.14,-52.68,-9.23,33.81
11807,-8.54,-3.49,4.01,0.27,-0.02,-0.14,-52.68,-9.23,33.81
11818,-8.51,-3.59,3.66,0.26,0.03,-0.13,-52.68,-9.23,33.81
11829,-8.51,-3.59,3.66,0.26,0.03,-0.13,-52.68,-9.23,33.81
11840,-8.72,-3.40,4.81,0.21,0.09,-0.12,-52.68,-9.23,33.81
11851,-8.72,-3.40,4.81,0.21,0.09,-0.12,-52.68,-9.23,33.81
11862,-8.51,-3.73,3.55,0.08,0.22,-0.15,-52.68,-9.23,33.81
11873,-8.51,-3.73,3.55,0.08,0.22,-0.15,-52.68,-9.23,33.81
11885,-8.76,-3.58,4.27,0.10,0.22,-0.07,-52.68,-9.23,33.81
11895,-8.54,-3.23,3.08,0.09,0.29,0.03,-52.68,-9.23,33.81
11906,-8.54,-3.23,3.08,0.09,0.29,0.03,-52.68,-9.23,33.81
11917,-8.63,-3.97,4.02,0.06,0.33,0.10,-53.87,-9.39,33.66
11928,-8.63,-3.97,4.02,0.06,0.33,0.10,-53.87,-9.39,33.66
11939,-8.15,-3.55,3.90,0.02,0.34,0.27,-53.87,-9.39,33.66
11950,-8.15,-3.55,3.90,0.02,0.34,0.27,-53.87,-9.39,33.66
11961,-8.33,-3.83,3.86,-0.07,0.20,0.30,-53.87,-9.39,33.66
11972,-8.33,-3.83,3.86,-0.07,0.20,0.30,-53.87,-9.39,33.66
11983,-8.27,-3.61,4.07,-0.23,0.14,0.34,-53.87,-9.39,33.66
11994,-8.27,-3.61,4.07,-0.23,0.14,0.34,-53.87,-9.39,33.66
12005,-8.10,-2.53,2.47,-0.45,0.03,0.36,-53.87,-9.39,33.66
12016,-8.40,-2.11,3.10,-0.40,-0.27,0.39,-53.87,-9.39,33.66
12027,-8.40,-2.11,3.10,-0.40,-0.27,0.39,-53.87,-9.39,33.66
12038,-8.31,-3.05,3.48,-0.31,-0.37,0.26,-53.39,-10.04,33.07
12049,-8.31,-3.05,3.48,-0.31,-0.37,0.26,-53.39,-10.04,33.07
12060,-8.64,-3.94,4.00,-0.20,-0.36,0.14,-53.39,-10.04,33.07
12071,-8.64,-3.94,4.00,-0.20,-0.36,0.14,-53.39,-10.04,33.07
12082,-7.82,-3.63,3.32,-0.29,-0.31,0.03,-53.39,-10.04,33.07
12093,-7.82,-3.63,3.32,-0.29,-0.31,0.03,-53.39,-10.04,33.07
12104,-8.45,-3.19,3.16,-0.46,-0.43,-0.09,-53.39,-10.04,33.07
12116,-8.85,-3.09,3.58,-0.23,-0.45,-0.13,-53.39,-10.04,33.07
12126,-8.85,-3.09,3.58,-0.23,-0.45,-0.13,-53.39,-10.04,33.07
12137,-8.81,-3.63,3.47,0.07,-0.26,-0.13,-53.39,-10.04,33.07
12148,-8.81,-3.63,3.47,0.07,-0.26,-0.13,-53.39,-10.04,33.07
12159,-8.75,-3.18,4.08,0.23,-0.13,-0.08,-52.68,-10.20,33.22
12170,-8.75,-3.18,4.08,0.23,-0.13,-0.08,-52.68,-10.20,33.22
12181,-8.63,-2.87,4.30,0.21,-0.04,-0.10,-52.68,-10.20,33.22
12192,-8.63,-2.87,4.30,0.21,-0.04,-0.10,-52.68,-10.20,33.22
12203,-8.60,-3.31,4.13,0.09,0.06,-0.16,-52.68,-10.20,33.22
12214,-8.60,-3.31,4.13,0.09,0.06,-0.16,-52.68,-10.20,33.22
12225,-8.48,-3.86,3.44,0.05,0.15,-0.18,-52.68,-10.20,33.22
12236,-8.52,-3.81,3.33,0.13,0.15,-0.10,-52.68,-10.20,33.22
12247,-8.52,-3.81,3.33,0.13,0.15,-0.10,-52.68,-10.20,33.22
12258,-8.72,-3.36,4.29,0.13,0.18,-0.05,-52.68,-10.20,33.22
12269,-8.72,-3.36,4.29,0.13,0.18,-0.05,-52.68,-10.20,33.22
12280,-8.84,-3.25,3.86,0.08,0.26,-0.01,-52.68,-10.20,33.22
12291,-8.84,-3.25,3.86,0.08,0.26,-0.01,-52.68,-10.20,33.22
12302,-8.57,-3.43,3.67,0.03,0.36,0.09,-53.63,-9.55,34.11
12313,-8.57,-3.43,3.67,0.03,0.36,0.09,-53.63,-9.55,34.11
12324,-8.41,-3.42,3.15,-0.04,0.37,0.21,-53.63,-9.55,34.11
12335,-8.41,-3.42,3.15,-0.04,0.37,0.21,-53.63,-9.55,34.11
12346,-8.37,-2.80,2.88,-0.11,0.25,0.33,-53.63,-9.55,34.11
12357,-8.50,-3.25,3.55,-0.19,0.13,0.32,-53.63,-9.55,34.11
12368,-8.50,-3.25,3.55,-0.19,0.13,0.32,-53.63,-9.55,34.11
12379,-8.51,-2.30,3.06,-0.31,0.04,0.36,-53.63,-9.55,34.11
12390,-8.51,-2.30,3.06,-0.31,0.04,0.36,-53.63,-9.55,34.11
12401,-8.48,-1.55,1.50,-0.97,-0.03,0.36,-53.63,-9.55,34.11
12412,-8.48,-1.55,1.50,-0.97,-0.03,0.36,-53.63,-9.55,34.11
12423,-8.64,-3.10,3.98,-0.48,-0.21,0.22,-54.58,-9.55,32.62
12434,-8.64,-3.10,3.98,-0.48,-0.21,0.22,-54.58,-9.55,32.62
12445,-8.52,-3.49,3.17,-0.34,-0.25,0.13,-54.58,-9.55,32.62
12456,-8.53,-3.29,3.27,-0.34,-0.26,0.08,-54.58,-9.55,32.62
12467,-8.53,-3.29,3.27,-0.34,-0.26,0.08,-54.58,-9.55,32.62
12478,-8.78,-3.15,3.17,-0.41,-0.29,0.02,-54.58,-9.55,32.62
12489,-8.78,-3.15,3.17,-0.41,-0.29,0.02,-54.58,-9.55,32.62
12500,-8.74,-3.83,3.88,-0.30,-0.28,0.01,-54.58,-9.55,32.62
12511,-8.74,-3.83,3.88,-0.30,-0.28,0.01,-54.58,-9.55,32.62
12522,-8.84,-2.61,3.53,-0.19,-0.14,0.07,-54.58,-9.55,32.62
12533,-8.84,-2.61,3.53,-0.19,-0.14,0.07,-54.58,-9.55,32.62
12544,-8.84,-2.84,4.52,-0.10,-0.01,-0.03,-52.68,-9.87,33.51
12555,-8.84,-2.84,4.52,-0.10,-0.01,-0.03,-52.68,-9.87,33.51
12567,-8.65,-3.35,3.59,-0.10,0.19,-0.12,-52.68,-9.87,33.51
12577,-8.52,-3.43,4.11,0.12,0.27,-0.10,-52.68,-9.87,33.51
12588,-8.52,-3.43,4.11,0.12,0.27,-0.10,-52.68,-9.87,33.51
12599,-8.45,-1.91,5.46,0.33,0.41,-0.12,-52.68,-9.87,33.51
12610,-8.45,-1.91,5.46,0.33,0.41,-0.12,-52.68,-9.87,33.51
12621,-8.93,-1.99,5.22,0.26,0.71,-0.35,-52.68,-9.87,33.51
12632,-8.93,-1.99,5.22,0.26,0.71,-0.35,-52.68,-9.87,33.51
12643,-8.66,-2.30,2.60,-0.05,0.99,-0.61,-52.68,-9.87,33.51
12654,-8.66,-2.30,2.60,-0.05,0.99,-0.61,-52.68,-9.87,33.51
12665,-8.41,-4.24,0.73,-0.04,0.91,-0.75,-52.68,-9.87,33.51
12676,-8.36,-5.28,0.25,0.38,0.56,-0.61,-57.20,-12.30,30.09
12687,-8.36,-5.28,0.25,0.38,0.56,-0.61,-57.20,-12.30,30.09
12698,-8.56,-4.38,1.08,1.14,0.15,-0.31,-57.20,-12.30,30.09
12709,-8.56,-4.38,1.08,1.14,0.15,-0.31,-57.20,-12.30,30.09
12720,-8.87,-2.69,4.30,1.30,-0.12,-0.17,-57.20,-12.30,30.09
12731,-8.87,-2.69,4.30,1.30,-0.12,-0.17,-57.20,-12.30,30.09
12742,-8.87,-2.26,4.40,0.51,-0.02,-0.32,-57.20,-12.30,30.09
12753,-8.87,-2.26,4.40,0.51,-0.02,-0.32,-57.20,-12.30,30.09
12764,-8.59,-3.51,2.49,0.14,0.15,-0.52,-57.20,-12.30,30.09
12775,-8.59,-3.51,2.49,0.14,0.15,-0.52,-57.20,-12.30,30.09
12786,-8.45,-4.20,1.60,0.28,0.10,-0.53,-57.20,-12.30,30.09
12797,-8.59,-3.88,3.68,0.48,-0.10,-0.44,-56.72,-9.71,31.28
12808,-8.59,-3.88,3.68,0.48,-0.10,-0.44,-56.72,-9.71,31.28
12819,-8.45,-4.70,3.40,0.16,-0.08,-0.40,-56.72,-9.71,31.28
12830,-8.45,-4.70,3.40,0.16,-0.08,-0.40,-56.72,-9.71,31.28
12841,-8.38,-4.59,2.00,-0.08,-0.06,-0.27,-56.72,-9.71,31.28
12852,-8.38,-4.59,2.00,-0.08,-0.06,-0.27,-56.72,-9.71,31.28
12863,-8.41,-4.26,2.34,0.05,-0.22,-0.13,-56.72,-9.71,31.28
12874,-8.41,-4.26,2.34,0.05,-0.22,-0.13,-56.72,-9.71,31.28
12885,-8.44,-3.94,3.30,0.22,-0.35,-0.06,-56.72,-9.71,31.28
12896,-8.48,-3.82,4.58,0.10,-0.34,-0.05,-56.72,-9.71,31.28
12907,-8.48,-3.82,4.58,0.10,-0.34,-0.05,-56.72,-9.71,31.28
12918,-8.51,-3.49,4.48,-0.16,-0.17,-0.05,-55.06,-10.84,32.62
12929,-8.51,-3.49,4.48,-0.16,-0.17,-0.05,-55.06,-10.84,32.62
12940,-8.53,-3.32,4.10,-0.26,0.03,-0.10,-55.06,-10.84,32.62
12951,-8.53,-3.32,4.10,-0.26,0.03,-0.10,-55.06,-10.84,32.62
12962,-8.34,-4.18,2.81,-0.24,0.13,-0.18,-55.06,-10.84,32.62
12973,-8.34,-4.18,2.81,-0.24,0.13,-0.18,-55.06,-10.84,32.62
12984,-8.30,-4.80,2.83,-0.14,0.08,-0.13,-55.06,-10.84,32.62
12995,-8.30,-4.80,2.83,-0.14,0.08,-0.13,-55.06,-10.84,32.62
13006,-8.29,-4.32,2.35,-0.16,-0.02,0.01,-55.06,-10.84,32.62
13017,-8.37,-4.22,2.86,-0.07,-0.16,0.09,-55.06,-10.84,32.62
13028,-8.37,-4.22,2.86,-0.07,-0.16,0.09,-55.06,-10.84,32.62
13039,-8.46,-3.48,3.94,0.08,-0.20,0.13,-55.06,-9.55,32.32
13050,-8.46,-3.48,3.94,0.08,-0.20,0.13,-55.06,-9.55,32.32
13061,-8.51,-2.92,4.63,-0.02,-0.09,0.04,-55.06,-9.55,32.32
13072,-8.51,-2.92,4.63,-0.02,-0.09,0.04,-55.06,-9.55,32.32
13083,-7.93,-3.36,3.04,-0.30,0.04,-0.13,-55.06,-9.55,32.32
13094,-7.93,-3.36,3.04,-0.30,0.04,-0.13,-55.06,-9.55,32.32
13106,-8.20,-4.98,2.94,-0.16,-0.18,-0.31,-55.06,-9.55,32.32
13116,-8.52,-4.87,3.55,-0.02,-0.22,-0.20,-55.06,-9.55,32.32
13127,-8.52,-4.87,3.55,-0.02,-0.22,-0.20,-55.06,-9.55,32.32
13138,-8.37,-4.18,3.40,-0.07,-0.12,-0.06,-55.06,-9.55,32.32
13149,-8.37,-4.18,3.40,-0.07,-0.12,-0.06,-55.06,-9.55,32.32
13160,-8.33,-3.47,3.51,-0.06,-0.09,-0.04,-55.06,-9.55,32.32
13171,-8.33,-3.47,3.51,-0.06,-0.09,-0.04,-55.06,-9.55,32.32
13182,-8.40,-4.07,3.52,-0.02,-0.05,-0.11,-52.68,-11.17,32.92
13193,-8.40,-4.07,3.52,-0.02,-0.05,-0.11,-52.68,-11.17,32.92
13204,-8.44,-4.11,3.01,0.02,-0.01,-0.12,-52.68,-11.17,32.92
13215,-8.44,-4.11,3.01,0.02,-0.01,-0.12,-52.68,-11.17,32.92
13226,-8.61,-4.04,3.75,0.12,0.01,-0.10,-52.68,-11.17,32.92
13237,-8.43,-4.45,3.93,0.01,0.22,-0.15,-52.68,-11.17,32.92
13248,-8.43,-4.45,3.93,0.01,0.22,-0.15,-52.68,-11.17,32.92
13259,-8.30,-4.10,3.27,-0.10,0.32,-0.12,-52.68,-11.17,32.92
13270,-8.30,-4.10,3.27,-0.10,0.32,-0.12,-52.68,-11.17,32.92
13281,-8.48,-4.22,3.15,-0.05,0.25,-0.05,-52.68,-11.17,32.92
13292,-8.48,-4.22,3.15,-0.05,0.25,-0.05,-52.68,-11.17,32.92
13303,-8.48,-4.48,3.07,-0.02,0.26,0.03,-55.29,-12.30,31.88
13314,-8.48,-4.48,3.07,-0.02,0.26,0.03,-55.29,-12.30,31.88
13325,-8.70,-4.47,2.56,0.14,0.21,0.18,-55.29,-12.30,31.88
13336,-8.70,-4.47,2.56,0.14,0.21,0.18,-55.29,-12.30,31.88
13347,-8.21,-4.27,3.94,0.28,0.09,0.33,-55.29,-12.30,31.88
13358,-8.20,-2.63,2.89,0.05,0.09,0.39,-55.29,-12.30,31.88
13369,-8.20,-2.63,2.89,0.05,0.09,0.39,-55.29,-12.30,31.88
13380,-8.14,-4.77,3.51,0.06,-0.00,0.22,-55.29,-12.30,31.88
13391,-8.14,-4.77,3.51,0.06,-0.00,0.22,-55.29,-12.30,31.88
13402,-8.33,-3.40,3.06,-0.03,-0.15,0.28,-55.29,-12.30,31.88
13413,-8.33,-3.40,3.06,-0.03,-0.15,0.28,-55.29,-12.30,31.88
13424,-8.17,-3.34,3.06,-0.20,-0.32,0.29,-53.63,-10.52,32.32
13435,-8.17,-3.34,3.06,-0.20,-0.32,0.29,-53.63,-10.52,32.32
13446,-7.94,-3.44,3.04,-0.28,-0.45,0.30,-53.63,-10.52,32.32
13457,-7.97,-3.91,3.09,-0.21,-0.38,0.17,-53.63,-10.52,32.32
13468,-7.97,-3.91,3.09,-0.21,-0.38,0.17,-53.63,-10.52,32.32
13479,-8.29,-3.66,3.52,-0.23,-0.36,0.04,-53.63,-10.52,32.32
13490,-8.29,-3.66,3.52,-0.23,-0.36,0.04,-53.63,-10.52,32.32
13501,-8.57,-3.93,3.58,-0.30,-0.33,-0.10,-53.63,-10.52,32.32
13512,-8.57,-3.93,3.58,-0.30,-0.33,-0.10,-53.63,-10.52,32.32
13523,-8.64,-4.03,3.38,-0.16,-0.23,-0.17,-53.63,-10.52,32.32
13534,-8.64,-4.03,3.38,-0.16,-0.23,-0.17,-53.63,-10.52,32.32
13545,-8.57,-4.41,3.25,0.04,-0.12,-0.14,-53.63,-10.52,32.32
13556,-8.57,-4.41,3.25,0.04,-0.12,-0.14,-53.63,-10.52,32.32
13567,-8.39,-3.52,3.57,0.11,-0.06,-0.09,-53.63,-11.17,32.03
13578,-8.54,-4.54,4.35,0.17,0.05,-0.17,-53.63,-11.17,32.03
13589,-8.54,-4.54,4.35,0.17,0.05,-0.17,-53.63,-11.17,32.03
13600,-8.50,-4.12,3.03,0.10,0.17,-0.13,-53.63,-11.17,32.03
13611,-8.50,-4.12,3.03,0.10,0.17,-0.13,-53.63,-11.17,32.03
13622,-8.57,-3.78,3.40,0.09,0.22,-0.05,-53.63,-11.17,32.03
13633,-8.57,-3.78,3.40,0.09,0.22,-0.05,-53.63,-11.17,32.03
13644,-8.58,-4.05,4.14,0.18,0.25,0.01,-53.63,-11.17,32.03
13655,-8.58,-4.05,4.14,0.18,0.25,0.01,-53.63,-11.17,32.03
13666,-8.57,-4.23,3.55,0.12,0.32,0.12,-53.63,-11.17,32.03
13677,-8.08,-4.25,3.72,0.05,0.28,0.24,-54.34,-10.36,33.07
13688,-8.08,-4.25,3.72,0.05,0.28,0.24,-54.34,-10.36,33.07
13699,-8.45,-3.37,2.88,-0.15,0.17,0.37,-54.34,-10.36,33.07
13710,-8.45,-3.37,2.88,-0.15,0.17,0.37,-54.34,-10.36,33.07
13721,-8.08,-3.93,2.84,-0.21,0.05,0.39,-54.34,-10.36,33.07
13732,-8.08,-3.93,2.84,-0.21,0.05,0.39,-54.34,-10.36,33.07
13743,-8.28,-2.72,3.20,-0.20,-0.14,0.37,-54.34,-10.36,33.07
13755,-8.28,-2.72,3.20,-0.20,-0.14,0.37,-54.34,-10.36,33.07
13765,-8.27,-3.36,3.45,-0.13,-0.29,0.25,-54.34,-10.36,33.07
13776,-8.27,-3.36,3.45,-0.13,-0.29,0.25,-54.34,-10.36,33.07
13787,-8.26,-3.26,3.04,-0.17,-0.42,0.20,-54.34,-10.36,33.07
13798,-8.23,-3.56,3.59,-0.25,-0.48,0.11,-54.11,-11.17,32.92
13809,-8.23,-3.56,3.59,-0.25,-0.48,0.11,-54.11,-11.17,32.92
13825,-8.55,-3.77,3.31,-0.27,-0.44,0.03,-54.11,-11.17,32.92
13831,-8.55,-3.77,3.31,-0.27,-0.44,0.03,-54.11,-11.17,32.92
13842,-8.69,-4.28,3.16,-0.12,-0.30,-0.07,-54.11,-11.17,32.92
13853,-8.69,-4.28,3.16,-0.12,-0.30,-0.07,-54.11,-11.17,32.92
13864,-8.67,-3.30,3.40,0.05,-0.22,-0.09,-54.11,-11.17,32.92
13875,-8.67,-3.30,3.40,0.05,-0.22,-0.09,-54.11,-11.17,32.92
13886,-8.66,-3.37,3.81,0.14,-0.13,-0.12,-54.11,-11.17,32.92
13897,-8.63,-3.66,3.95,0.14,-0.02,-0.13,-54.11,-11.17,32.92
13908,-8.63,-3.66,3.95,0.14,-0.02,-0.13,-54.11,-11.17,32.92
13919,-8.67,-4.05,3.95,0.09,0.13,-0.17,-54.11,-11.17,32.92
13930,-8.67,-4.05,3.95,0.09,0.13,-0.17,-54.11,-11.17,32.92
13941,-8.23,-4.14,2.96,0.08,0.25,-0.12,-52.44,-11.33,32.17
13952,-8.23,-4.14,2.96,0.08,0.25,-0.12,-52.44,-11.33,32.17
13963,-8.63,-3.90,3.68,0.20,0.22,-0.02,-52.44,-11.33,32.17
13974,-8.63,-3.90,3.68,0.20,0.22,-0.02,-52.44,-11.33,32.17
13985,-8.51,-2.83,3.39,0.19,0.25,0.04,-52.44,-11.33,32.17
13996,-8.51,-2.83,3.39,0.19,0.25,0.04,-52.44,-11.33,32.17
14007,-8.72,-3.73,3.95,0.11,0.28,0.01,-52.44,-11.33,32.17
14018,-8.02,-4.66,3.98,-0.10,0.35,0.12,-52.44,-11.33,32.17
14029,-8.02,-4.66,3.98,-0.10,0.35,0.12,-52.44,-11.33,32.17
14040,-8.15,-4.38,3.22,-0.24,0.24,0.25,-52.44,-11.33,32.17
14051,-8.15,-4.38,3.22,-0.24,0.24,0.25,-52.44,-11.33,32.17
14062,-8.48,-3.24,2.66,-0.25,0.09,0.31,-56.01,-9.87,32.32
14073,-8.48,-3.24,2.66,-0.25,0.09,0.31,-56.01,-9.87,32.32
14084,-8.18,-2.90,2.55,-0.23,-0.08,0.36,-56.01,-9.87,32.32
14095,-8.18,-2.90,2.55,-0.23,-0.08,0.36,-56.01,-9.87,32.32
14106,-8.08,-2.68,3.11,-0.12,-0.33,0.30,-56.01,-9.87,32.32
14117,-8.14,-3.63,3.61,-0.09,-0.44,0.20,-56.01,-9.87,32.32
14128,-8.14,-3.63,3.61,-0.09,-0.44,0.20,-56.01,-9.87,32.32
14139,-8.24,-3.48,4.02,-0.19,-0.45,0.14,-56.01,-9.87,32.32
14150,-8.24,-3.48,4.02,-0.19,-0.45,0.14,-56.01,-9.87,32.32
14161,-8.45,-3.99,2.88,-0.39,-0.34,0.01,-56.01,-9.87,32.32
14172,-8.45,-3.99,2.88,-0.39,-0.34,0.01,-56.01,-9.87,32.32
14183,-8.55,-3.99,3.54,-0.31,-0.35,0.00,-52.20,-11.49,33.81
14194,-8.55,-3.99,3.54,-0.31,-0.35,0.00,-52.20,-11.49,33.81
14205,-8.56,-3.96,3.05,-0.05,-0.26,-0.03,-52.20,-11.49,33.81
14216,-8.56,-3.96,3.05,-0.05,-0.26,-0.03,-52.20,-11.49,33.81
14227,-8.73,-2.94,3.66,0.11,-0.21,-0.04,-52.20,-11.49,33.81
14238,-8.68,-3.40,3.85,0.13,-0.09,-0.12,-52.20,-11.49,33.81
14249,-8.68,-3.40,3.85,0.13,-0.09,-0.12,-52.20,-11.49,33.81
14260,-8.56,-3.28,3.78,0.12,-0.00,-0.13,-52.20,-11.49,33.81
14271,-8.56,-3.28,3.78,0.12,-0.00,-0.13,-52.20,-11.49,33.81
14282,-8.52,-4.34,3.95,0.11,0.11,-0.19,-52.20,-11.49,33.81
14293,-8.52,-4.34,3.95,0.11,0.11,-0.19,-52.20,-11.49,33.81
14304,-8.26,-4.12,3.29,0.10,0.19,-0.13,-52.20,-11.49,33.81
14316,-8.26,-4.12,3.29,0.10,0.19,-0.13,-52.20,-11.49,33.81
14326,-8.52,-3.38,4.05,0.15,0.15,-0.05,-52.20,-11.49,33.81
14337,-8.52,-3.38,4.05,0.15,0.15,-0.05,-52.20,-11.49,33.81
14348,-8.28,-3.40,3.55,0.11,0.23,-0.02,-52.20,-11.49,33.81
14359,-8.66,-3.97,4.36,0.12,0.23,0.01,-52.20,-11.49,33.81
14370,-8.66,-3.97,4.36,0.12,0.23,0.01,-52.20,-11.49,33.81
14381,-8.78,-3.90,4.25,0.07,0.27,0.09,-52.20,-11.49,33.81
14392,-8.78,-3.90,4.25,0.07,0.27,0.09,-52.20,-11.49,33.81
14403,-8.44,-3.23,3.04,-0.06,0.29,0.20,-52.20,-11.49,33.81
14414,-8.44,-3.23,3.04,-0.06,0.29,0.20,-52.20,-11.49,33.81
14425,-8.30,-4.17,3.98,-0.13,0.18,0.26,-52.20,-11.49,33.81
14436,-8.30,-4.17,3.98,-0.13,0.18,0.26,-52.20,-11.49,33.81
14447,-8.20,-3.59,3.56,-0.24,0.10,0.31,-52.92,-11.00,33.07
14458,-8.30,-2.47,2.95,-0.32,-0.05,0.30,-52.92,-11.00,33.07
14469,-8.30,-2.47,2.95,-0.32,-0.05,0.30,-52.92,-11.00,33.07
14480,-8.44,-3.07,2.63,-0.25,-0.28,0.20,-52.92,-11.00,33.07
14491,-8.44,-3.07,2.63,-0.25,-0.28,0.20,-52.92,-11.00,33.07
14502,-8.42,-2.71,3.41,-0.15,-0.50,0.19,-52.92,-11.00,33.07
14513,-8.42,-2.71,3.41,-0.15,-0.50,0.19,-52.92,-11.00,33.07
14524,-8.26,-3.91,3.26,-0.20,-0.50,0.04,-52.92,-11.00,33.07
14535,-8.26,-3.91,3.26,-0.20,-0.50,0.04,-52.92,-11.00,33.07
14546,-8.58,-3.58,3.82,-0.33,-0.51,-0.02,-52.92,-11.00,33.07
14557,-8.58,-3.58,3.82,-0.33,-0.51,-0.02,-52.92,-11.00,33.07
14568,-8.51,-3.92,3.51,-0.30,-0.37,-0.12,-51.49,-11.33,33.66
14579,-8.73,-3.70,3.67,-0.08,-0.27,-0.11,-51.49,-11.33,33.66
14590,-8.73,-3.70,3.67,-0.08,-0.27,-0.11,-51.49,-11.33,33.66
14601,-8.77,-3.35,3.92,0.09,-0.14,-0.11,-51.49,-11.33,33.66
14617,-8.77,-3.35,3.92,0.09,-0.14,-0.11,-51.49,-11.33,33.66
14623,-8.80,-3.18,4.66,0.15,-0.00,-0.13,-51.49,-11.33,33.66
14634,-8.80,-3.18,4.66,0.15,-0.00,-0.13,-51.49,-11.33,33.66
14645,-8.66,-4.26,3.63,-0.00,0.25,-0.23,-51.49,-11.33,33.66
14656,-8.66,-4.26,3.63,-0.00,0.25,-0.23,-51.49,-11.33,33.66
14667,-8.59,-3.67,3.24,-0.06,0.35,-0.10,-51.49,-11.33,33.66
14678,-8.16,-4.13,3.44,0.06,0.36,0.02,-52.68,-10.84,33.22
14689,-8.16,-4.13,3.44,0.06,0.36,0.02,-52.68,-10.84,33.22
14700,-8.44,-4.00,4.29,0.08,0.31,0.18,-52.68,-10.84,33.22
14711,-8.44,-4.00,4.29,0.08,0.31,0.18,-52.68,-10.84,33.22
14722,-8.44,-3.67,3.41,-0.01,0.27,0.28,-52.68,-10.84,33.22
14733,-8.44,-3.67,3.41,-0.01,0.27,0.28,-52.68,-10.84,33.22
14744,-8.43,-3.35,3.81,-0.06,0.16,0.32,-52.68,-10.84,33.22
14755,-8.43,-3.35,3.81,-0.06,0.16,0.32,-52.68,-10.84,33.22
14766,-8.29,-3.15,3.41,-0.19,0.10,0.34,-52.68,-10.84,33.22
14777,-8.29,-3.15,3.41,-0.19,0.10,0.34,-52.68,-10.84,33.22
14788,-8.05,-2.47,2.58,-0.33,-0.09,0.33,-52.68,-10.84,33.22
14799,-8.32,-2.28,3.73,-0.20,-0.36,0.26,-52.68,-10.84,33.22
14810,-8.32,-2.28,3.73,-0.20,-0.36,0.26,-52.68,-10.84,33.22
14821,-8.49,-3.51,3.07,-0.10,-0.35,0.10,-53.63,-10.20,33.22
14832,-8.49,-3.51,3.07,-0.10,-0.35,0.10,-53.63,-10.20,33.22
14843,-8.29,-3.67,3.24,-0.03,-0.35,0.03,-53.63,-10.20,33.22
14854,-8.29,-3.67,3.24,-0.03,-0.35,0.03,-53.63,-10.20,33.22
14865,-8.17,-3.53,3.68,-0.04,-0.37,-0.06,-53.63,-10.20,33.22
14876,-8.17,-3.53,3.68,-0.04,-0.37,-0.06,-53.63,-10.20,33.22
14887,-8.53,-3.23,4.30,-0.24,-0.43,-0.11,-53.63,-10.20,33.22
14898,-8.55,-3.20,3.34,-0.32,-0.35,-0.15,-53.63,-10.20,33.22
14909,-8.55,-3.20,3.34,-0.32,-0.35,-0.15,-53.63,-10.20,33.22
14920,-8.97,-4.14,4.25,0.00,-0.24,-0.13,-53.63,-10.20,33.22
14931,-8.97,-4.14,4.25,0.00,-0.24,-0.13,-53.63,-10.20,33.22
14942,-8.48,-3.39,3.39,0.17,-0.08,-0.04,-52.20,-11.49,34.11
14953,-8.48,-3.39,3.39,0.17,-0.08,-0.04,-52.20,-11.49,34.11
14965,-8.61,-2.94,4.54,0.22,-0.06,-0.05,-52.20,-11.49,34.11
14975,-8.61,-2.94,4.54,0.22,-0.06,-0.05,-52.20,-11.49,34.11
14986,-8.53,-3.29,4.47,0.07,0.08,-0.13,-52.20,-11.49,34.11
14997,-8.53,-3.29,4.47,0.07,0.08,-0.13,-52.20,-11.49,34.11
15008,-8.40,-3.79,3.14,-0.03,0.19,-0.17,-52.20,-11.49,34.11
15019,-8.71,-3.56,3.70,0.04,0.18,-0.08,-52.20,-11.49,34.11
15030,-8.71,-3.56,3.70,0.04,0.18,-0.08,-52.20,-11.49,34.11
15041,-8.60,-3.50,4.13,0.13,0.23,-0.04,-52.20,-11.49,34.11
15052,-8.60,-3.50,4.13,0.13,0.23,-0.04,-52.20,-11.49,34.11
15063,-8.69,-3.10,4.26,0.13,0.28,0.01,-51.25,-10.84,33.22
15074,-8.69,-3.10,4.26,0.13,0.28,0.01,-51.25,-10.84,33.22
15085,-8.69,-3.47,4.06,0.08,0.34,0.06,-51.25,-10.84,33.22
15096,-8.69,-3.47,4.06,0.08,0.34,0.06,-51.25,-10.84,33.22
15107,-8.47,-3.58,2.89,-0.02,0.37,0.16,-51.25,-10.84,33.22
15118,-8.39,-2.63,3.05,-0.06,0.23,0.32,-51.25,-10.84,33.22
15129,-8.39,-2.63,3.05,-0.06,0.23,0.32,-51.25,-10.84,33.22
15140,-8.29,-4.60,3.81,-0.09,0.09,0.33,-51.25,-10.84,33.22
15151,-8.29,-4.60,3.81,-0.09,0.09,0.33,-51.25,-10.84,33.22
15162,-8.53,-1.41,3.09,-0.15,-0.08,0.51,-51.25,-10.84,33.22
15173,-8.53,-1.41,3.09,-0.15,-0.08,0.51,-51.25,-10.84,33.22
15184,-8.56,-2.32,3.73,-0.04,-0.27,0.36,-51.25,-10.84,33.22
15195,-8.56,-2.32,3.73,-0.04,-0.27,0.36,-51.25,-10.84,33.22
15206,-8.49,-3.06,3.99,0.00,-0.36,0.27,-52.20,-9.87,34.11
15218,-8.49,-3.06,3.99,0.00,-0.36,0.27,-52.20,-9.87,34.11
15228,-8.65,-3.57,3.57,-0.03,-0.30,0.14,-52.20,-9.87,34.11
15239,-8.65,-3.95,2.90,-0.04,-0.14,0.03,-52.20,-9.87,34.11
15250,-8.65,-3.95,2.90,-0.04,-0.14,0.03,-52.20,-9.87,34.11
15261,-8.78,-2.43,4.62,0.04,-0.07,0.06,-52.20,-9.87,34.11
15272,-8.78,-2.43,4.62,0.04,-0.07,0.06,-52.20,-9.87,34.11
15283,-8.74,-2.25,4.98,-0.13,0.11,-0.02,-52.20,-9.87,34.11
15294,-8.74,-2.25,4.98,-0.13,0.11,-0.02,-52.20,-9.87,34.11
15305,-8.52,-2.93,4.67,-0.45,0.32,-0.14,-52.20,-9.87,34.11
15316,-8.52,-2.93,4.67,-0.45,0.32,-0.14,-52.20,-9.87,34.11
15327,-8.60,-3.62,3.34,-0.61,0.46,-0.19,-51.73,-10.20,32.92
15338,-8.60,-3.62,3.34,-0.61,0.46,-0.19,-51.73,-10.20,32.92
15349,-8.68,-3.44,3.38,-0.32,0.48,-0.14,-51.73,-10.20,32.92
15360,-8.71,-3.11,3.51,0.01,0.51,-0.10,-51.73,-10.20,32.92
15371,-8.71,-3.11,3.51,0.01,0.51,-0.10,-51.73,-10.20,32.92
15382,-8.79,-2.51,4.12,0.23,0.58,-0.13,-51.73,-10.20,32.92
15393,-8.79,-2.51,4.12,0.23,0.58,-0.13,-51.73,-10.20,32.92
15404,-8.74,-2.60,3.81,0.21,0.71,-0.24,-51.73,-10.20,32.92
15415,-8.74,-2.60,3.81,0.21,0.71,-0.24,-51.73,-10.20,32.92
15426,-8.87,-2.21,3.12,-0.00,0.81,-0.38,-51.73,-10.20,32.92
15437,-8.87,-2.21,3.12,-0.00,0.81,-0.38,-51.73,-10.20,32.92
15448,-8.76,-2.56,1.63,-0.02,0.82,-0.55,-55.29,-11.97,31.28
15459,-8.67,-3.83,1.02,0.29,0.64,-0.67,-55.29,-11.97,31.28
15470,-8.67,-3.83,1.02,0.29,0.64,-0.67,-55.29,-11.97,31.28
15481,-8.60,-4.42,1.20,0.67,0.37,-0.63,-55.29,-11.97,31.28
15492,-8.60,-4.42,1.20,0.67,0.37,-0.63,-55.29,-11.97,31.28
15503,-8.54,-4.08,1.24,0.85,0.10,-0.49,-55.29,-11.97,31.28
15514,-8.54,-4.08,1.24,0.85,0.10,-0.49,-55.29,-11.97,31.28
15525,-8.74,-4.17,3.68,0.58,-0.07,-0.41,-55.29,-11.97,31.28
15536,-8.74,-4.17,3.68,0.58,-0.07,-0.41,-55.29,-11.97,31.28
15547,-8.61,-4.76,2.84,0.36,0.01,-0.31,-55.29,-11.97,31.28
15558,-8.61,-4.76,2.84,0.36,0.01,-0.31,-55.29,-11.97,31.28
15569,-8.75,-3.44,2.69,0.47,0.01,-0.16,-55.29,-11.97,31.28
15580,-8.72,-2.61,2.89,0.56,-0.00,-0.20,-54.82,-11.00,30.98
15591,-8.72,-2.61,2.89,0.56,-0.00,-0.20,-54.82,-11.00,30.98
15602,-8.72,-3.00,2.65,0.27,-0.04,-0.38,-54.82,-11.00,30.98
15613,-8.72,-3.00,2.65,0.27,-0.04,-0.38,-54.82,-11.00,30.98
15624,-8.48,-4.84,1.79,0.08,-0.11,-0.49,-54.82,-11.00,30.98
15635,-8.48,-4.84,1.79,0.08,-0.11,-0.49,-54.82,-11.00,30.98
15646,-8.27,-5.30,1.20,0.33,-0.31,-0.30,-54.82,-11.00,30.98
15657,-8.27,-5.30,1.20,0.33,-0.31,-0.30,-54.82,-11.00,30.98
15669,-8.50,-3.99,4.09,0.68,-0.52,-0.03,-54.82,-11.00,30.98
15679,-8.58,-3.35,4.76,0.38,-0.42,0.00,-54.82,-11.00,30.98
15690,-8.58,-3.35,4.76,0.38,-0.42,0.00,-54.82,-11.00,30.98
15701,-8.50,-3.68,3.92,0.18,-0.20,-0.08,-54.82,-10.04,31.58
15712,-8.50,-3.68,3.92,0.18,-0.20,-0.08,-54.82,-10.04,31.58
15723,-8.52,-3.67,4.38,0.18,-0.07,-0.10,-54.82,-10.04,31.58
15734,-8.52,-3.67,4.38,0.18,-0.07,-0.10,-54.82,-10.04,31.58
15745,-8.45,-4.04,3.86,-0.07,0.06,-0.10,-54.82,-10.04,31.58
15756,-8.45,-4.04,3.86,-0.07,0.06,-0.10,-54.82,-10.04,31.58
15767,-8.39,-4.15,2.54,-0.31,0.09,-0.07,-54.82,-10.04,31.58
15778,-8.39,-4.15,2.54,-0.31,0.09,-0.07,-54.82,-10.04,31.58
15789,-8.39,-4.19,2.93,-0.21,-0.01,0.01,-54.82,-10.04,31.58
15800,-8.52,-3.24,3.23,-0.18,-0.08,0.06,-54.82,-10.04,31.58
15811,-8.52,-3.24,3.23,-0.18,-0.08,0.06,-54.82,-10.04,31.58
15822,-8.45,-3.42,3.64,-0.21,-0.08,-0.01,-54.58,-10.52,32.62
15833,-8.45,-3.42,3.64,-0.21,-0.08,-0.01,-54.58,-10.52,32.62
15844,-8.50,-3.78,3.74,-0.26,-0.06,-0.08,-54.58,-10.52,32.62
15855,-8.50,-3.78,3.74,-0.26,-0.06,-0.08,-54.58,-10.52,32.62
15866,-8.01,-3.90,1.90,-0.24,-0.13,-0.05,-54.58,-10.52,32.62
15877,-8.01,-3.90,1.90,-0.24,-0.13,-0.05,-54.58,-10.52,32.62
15888,-8.41,-4.10,4.18,-0.09,-0.34,0.04,-54.58,-10.52,32.62
15899,-8.25,-3.95,2.95,-0.13,-0.20,0.02,-54.58,-10.52,32.62
15910,-8.25,-3.95,2.95,-0.13,-0.20,0.02,-54.58,-10.52,32.62
15921,-8.75,-3.96,3.42,-0.03,-0.25,0.01,-54.58,-10.52,32.62
15932,-8.75,-3.96,3.42,-0.03,-0.25,0.01,-54.58,-10.52,32.62
15943,-8.53,-3.28,2.85,-0.04,-0.21,-0.06,-53.16,-11.81,32.32
15954,-8.53,-3.28,2.85,-0.04,-0.21,-0.06,-53.16,-11.81,32.32
15965,-8.64,-3.90,3.49,0.09,-0.18,-0.15,-53.16,-11.81,32.32
15976,-8.64,-3.90,3.49,0.09,-0.18,-0.15,-53.16,-11.81,32.32
15988,-8.52,-3.95,4.05,0.14,-0.06,-0.18,-53.16,-11.81,32.32
15998,-8.52,-3.95,4.05,0.14,-0.06,-0.18,-53.16,-11.81,32.32
16009,-8.53,-4.02,3.82,0.03,0.11,-0.22,-53.16,-11.81,32.32
16020,-8.66,-4.34,3.04,-0.05,0.24,-0.19,-53.16,-11.81,32.32
16031,-8.66,-4.34,3.04,-0.05,0.24,-0.19,-53.16,-11.81,32.32
16042,-8.48,-4.01,3.74,-0.08,0.29,-0.11,-53.16,-11.81,32.32
16053,-8.48,-4.01,3.74,-0.08,0.29,-0.11,-53.16,-11.81,32.32
16064,-8.32,-3.98,2.41,-0.02,0.34,-0.02,-53.16,-11.81,32.32
16075,-8.32,-3.98,2.41,-0.02,0.34,-0.02,-53.16,-11.81,32.32
16086,-8.31,-4.50,3.76,0.10,0.26,0.12,-53.63,-12.78,32.32
16097,-8.31,-4.50,3.76,0.10,0.26,0.12,-53.63,-12.78,32.32
16108,-8.33,-1.90,1.11,0.02,0.25,0.24,-53.63,-12.78,32.32
16119,-8.33,-1.90,1.11,0.02,0.25,0.24,-53.63,-12.78,32.32
16130,-8.58,-5.59,4.67,0.23,0.06,0.13,-53.63,-12.78,32.32
16141,-8.12,-2.40,2.74,-0.11,0.15,0.35,-53.63,-12.78,32.32
16152,-8.12,-2.40,2.74,-0.11,0.15,0.35,-53.63,-12.78,32.32
16163,-8.20,-4.61,3.60,-0.08,-0.01,0.25,-53.63,-12.78,32.32
16174,-8.20,-4.61,3.60,-0.08,-0.01,0.25,-53.63,-12.78,32.32
16185,-8.23,-3.41,3.29,-0.20,-0.22,0.36,-53.63,-12.78,32.32
16196,-8.23,-3.41,3.29,-0.20,-0.22,0.36,-53.63,-12.78,32.32
16207,-8.12,-3.58,3.00,-0.25,-0.37,0.31,-55.53,-10.52,31.73
16218,-8.12,-3.58,3.00,-0.25,-0.37,0.31,-55.53,-10.52,31.73
16229,-8.35,-3.20,3.19,-0.17,-0.48,0.28,-55.53,-10.52,31.73
16240,-8.14,-4.08,3.23,-0.10,-0.46,0.12,-55.53,-10.52,31.73
16251,-8.14,-4.08,3.23,-0.10,-0.46,0.12,-55.53,-10.52,31.73
16262,-8.53,-3.66,3.31,-0.11,-0.44,0.03,-55.53,-10.52,31.73
16273,-8.53,-3.66,3.31,-0.11,-0.44,0.03,-55.53,-10.52,31.73
16284,-8.43,-3.71,3.13,-0.10,-0.39,-0.09,-55.53,-10.52,31.73
16295,-8.43,-3.71,3.13,-0.10,-0.39,-0.09,-55.53,-10.52,31.73
16306,-8.70,-4.03,3.81,0.00,-0.29,-0.16,-55.53,-10.52,31.73
16317,-8.70,-4.03,3.81,0.00,-0.29,-0.16,-55.53,-10.52,31.73
16328,-8.72,-3.85,3.63,0.09,-0.15,-0.14,-51.25,-11.81,33.22
16339,-8.72,-3.85,3.63,0.09,-0.15,-0.14,-51.25,-11.81,33.22
16350,-8.44,-3.49,4.00,0.18,-0.05,-0.13,-51.25,-11.81,33.22
16361,-8.43,-4.35,3.99,0.19,0.14,-0.22,-51.25,-11.81,33.22
16372,-8.43,-4.35,3.99,0.19,0.14,-0.22,-51.25,-11.81,33.22
16383,-8.35,-3.58,3.34,0.10,0.26,-0.18,-51.25,-11.81,33.22
16394,-8.35,-3.58,3.34,0.10,0.26,-0.18,-51.25,-11.81,33.22
16405,-8.64,-4.04,4.00,0.13,0.30,-0.14,-51.25,-11.81,33.22
16416,-8.64,-4.04,4.00,0.13,0.30,-0.14,-51.25,-11.81,33.22
16427,-8.40,-3.72,4.04,0.08,0.35,-0.03,-51.25,-11.81,33.22
16438,-8.40,-3.72,4.04,0.08,0.35,-0.03,-51.25,-11.81,33.22
16449,-8.56,-4.30,4.27,0.03,0.36,0.04,-51.25,-11.81,33.22
16460,-8.69,-3.25,2.83,-0.16,0.35,0.20,-53.63,-11.81,33.22
16471,-8.69,-3.25,2.83,-0.16,0.35,0.20,-53.63,-11.81,33.22
16482,-8.28,-3.12,3.11,-0.27,0.24,0.34,-53.63,-11.81,33.22
16493,-8.28,-3.12,3.11,-0.27,0.24,0.34,-53.63,-11.81,33.22
16504,-8.16,-3.70,2.65,-0.32,0.07,0.40,-53.63,-11.81,33.22
16515,-8.16,-3.70,2.65,-0.32,0.07,0.40,-53.63,-11.81,33.22
16526,-8.04,-2.49,2.73,-0.31,-0.18,0.41,-53.63,-11.81,33.22
16537,-8.04,-2.49,2.73,-0.31,-0.18,0.41,-53.63,-11.81,33.22
16549,-8.39,-3.40,3.77,-0.29,-0.37,0.24,-53.63,-11.81,33.22
16559,-8.39,-3.40,3.77,-0.29,-0.37,0.24,-53.63,-11.81,33.22
16570,-8.17,-3.19,3.22,-0.26,-0.47,0.16,-53.63,-11.81,33.22
16581,-8.44,-3.85,3.44,-0.17,-0.51,0.03,-53.63,-11.17,32.32
16592,-8.44,-3.85,3.44,-0.17,-0.51,0.03,-53.63,-11.17,32.32
16603,-8.44,-4.12,3.47,-0.30,-0.40,-0.05,-53.63,-11.17,32.32
16614,-8.44,-4.12,3.47,-0.30,-0.40,-0.05,-53.63,-11.17,32.32
16625,-8.46,-4.14,2.95,-0.25,-0.30,-0.04,-53.63,-11.17,32.32
16636,-8.46,-4.14,2.95,-0.25,-0.30,-0.04,-53.63,-11.17,32.32
16647,-8.72,-3.56,3.72,-0.04,-0.24,-0.01,-53.63,-11.17,32.32
16658,-8.72,-3.56,3.72,-0.04,-0.24,-0.01,-53.63,-11.17,32.32
16669,-8.66,-3.29,3.74,0.07,-0.10,-0.04,-53.63,-11.17,32.32
16680,-8.51,-3.32,3.69,0.09,-0.01,-0.09,-53.63,-11.17,32.32
16691,-8.51,-3.32,3.69,0.09,-0.01,-0.09,-53.63,-11.17,32.32
16702,-8.68,-3.70,4.07,0.12,0.05,-0.15,-51.97,-10.68,33.07
16713,-8.68,-3.70,4.07,0.12,0.05,-0.15,-51.97,-10.68,33.07
16724,-8.14,-4.41,2.47,0.02,0.28,-0.22,-51.97,-10.68,33.07
16735,-8.14,-4.41,2.47,0.02,0.28,-0.22,-51.97,-10.68,33.07
16746,-8.75,-3.77,4.61,0.08,0.20,-0.12,-51.97,-10.68,33.07
16757,-8.75,-3.77,4.61,0.08,0.20,-0.12,-51.97,-10.68,33.07
16768,-8.50,-3.36,3.51,0.10,0.23,-0.06,-51.97,-10.68,33.07
16779,-8.50,-3.36,3.51,0.10,0.23,-0.06,-51.97,-10.68,33.07
16790,-8.63,-3.12,3.64,0.12,0.22,-0.01,-51.97,-10.68,33.07
16801,-8.52,-4.50,4.20,0.08,0.31,0.01,-51.97,-10.68,33.07
16812,-8.52,-4.50,4.20,0.08,0.31,0.01,-51.97,-10.68,33.07
16823,-8.30,-3.70,2.81,-0.05,0.35,0.17,-51.97,-10.68,33.07
16834,-8.30,-3.70,2.81,-0.05,0.35,0.17,-51.97,-10.68,33.07
16845,-8.46,-3.99,3.62,-0.09,0.18,0.26,-52.44,-11.00,32.17
16856,-8.46,-3.99,3.62,-0.09,0.18,0.26,-52.44,-11.00,32.17
16867,-8.21,-3.17,2.72,-0.24,0.11,0.33,-52.44,-11.00,32.17
16878,-8.21,-3.17,2.72,-0.24,0.11,0.33,-52.44,-11.00,32.17
16890,-8.35,-2.78,3.38,-0.19,-0.11,0.34,-52.44,-11.00,32.17
16900,-8.09,-3.07,2.61,-0.17,-0.25,0.23,-52.44,-11.00,32.17
16911,-8.09,-3.07,2.61,-0.17,-0.25,0.23,-52.44,-11.00,32.17
16922,-8.01,-3.63,2.72,-0.14,-0.41,0.13,-52.44,-11.00,32.17
16933,-8.01,-3.63,2.72,-0.14,-0.41,0.13,-52.44,-11.00,32.17
16944,-8.58,-3.85,3.99,-0.13,-0.53,0.12,-52.44,-11.00,32.17
16955,-8.58,-3.85,3.99,-0.13,-0.53,0.12,-52.44,-11.00,32.17
16966,-8.48,-3.56,3.59,-0.32,-0.41,0.06,-53.63,-11.49,32.92
16977,-8.48,-3.56,3.59,-0.32,-0.41,0.06,-53.63,-11.49,32.92
16988,-8.67,-3.72,3.30,-0.36,-0.31,-0.04,-53.63,-11.49,32.92
16999,-8.67,-3.72,3.30,-0.36,-0.31,-0.04,-53.63,-11.49,32.92
17010,-8.47,-3.79,3.02,-0.20,-0.25,-0.07,-53.63,-11.49,32.92
17021,-8.74,-3.46,4.01,0.06,-0.18,-0.05,-53.63,-11.49,32.92
17032,-8.74,-3.46,4.01,0.06,-0.18,-0.05,-53.63,-11.49,32.92
17043,-8.60,-3.09,3.82,0.11,-0.08,-0.08,-53.63,-11.49,32.92
17054,-8.60,-3.09,3.82,0.11,-0.08,-0.08,-53.63,-11.49,32.92
17065,-8.56,-3.50,3.79,0.10,-0.01,-0.14,-53.63,-11.49,32.92
17076,-8.56,-3.50,3.79,0.10,-0.01,-0.14,-53.63,-11.49,32.92
17087,-8.48,-4.49,3.48,0.07,0.10,-0.17,-51.97,-11.65,34.26
17098,-8.48,-4.49,3.48,0.07,0.10,-0.17,-51.97,-11.65,34.26
17109,-8.73,-3.85,4.30,0.07,0.17,-0.08,-51.97,-11.65,34.26
17121,-8.37,-3.79,2.59,0.03,0.31,-0.05,-51.97,-11.65,34.26
17131,-8.37,-3.79,2.59,0.03,0.31,-0.05,-51.97,-11.65,34.26
17142,-8.58,-3.06,3.60,0.11,0.26,0.06,-51.97,-11.65,34.26
17153,-8.58,-3.06,3.60,0.11,0.26,0.06,-51.97,-11.65,34.26
17164,-8.76,-3.85,4.04,0.06,0.30,0.09,-51.97,-11.65,34.26
17175,-8.76,-3.85,4.04,0.06,0.30,0.09,-51.97,-11.65,34.26
17186,-8.44,-3.39,2.70,-0.07,0.33,0.21,-51.97,-11.65,34.26
17197,-8.44,-3.39,2.70,-0.07,0.33,0.21,-51.97,-11.65,34.26
17208,-8.38,-3.82,3.29,-0.11,0.20,0.26,-53.87,-11.33,32.77
17219,-8.38,-3.82,3.29,-0.11,0.20,0.26,-53.87,-11.33,32.77
17230,-8.27,-2.88,3.26,-0.17,0.07,0.33,-53.87,-11.33,32.77
17241,-8.19,-3.01,2.44,-0.21,-0.11,0.26,-53.87,-11.33,32.77
17252,-8.19,-3.01,2.44,-0.21,-0.11,0.26,-53.87,-11.33,32.77
17263,-8.32,-2.45,3.58,-0.16,-0.44,0.26,-53.87,-11.33,32.77
17274,-8.32,-2.45,3.58,-0.16,-0.44,0.26,-53.87,-11.33,32.77
17285,-8.56,-3.24,3.69,-0.10,-0.49,0.13,-53.87,-11.33,32.77
17296,-8.56,-3.24,3.69,-0.10,-0.49,0.13,-53.87,-11.33,32.77
17307,-8.33,-3.81,2.76,-0.10,-0.44,-0.00,-53.87,-11.33,32.77
17318,-8.33,-3.81,2.76,-0.10,-0.44,-0.00,-53.87,-11.33,32.77
17329,-8.56,-4.13,3.70,-0.12,-0.40,-0.09,-53.87,-11.33,32.77
17340,-8.56,-4.13,3.70,-0.12,-0.40,-0.09,-53.87,-11.33,32.77
17351,-8.29,-3.51,3.47,-0.15,-0.31,-0.11,-51.25,-11.81,32.62
17362,-8.98,-3.35,3.82,-0.06,-0.29,-0.14,-51.25,-11.81,32.62
17373,-8.98,-3.35,3.82,-0.06,-0.29,-0.14,-51.25,-11.81,32.62
17384,-8.80,-3.17,3.67,0.05,-0.16,-0.13,-51.25,-11.81,32.62
17395,-8.80,-3.17,3.67,0.05,-0.16,-0.13,-51.25,-11.81,32.62
17406,-8.69,-3.67,3.89,0.12,-0.01,-0.13,-51.25,-11.81,32.62
17417,-8.69,-3.67,3.89,0.12,-0.01,-0.13,-51.25,-11.81,32.62
17428,-8.77,-3.76,4.04,0.11,0.12,-0.12,-51.25,-11.81,32.62
17439,-8.77,-3.76,4.04,0.11,0.12,-0.12,-51.25,-11.81,32.62
17450,-8.45,-3.78,3.64,0.04,0.28,-0.10,-51.25,-11.81,32.62
17461,-8.55,-3.76,3.78,0.10,0.34,-0.03,-50.07,-12.30,33.07
17472,-8.55,-3.76,3.78,0.10,0.34,-0.03,-50.07,-12.30,33.07
17483,-8.63,-3.75,4.62,0.13,0.37,0.10,-50.07,-12.30,33.07
17494,-8.63,-3.75,4.62,0.13,0.37,0.10,-50.07,-12.30,33.07
17505,-8.37,-3.48,3.25,-0.04,0.43,0.18,-50.07,-12.30,33.07
17516,-8.37,-3.48,3.25,-0.04,0.43,0.18,-50.07,-12.30,33.07
17527,-8.17,-4.09,3.93,-0.08,0.29,0.23,-50.07,-12.30,33.07
17538,-8.17,-4.09,3.93,-0.08,0.29,0.23,-50.07,-12.30,33.07
17549,-8.29,-3.04,2.72,-0.17,0.16,0.27,-50.07,-12.30,33.07
17560,-8.29,-3.04,2.72,-0.17,0.16,0.27,-50.07,-12.30,33.07
17571,-8.42,-2.56,3.20,-0.14,-0.03,0.27,-50.07,-12.30,33.07
17582,-8.43,-2.86,3.19,-0.16,-0.28,0.28,-51.25,-10.20,33.51
17593,-8.43,-2.86,3.19,-0.16,-0.28,0.28,-51.25,-10.20,33.51
17604,-8.78,-2.19,4.04,-0.17,-0.44,0.29,-51.25,-10.20,33.51
17616,-8.78,-2.19,4.04,-0.17,-0.44,0.29,-51.25,-10.20,33.51
17626,-8.34,-4.15,3.16,-0.12,-0.34,0.08,-51.25,-10.20,33.51
17637,-8.34,-4.15,3.16,-0.12,-0.34,0.08,-51.25,-10.20,33.51
17648,-8.61,-3.58,4.02,-0.10,-0.38,0.08,-51.25,-10.20,33.51
17659,-8.61,-3.58,4.02,-0.10,-0.38,0.08,-51.25,-10.20,33.51
17670,-8.57,-3.47,3.14,-0.28,-0.33,-0.01,-51.25,-10.20,33.51
17681,-8.53,-2.61,3.32,-0.36,-0.36,-0.08,-51.25,-10.20,33.51
17692,-8.53,-2.61,3.32,-0.36,-0.36,-0.08,-51.25,-10.20,33.51
17703,-8.69,-3.04,4.06,-0.16,-0.32,-0.16,-51.25,-10.20,33.51
17714,-8.69,-3.04,4.06,-0.16,-0.32,-0.16,-51.25,-10.20,33.51
17730,-8.70,-3.94,4.33,0.08,-0.18,-0.19,-51.97,-12.30,33.66
17736,-8.70,-3.94,4.33,0.08,-0.18,-0.19,-51.97,-12.30,33.66
17747,-8.57,-3.70,3.44,0.12,-0.10,-0.12,-51.97,-12.30,33.66
17758,-8.57,-3.70,3.44,0.12,-0.10,-0.12,-51.97,-12.30,33.66
17769,-8.54,-3.37,3.38,0.10,-0.07,-0.06,-51.97,-12.30,33.66
17780,-8.54,-3.37,3.38,0.10,-0.07,-0.06,-51.97,-12.30,33.66
17791,-8.61,-3.44,4.12,0.15,-0.06,-0.04,-51.97,-12.30,33.66
17802,-8.72,-3.59,4.81,0.12,0.09,-0.08,-51.97,-12.30,33.66
17813,-8.72,-3.59,4.81,0.12,0.09,-0.08,-51.97,-12.30,33.66
17824,-8.47,-3.57,3.76,0.02,0.31,-0.10,-51.97,-12.30,33.66
17835,-8.47,-3.57,3.76,0.02,0.31,-0.10,-51.97,-12.30,33.66
17846,-8.55,-3.35,3.89,0.03,0.35,-0.03,-52.20,-12.13,34.11
17857,-8.55,-3.35,3.89,0.03,0.35,-0.03,-52.20,-12.13,34.11
17868,-8.59,-3.44,3.45,0.02,0.36,0.07,-52.20,-12.13,34.11
17879,-8.59,-3.44,3.45,0.02,0.36,0.07,-52.20,-12.13,34.11
17890,-8.19,-3.47,3.32,-0.03,0.34,0.20,-52.20,-12.13,34.11
17901,-8.38,-3.49,3.38,-0.09,0.23,0.30,-52.20,-12.13,34.11
17913,-8.38,-3.49,3.38,-0.09,0.23,0.30,-52.20,-12.13,34.11
17923,-8.16,-3.74,3.34,-0.10,0.07,0.39,-52.20,-12.13,34.11
17934,-8.16,-3.74,3.34,-0.10,0.07,0.39,-52.20,-12.13,34.11
17945,-8.28,-1.93,3.85,-0.16,-0.13,0.43,-52.20,-12.13,34.11
17956,-8.28,-1.93,3.85,-0.16,-0.13,0.43,-52.20,-12.13,34.11
17967,-8.26,-2.48,3.19,-0.25,-0.22,0.22,-53.16,-10.52,32.03
17978,-8.26,-2.48,3.19,-0.25,-0.22,0.22,-53.16,-10.52,32.03
17989,-8.39,-2.46,3.56,-0.23,-0.35,0.15,-53.16,-10.52,32.03
18000,-8.39,-2.46,3.56,-0.23,-0.35,0.15,-53.16,-10.52,32.03
18011,-8.44,-3.44,3.20,-0.14,-0.37,-0.01,-53.16,-10.52,32.03
18022,-8.26,-3.62,3.16,-0.11,-0.35,-0.08,-53.16,-10.52,32.03
18033,-8.26,-3.62,3.16,-0.11,-0.35,-0.08,-53.16,-10.52,32.03
18044,-8.85,-3.06,3.94,-0.10,-0.37,-0.08,-53.16,-10.52,32.03
18055,-8.85,-3.06,3.94,-0.10,-0.37,-0.08,-53.16,-10.52,32.03
18066,-8.67,-2.85,4.10,-0.07,-0.28,-0.12,-53.16,-10.52,32.03
18077,-8.67,-2.85,4.10,-0.07,-0.28,-0.12,-53.16,-10.52,32.03
18088,-8.78,-3.50,3.85,0.02,-0.17,-0.17,-53.16,-10.52,32.03
18099,-8.78,-3.50,3.85,0.02,-0.17,-0.17,-53.16,-10.52,32.03
18110,-8.59,-3.46,3.54,0.12,-0.06,-0.15,-50.07,-11.00,34.26
18121,-8.59,-3.46,3.54,0.12,-0.06,-0.15,-50.07,-11.00,34.26
18132,-8.65,-3.23,4.27,0.16,-0.01,-0.10,-50.07,-11.00,34.26
18143,-8.51,-3.42,3.83,0.10,0.12,-0.12,-50.07,-11.00,34.26
18154,-8.51,-3.42,3.83,0.10,0.12,-0.12,-50.07,-11.00,34.26
18166,-8.40,-3.20,3.45,0.04,0.17,-0.11,-50.07,-11.00,34.26
18176,-8.40,-3.20,3.45,0.04,0.17,-0.11,-50.07,-11.00,34.26
18187,-8.62,-3.58,4.11,0.06,0.15,-0.08,-50.07,-11.00,34.26
18198,-8.62,-3.58,4.11,0.06,0.15,-0.08,-50.07,-11.00,34.26
18209,-8.40,-3.56,3.24,0.06,0.21,-0.01,-50.07,-11.00,34.26
18220,-8.40,-3.56,3.24,0.06,0.21,-0.01,-50.07,-11.00,34.26
18231,-8.74,-3.54,4.17,0.14,0.18,0.08,-51.97,-11.00,34.85
18242,-8.37,-3.71,4.53,0.11,0.23,0.18,-51.97,-11.00,34.85
18253,-8.37,-3.71,4.53,0.11,0.23,0.18,-51.97,-11.00,34.85
18264,-8.53,-4.02,4.19,0.00,0.24,0.27,-51.97,-11.00,34.85
18275,-8.53,-4.02,4.19,0.00,0.24,0.27,-51.97,-11.00,34.85
18286,-8.22,-3.33,3.02,-0.07,0.17,0.39,-51.97,-11.00,34.85
18297,-8.22,-3.33,3.02,-0.07,0.17,0.39,-51.97,-11.00,34.85
18308,-8.19,-2.68,2.83,0.04,-0.01,0.51,-51.97,-11.00,34.85
18319,-8.19,-2.68,2.83,0.04,-0.01,0.51,-51.97,-11.00,34.85
18330,-9.34,-0.46,4.44,0.10,-0.25,0.55,-51.97,-11.00,34.85
18341,-9.34,-0.46,4.44,0.10,-0.25,0.55,-51.97,-11.00,34.85
18352,-8.29,-2.64,3.15,0.00,-0.15,0.27,-53.39,-10.68,33.66
18363,-8.41,-2.89,3.64,-0.17,-0.32,0.14,-53.39,-10.68,33.66
18374,-8.41,-2.89,3.64,-0.17,-0.32,0.14,-53.39,-10.68,33.66
18385,-8.53,-3.31,3.62,-0.13,-0.36,0.02,-53.39,-10.68,33.66
18396,-8.53,-3.31,3.62,-0.13,-0.36,0.02,-53.39,-10.68,33.66
18407,-8.45,-3.29,3.47,-0.14,-0.31,-0.12,-53.39,-10.68,33.66
18418,-8.45,-3.29,3.47,-0.14,-0.31,-0.12,-53.39,-10.68,33.66
18429,-8.56,-2.72,4.27,-0.19,-0.36,-0.17,-53.39,-10.68,33.66
18440,-8.56,-2.72,4.27,-0.19,-0.36,-0.17,-53.39,-10.68,33.66
18451,-9.01,-3.15,4.36,-0.22,-0.26,-0.19,-53.39,-10.68,33.66
18462,-8.68,-3.41,3.53,-0.04,-0.11,-0.10,-48.16,-10.04,33.96
18473,-8.68,-3.41,3.53,-0.04,-0.11,-0.10,-48.16,-10.04,33.96
18484,-8.58,-3.05,3.88,0.10,-0.08,-0.03,-48.16,-10.04,33.96
18495,-8.58,-3.05,3.88,0.10,-0.08,-0.03,-48.16,-10.04,33.96
18506,-8.58,-2.67,4.03,0.13,-0.05,-0.04,-48.16,-10.04,33.96
18517,-8.58,-2.67,4.03,0.13,-0.05,-0.04,-48.16,-10.04,33.96
18528,-8.50,-3.02,4.37,0.18,-0.00,-0.07,-48.16,-10.04,33.96
18539,-8.50,-3.02,4.37,0.18,-0.00,-0.07,-48.16,-10.04,33.96
18550,-8.43,-3.11,4.22,0.14,0.05,-0.05,-48.16,-10.04,33.96
18561,-8.43,-3.11,4.22,0.14,0.05,-0.05,-48.16,-10.04,33.96
18572,-8.45,-2.65,4.59,0.11,0.08,-0.05,-48.16,-10.04,33.96
18583,-8.54,-2.21,4.86,0.06,0.18,-0.12,-48.16,-10.04,33.96
18594,-8.54,-2.21,4.86,0.06,0.18,-0.12,-48.16,-10.04,33.96
18605,-8.62,-1.97,4.64,-0.08,0.30,-0.24,-49.83,-10.84,35.00
18616,-8.62,-1.97,4.64,-0.08,0.30,-0.24,-49.83,-10.84,35.00
18627,-8.52,-2.81,4.06,-0.19,0.40,-0.41,-49.83,-10.84,35.00
18638,-8.52,-2.81,4.06,-0.19,0.40,-0.41,-49.83,-10.84,35.00
18649,-8.28,-4.50,2.13,-0.35,0.39,-0.46,-49.83,-10.84,35.00
18660,-8.28,-4.50,2.13,-0.35,0.39,-0.46,-49.83,-10.84,35.00
18671,-8.32,-4.62,2.94,-0.16,0.15,-0.25,-49.83,-10.84,35.00
18682,-8.47,-3.29,3.79,0.01,0.00,-0.04,-49.83,-10.84,35.00
18693,-8.47,-3.29,3.79,0.01,0.00,-0.04,-49.83,-10.84,35.00
18705,-8.54,-2.82,3.91,-0.00,0.00,-0.03,-49.83,-10.84,35.00
18715,-8.54,-2.82,3.91,-0.00,0.00,-0.03,-49.83,-10.84,35.00
18726,-8.50,-3.43,3.69,-0.15,0.05,-0.11,-49.83,-11.17,34.11
18737,-8.50,-3.43,3.69,-0.15,0.05,-0.11,-49.83,-11.17,34.11
18748,-8.43,-3.64,3.03,-0.18,0.04,-0.08,-49.83,-11.17,34.11
18759,-8.43,-3.64,3.03,-0.18,0.04,-0.08,-49.83,-11.17,34.11
18770,-8.49,-3.30,3.59,-0.08,-0.04,-0.03,-49.83,-11.17,34.11
18781,-8.49,-3.30,3.59,-0.08,-0.04,-0.03,-49.83,-11.17,34.11
18792,-8.50,-3.22,3.99,-0.05,-0.05,-0.03,-49.83,-11.17,34.11
18803,-8.48,-3.29,3.90,-0.03,-0.00,-0.05,-49.83,-11.17,34.11
18814,-8.48,-3.29,3.90,-0.03,-0.00,-0.05,-49.83,-11.17,34.11
18825,-8.48,-3.28,3.68,-0.06,0.03,-0.07,-49.83,-11.17,34.11
18836,-8.48,-3.28,3.68,-0.06,0.03,-0.07,-49.83,-11.17,34.11
18847,-8.42,-3.47,3.09,-0.07,0.02,-0.08,-50.78,-12.46,33.81
18858,-8.42,-3.47,3.09,-0.07,0.02,-0.08,-50.78,-12.46,33.81
18869,-8.44,-3.68,3.85,0.03,-0.04,-0.05,-50.78,-12.46,33.81
18880,-8.44,-3.68,3.85,0.03,-0.04,-0.05,-50.78,-12.46,33.81
18891,-8.48,-3.58,4.34,0.04,-0.02,-0.01,-50.78,-12.46,33.81
18902,-8.49,-3.43,4.47,-0.07,0.08,0.01,-50.78,-12.46,33.81
18913,-8.49,-3.43,4.47,-0.07,0.08,0.01,-50.78,-12.46,33.81
18924,-8.48,-3.34,3.78,-0.19,0.20,0.02,-50.78,-12.46,33.81
18935,-8.48,-3.34,3.78,-0.19,0.20,0.02,-50.78,-12.46,33.81
18946,-8.58,-2.91,3.62,-0.21,0.24,-0.00,-50.78,-12.46,33.81
18957,-8.58,-2.91,3.62,-0.21,0.24,-0.00,-50.78,-12.46,33.81
18968,-8.65,-2.67,3.67,-0.24,0.25,-0.10,-50.78,-12.46,33.81
18980,-8.65,-2.67,3.67,-0.24,0.25,-0.10,-50.78,-12.46,33.81
18990,-9.19,-2.14,3.80,-0.14,0.29,-0.25,-51.97,-13.91,33.36
19001,-9.19,-2.14,3.80,-0.14,0.29,-0.25,-51.97,-13.91,33.36
19012,-12.63,0.85,5.03,-0.15,0.41,-0.60,-51.97,-13.91,33.36
19023,-10.03,1.30,9.23,-0.95,0.44,-1.65,-51.97,-13.91,33.36
19034,-10.03,1.30,9.23,-0.95,0.44,-1.65,-51.97,-13.91,33.36
19045,-6.25,-2.70,3.91,-1.85,1.01,-2.48,-51.97,-13.91,33.36
19056,-6.25,-2.70,3.91,-1.85,1.01,-2.48,-51.97,-13.91,33.36
19067,-4.30,-9.24,1.10,-1.67,1.17,-2.39,-51.97,-13.91,33.36
19078,-4.30,-9.24,1.10,-1.67,1.17,-2.39,-51.97,-13.91,33.36
19089,-5.12,-8.87,-0.36,-0.88,1.05,-1.21,-51.97,-13.91,33.36
19100,-5.12,-8.87,-0.36,-0.88,1.05,-1.21,-51.97,-13.91,33.36
19111,-6.49,-7.32,1.89,0.02,0.94,-0.41,-53.87,-21.65,28.31
19122,-6.49,-7.32,1.89,0.02,0.94,-0.41,-53.87,-21.65,28.31
19133,-7.02,-6.80,-1.09,0.56,1.19,-0.22,-53.87,-21.65,28.31
19144,-6.34,-7.80,-2.87,1.28,0.76,0.15,-53.87,-21.65,28.31
19155,-6.34,-7.80,-2.87,1.28,0.76,0.15,-53.87,-21.65,28.31
19166,-8.27,-4.30,-0.27,2.22,-0.15,0.98,-53.87,-21.65,28.31
19177,-8.27,-4.30,-0.27,2.22,-0.15,0.98,-53.87,-21.65,28.31
19188,-11.56,-0.29,6.66,1.85,-0.47,0.77,-53.87,-21.65,28.31
19199,-11.56,-0.29,6.66,1.85,-0.47,0.77,-53.87,-21.65,28.31
19211,-9.19,-5.06,4.14,0.87,0.37,-0.63,-53.87,-21.65,28.31
19221,-9.19,-5.06,4.14,0.87,0.37,-0.63,-53.87,-21.65,28.31
19232,-6.73,-6.83,-1.08,0.71,0.77,-0.77,-53.87,-17.46,29.50
19243,-8.09,-4.12,1.08,1.27,0.17,-0.26,-53.87,-17.46,29.50
19254,-8.09,-4.12,1.08,1.27,0.17,-0.26,-53.87,-17.46,29.50
19265,-9.46,-3.33,4.34,1.56,-0.17,-0.30,-53.87,-17.46,29.50
19276,-9.46,-3.33,4.34,1.56,-0.17,-0.30,-53.87,-17.46,29.50
19287,-8.67,-3.38,3.89,1.06,-0.12,-0.50,-53.87,-17.46,29.50
19298,-8.67,-3.38,3.89,1.06,-0.12,-0.50,-53.87,-17.46,29.50
19309,-7.74,-5.51,3.29,0.48,-0.17,-0.59,-53.87,-17.46,29.50
19320,-7.74,-5.51,3.29,0.48,-0.17,-0.59,-53.87,-17.46,29.50
19331,-9.27,-6.65,3.05,0.58,-0.16,-0.45,-53.87,-17.46,29.50
19342,-9.27,-6.65,3.05,0.58,-0.16,-0.45,-53.87,-17.46,29.50
19353,-6.91,-6.91,4.20,-0.08,-0.08,-0.42,-53.87,-17.46,29.50
19364,-6.72,-6.78,3.78,-0.20,0.31,-0.04,-51.73,-14.72,30.54
19375,-6.72,-6.78,3.78,-0.20,0.31,-0.04,-51.73,-14.72,30.54
19386,-7.94,-5.95,2.51,-0.65,0.26,0.56,-51.73,-14.72,30.54
19397,-7.94,-5.95,2.51,-0.65,0.26,0.56,-51.73,-14.72,30.54
19408,-9.69,-2.42,4.23,-0.87,-0.10,0.86,-51.73,-14.72,30.54
19419,-9.69,-2.42,4.23,-0.87,-0.10,0.86,-51.73,-14.72,30.54
19430,-7.81,-2.59,4.67,-1.23,-0.14,0.24,-51.73,-14.72,30.54
19442,-7.81,-2.59,4.67,-1.23,-0.14,0.24,-51.73,-14.72,30.54
19452,-8.17,-5.76,2.21,-0.99,0.10,-0.07,-51.73,-14.72,30.54
19463,-8.10,-5.04,1.21,-0.72,-0.00,0.18,-51.73,-14.72,30.54
19474,-8.10,-5.04,1.21,-0.72,-0.00,0.18,-51.73,-14.72,30.54
19485,-8.33,-4.78,2.57,-0.48,-0.14,0.16,-53.39,-17.46,29.79
19496,-8.33,-4.78,2.57,-0.48,-0.14,0.16,-53.39,-17.46,29.79
19507,-6.29,-7.07,1.00,-0.46,0.07,-0.13,-53.39,-17.46,29.79
19518,-6.29,-7.07,1.00,-0.46,0.07,-0.13,-53.39,-17.46,29.79
19529,-7.74,-5.76,1.52,0.13,0.05,0.22,-53.39,-17.46,29.79
19540,-7.74,-5.76,1.52,0.13,0.05,0.22,-53.39,-17.46,29.79
19551,-8.80,-3.29,2.95,0.47,-0.12,0.38,-53.39,-17.46,29.79
19562,-8.80,-3.29,2.95,0.47,-0.12,0.38,-53.39,-17.46,29.79
19573,-9.07,-3.65,3.39,0.49,-0.12,0.06,-53.39,-17.46,29.79
19584,-8.52,-4.45,2.64,0.25,-0.04,-0.24,-53.39,-17.46,29.79
19595,-8.52,-4.45,2.64,0.25,-0.04,-0.24,-53.39,-17.46,29.79
19606,-7.39,-5.01,2.20,0.24,0.03,-0.34,-51.97,-16.49,30.09
19617,-7.39,-5.01,2.20,0.24,0.03,-0.34,-51.97,-16.49,30.09
19628,-8.38,-5.34,2.84,0.41,-0.01,-0.11,-51.97,-16.49,30.09
19639,-8.38,-5.34,2.84,0.41,-0.01,-0.11,-51.97,-16.49,30.09
19650,-8.24,-4.36,3.33,0.26,-0.03,-0.05,-51.97,-16.49,30.09
19661,-8.24,-4.36,3.33,0.26,-0.03,-0.05,-51.97,-16.49,30.09
19672,-7.71,-5.67,2.47,0.08,0.03,-0.13,-51.97,-16.49,30.09
19683,-7.71,-5.33,2.55,0.12,0.01,0.03,-51.97,-16.49,30.09
19694,-7.71,-5.33,2.55,0.12,0.01,0.03,-51.97,-16.49,30.09
19705,-7.98,-5.04,2.57,0.22,0.01,0.12,-51.97,-16.49,30.09
19716,-7.98,-5.04,2.57,0.22,0.01,0.12,-51.97,-16.49,30.09
19727,-8.14,-4.80,2.57,0.22,-0.02,0.09,-53.39,-15.20,30.98
19738,-8.14,-4.80,2.57,0.22,-0.02,0.09,-53.39,-15.20,30.98
19749,-8.39,-4.21,3.08,0.19,-0.06,0.07,-53.39,-15.20,30.98
19760,-8.39,-4.21,3.08,0.19,-0.06,0.07,-53.39,-15.20,30.98
19771,-8.48,-4.24,3.42,0.13,-0.08,0.08,-53.39,-15.20,30.98
19782,-8.48,-4.24,3.42,0.13,-0.08,0.08,-53.39,-15.20,30.98
19793,-8.38,-4.13,3.35,0.03,-0.06,0.06,-53.39,-15.20,30.98
19804,-8.32,-4.87,2.80,0.02,0.01,-0.02,-53.39,-15.20,30.98
19815,-8.32,-4.87,2.80,0.02,0.01,-0.02,-53.39,-15.20,30.98
19826,-7.96,-5.04,2.73,0.00,0.02,-0.03,-53.39,-15.20,30.98
19837,-7.96,-5.04,2.73,0.00,0.02,-0.03,-53.39,-15.20,30.98
19848,-7.94,-4.85,2.77,0.00,0.02,0.02,-53.39,-15.20,30.98
19859,-7.94,-4.85,2.77,0.00,0.02,0.02,-53.39,-15.20,30.98
19870,-8.14,-4.64,2.98,0.02,-0.01,0.09,-53.63,-16.65,30.84
19881,-8.14,-4.64,2.98,0.02,-0.01,0.09,-53.63,-16.65,30.84
19892,-7.91,-4.86,2.84,0.04,-0.01,0.12,-53.63,-16.65,30.84
19903,-8.17,-4.83,2.66,0.15,-0.00,0.17,-53.63,-16.65,30.84
19914,-8.17,-4.83,2.66,0.15,-0.00,0.17,-53.63,-16.65,30.84
19925,-8.10,-4.64,2.69,0.19,-0.02,0.16,-53.63,-16.65,30.84
19936,-8.10,-4.64,2.69,0.19,-0.02,0.16,-53.63,-16.65,30.84
19947,-8.22,-4.58,2.98,0.18,-0.04,0.14,-53.63,-16.65,30.84
19958,-8.22,-4.58,2.98,0.18,-0.04,0.14,-53.63,-16.65,30.84
19969,-8.26,-4.23,3.20,0.12,-0.06,0.13,-53.63,-16.65,30.84
19980,-8.26,-4.23,3.20,0.12,-0.06,0.13,-53.63,-16.65,30.84
19991,-8.54,-4.14,3.29,0.07,-0.06,0.09,-54.82,-14.88,30.98
20008,-8.54,-4.14,3.29,0.07,-0.06,0.09,-54.82,-14.88,30.98
20013,-8.29,-4.41,2.93,0.04,-0.04,0.01,-54.82,-14.88,30.98
20024,-8.22,-4.64,2.94,0.05,-0.04,-0.00,-54.82,-14.88,30.98
20035,-8.22,-4.64,2.94,0.05,-0.04,-0.00,-54.82,-14.88,30.98
20046,-8.17,-4.43,2.95,0.05,-0.05,0.01,-54.82,-14.88,30.98
20057,-8.17,-4.43,2.95,0.05,-0.05,0.01,-54.82,-14.88,30.98
20068,-8.20,-4.39,3.11,0.05,-0.07,0.01,-54.82,-14.88,30.98
20079,-8.20,-4.39,3.11,0.05,-0.07,0.01,-54.82,-14.88,30.98
20090,-8.24,-4.52,2.97,0.09,-0.08,0.01,-54.82,-14.88,30.98
20101,-8.24,-4.52,2.97,0.09,-0.08,0.01,-54.82,-14.88,30.98
20112,-8.22,-4.44,3.23,0.09,-0.06,0.01,-53.63,-14.07,31.13
20123,-8.22,-4.44,3.23,0.09,-0.06,0.01,-53.63,-14.07,31.13
20134,-8.20,-4.36,3.23,0.08,-0.04,0.01,-53.63,-14.07,31.13
20145,-8.18,-4.45,3.17,0.05,-0.05,-0.01,-53.63,-14.07,31.13
20156,-8.18,-4.45,3.17,0.05,-0.05,-0.01,-53.63,-14.07,31.13
20167,-8.13,-4.25,3.09,0.01,-0.07,-0.02,-53.63,-14.07,31.13
20178,-8.13,-4.25,3.09,0.01,-0.07,-0.02,-53.63,-14.07,31.13
20189,-8.16,-4.59,3.15,0.03,-0.07,-0.07,-53.63,-14.07,31.13
20200,-8.16,-4.59,3.15,0.03,-0.07,-0.07,-53.63,-14.07,31.13
20211,-8.28,-4.63,3.04,0.07,-0.04,-0.07,-53.63,-14.07,31.13
20222,-8.28,-4.63,3.04,0.07,-0.04,-0.07,-53.63,-14.07,31.13
20233,-8.30,-4.11,2.92,0.06,0.01,-0.09,-53.63,-14.07,31.13
20244,-8.53,-4.81,3.92,0.09,0.09,-0.15,-53.63,-12.78,30.84
20255,-8.53,-4.81,3.92,0.09,0.09,-0.15,-53.63,-12.78,30.84
20266,-8.24,-3.97,2.47,-0.02,0.27,-0.13,-53.63,-12.78,30.84
20277,-8.24,-3.97,2.47,-0.02,0.27,-0.13,-53.63,-12.78,30.84
20288,-8.50,-5.01,3.43,-0.02,0.31,-0.22,-53.63,-12.78,30.84
20299,-8.50,-5.01,3.43,-0.02,0.31,-0.22,-53.63,-12.78,30.84
20310,-8.48,-4.51,3.15,-0.05,0.34,-0.11,-53.63,-12.78,30.84
20321,-8.48,-4.51,3.15,-0.05,0.34,-0.11,-53.63,-12.78,30.84
20332,-8.33,-4.73,2.36,0.04,0.34,0.00,-53.63,-12.78,30.84
20343,-8.33,-4.73,2.36,0.04,0.34,0.00,-53.63,-12.78,30.84
20354,-8.26,-4.87,3.43,0.13,0.19,0.16,-53.63,-12.78,30.84
20365,-8.11,-4.76,2.76,0.01,0.15,0.31,-55.53,-14.72,29.94
20376,-8.11,-4.76,2.76,0.01,0.15,0.31,-55.53,-14.72,29.94
20387,-8.12,-4.59,2.57,-0.14,-0.02,0.43,-55.53,-14.72,29.94
20398,-8.12,-4.59,2.57,-0.14,-0.02,0.43,-55.53,-14.72,29.94
20409,-7.92,-3.75,3.03,-0.09,-0.20,0.46,-55.53,-14.72,29.94
20420,-7.92,-3.75,3.03,-0.09,-0.20,0.46,-55.53,-14.72,29.94
20431,-7.99,-3.71,2.94,-0.03,-0.32,0.26,-55.53,-14.72,29.94
20442,-7.99,-3.71,2.94,-0.03,-0.32,0.26,-55.53,-14.72,29.94
20453,-8.30,-4.06,2.65,-0.07,-0.47,0.12,-55.53,-14.72,29.94
20464,-8.08,-4.52,3.66,-0.00,-0.57,0.03,-55.53,-14.72,29.94
20475,-8.08,-4.52,3.66,-0.00,-0.57,0.03,-55.53,-14.72,29.94
20486,-8.50,-4.48,3.00,-0.10,-0.46,-0.08,-53.39,-14.55,30.39
20497,-8.50,-4.48,3.00,-0.10,-0.46,-0.08,-53.39,-14.55,30.39
20508,-8.44,-4.76,3.29,-0.05,-0.29,-0.11,-53.39,-14.55,30.39
20519,-8.44,-4.76,3.29,-0.05,-0.29,-0.11,-53.39,-14.55,30.39
20530,-8.60,-4.22,3.07,-0.02,-0.15,-0.09,-53.39,-14.55,30.39
20541,-8.60,-4.22,3.07,-0.02,-0.15,-0.09,-53.39,-14.55,30.39
20552,-8.45,-4.07,3.72,0.04,-0.05,-0.09,-53.39,-14.55,30.39
20564,-8.45,-4.07,3.72,0.04,-0.05,-0.09,-53.39,-14.55,30.39
20574,-8.43,-4.20,3.85,-0.04,0.15,-0.16,-53.39,-14.55,30.39
20585,-8.32,-5.29,2.66,-0.06,0.33,-0.19,-53.39,-14.55,30.39
20596,-8.32,-5.29,2.66,-0.06,0.33,-0.19,-53.39,-14.55,30.39
20607,-8.57,-4.08,3.23,0.04,0.26,0.00,-53.39,-14.55,30.39
20618,-8.57,-4.08,3.23,0.04,0.26,0.00,-53.39,-14.55,30.39
20629,-8.42,-4.62,2.87,0.10,0.29,0.09,-53.87,-13.91,31.28
20640,-8.42,-4.62,2.87,0.10,0.29,0.09,-53.87,-13.91,31.28
20651,-8.30,-4.55,2.97,0.03,0.23,0.24,-53.87,-13.91,31.28
20662,-8.30,-4.55,2.97,0.03,0.23,0.24,-53.87,-13.91,31.28
20673,-8.10,-4.84,3.45,-0.08,0.14,0.34,-53.87,-13.91,31.28
20684,-8.00,-4.05,2.83,-0.18,0.04,0.40,-53.87,-13.91,31.28
20695,-8.00,-4.05,2.83,-0.18,0.04,0.40,-53.87,-13.91,31.28
20706,-8.19,-3.39,3.29,-0.12,-0.13,0.37,-53.87,-13.91,31.28
20717,-8.19,-3.39,3.29,-0.12,-0.13,0.37,-53.87,-13.91,31.28
20728,-8.18,-3.97,3.23,-0.15,-0.25,0.24,-53.87,-13.91,31.28
20739,-8.18,-3.97,3.23,-0.15,-0.25,0.24,-53.87,-13.91,31.28
20750,-7.94,-4.04,2.84,-0.11,-0.38,0.16,-53.63,-13.75,32.03
20761,-7.94,-4.04,2.84,-0.11,-0.38,0.16,-53.63,-13.75,32.03
20772,-8.26,-4.33,2.92,-0.05,-0.43,0.09,-53.63,-13.75,32.03
20783,-8.26,-4.33,2.92,-0.05,-0.43,0.09,-53.63,-13.75,32.03
20794,-8.30,-4.47,3.16,-0.02,-0.39,0.02,-53.63,-13.75,32.03
20805,-8.44,-4.03,2.98,-0.02,-0.31,-0.03,-53.63,-13.75,32.03
20816,-8.44,-4.03,2.98,-0.02,-0.31,-0.03,-53.63,-13.75,32.03
20827,-8.31,-4.01,3.72,-0.04,-0.23,-0.11,-53.63,-13.75,32.03
20838,-8.31,-4.01,3.72,-0.04,-0.23,-0.11,-53.63,-13.75,32.03
20849,-8.57,-3.98,3.39,-0.05,-0.15,-0.16,-53.63,-13.75,32.03
20860,-8.57,-3.98,3.39,-0.05,-0.15,-0.16,-53.63,-13.75,32.03
20871,-8.49,-4.36,3.24,0.01,-0.06,-0.15,-52.44,-12.94,31.88
20882,-8.49,-4.36,3.24,0.01,-0.06,-0.15,-52.44,-12.94,31.88
20893,-8.52,-3.88,3.97,0.05,0.02,-0.14,-52.44,-12.94,31.88
20904,-8.53,-4.80,3.27,0.03,0.21,-0.19,-52.44,-12.94,31.88
20915,-8.53,-4.80,3.27,0.03,0.21,-0.19,-52.44,-12.94,31.88
20926,-8.22,-4.21,2.71,-0.05,0.29,-0.08,-52.44,-12.94,31.88
20937,-8.22,-4.21,2.71,-0.05,0.29,-0.08,-52.44,-12.94,31.88
20948,-8.54,-4.63,3.83,-0.01,0.20,-0.02,-52.44,-12.94,31.88
20959,-8.54,-4.63,3.83,-0.01,0.20,-0.02,-52.44,-12.94,31.88
20970,-8.30,-3.67,2.49,-0.01,0.25,0.10,-52.44,-12.94,31.88
20981,-8.30,-3.67,2.49,-0.01,0.25,0.10,-52.44,-12.94,31.88
20992,-8.65,-4.42,3.74,0.01,0.21,0.17,-53.16,-13.75,31.13
21003,-8.65,-4.42,3.74,0.01,0.21,0.17,-53.16,-13.75,31.13
21014,-8.16,-3.87,2.89,-0.17,0.22,0.31,-53.16,-13.75,31.13
21025,-8.31,-3.87,2.41,-0.25,0.13,0.34,-53.16,-13.75,31.13
21036,-8.31,-3.87,2.41,-0.25,0.13,0.34,-53.16,-13.75,31.13
21047,-8.08,-3.88,2.20,-0.23,-0.07,0.38,-53.16,-13.75,31.13
21058,-8.08,-3.88,2.20,-0.23,-0.07,0.38,-53.16,-13.75,31.13
21069,-8.18,-2.90,3.68,-0.20,-0.30,0.39,-53.16,-13.75,31.13
21080,-8.18,-2.90,3.68,-0.20,-0.30,0.39,-53.16,-13.75,31.13
21091,-8.10,-4.07,2.89,-0.15,-0.29,0.17,-53.16,-13.75,31.13
21102,-8.10,-4.07,2.89,-0.15,-0.29,0.17,-53.16,-13.75,31.13
21113,-8.10,-4.23,3.33,-0.12,-0.38,0.12,-53.16,-13.75,31.13
21124,-8.10,-4.23,3.33,-0.12,-0.38,0.12,-53.16,-13.75,31.13
21135,-7.95,-4.20,3.11,-0.18,-0.43,0.08,-53.16,-12.13,32.03
21146,-8.53,-3.71,3.43,-0.28,-0.45,0.04,-53.16,-12.13,32.03
21157,-8.53,-3.71,3.43,-0.28,-0.45,0.04,-53.16,-12.13,32.03
21168,-8.58,-4.64,3.09,-0.14,-0.30,-0.07,-53.16,-12.13,32.03
21179,-8.58,-4.64,3.09,-0.14,-0.30,-0.07,-53.16,-12.13,32.03
21190,-8.65,-3.65,3.06,0.01,-0.18,-0.06,-53.16,-12.13,32.03
21201,-8.65,-3.65,3.06,0.01,-0.18,-0.06,-53.16,-12.13,32.03
21212,-8.57,-3.84,3.84,0.09,-0.08,-0.11,-53.16,-12.13,32.03
21223,-8.57,-3.84,3.84,0.09,-0.08,-0.11,-53.16,-12.13,32.03
21234,-8.47,-4.04,3.99,0.03,0.07,-0.16,-53.16,-12.13,32.03
21245,-8.31,-4.91,2.52,0.02,0.20,-0.16,-51.97,-13.26,31.28
21256,-8.31,-4.91,2.52,0.02,0.20,-0.16,-51.97,-13.26,31.28
21267,-8.43,-3.89,3.50,0.06,0.17,-0.02,-51.97,-13.26,31.28
21278,-8.43,-3.89,3.50,0.06,0.17,-0.02,-51.97,-13.26,31.28
21289,-8.37,-3.93,3.59,0.05,0.19,0.00,-51.97,-13.26,31.28
21300,-8.37,-3.93,3.59,0.05,0.19,0.00,-51.97,-13.26,31.28
21311,-8.51,-3.83,3.59,0.00,0.21,0.05,-51.97,-13.26,31.28
21322,-8.51,-3.83,3.59,0.00,0.21,0.05,-51.97,-13.26,31.28
21333,-8.50,-4.37,3.46,-0.05,0.23,0.11,-51.97,-13.26,31.28
21344,-8.50,-4.37,3.46,-0.05,0.23,0.11,-51.97,-13.26,31.28
21355,-8.29,-4.57,2.72,-0.12,0.19,0.20,-51.97,-13.26,31.28
21366,-8.31,-3.66,2.81,-0.16,0.08,0.32,-52.44,-13.59,30.98
21377,-8.31,-3.66,2.81,-0.16,0.08,0.32,-52.44,-13.59,30.98
21388,-8.30,-3.57,3.26,-0.20,-0.05,0.34,-52.44,-13.59,30.98
21399,-8.30,-3.57,3.26,-0.20,-0.05,0.34,-52.44,-13.59,30.98
21410,-8.10,-3.52,2.89,-0.27,-0.18,0.28,-52.44,-13.59,30.98
21421,-8.10,-3.52,2.89,-0.27,-0.18,0.28,-52.44,-13.59,30.98
21432,-8.04,-3.80,2.93,-0.19,-0.32,0.21,-52.44,-13.59,30.98
21448,-8.04,-3.80,2.93,-0.19,-0.32,0.21,-52.44,-13.59,30.98
21454,-8.04,-3.94,3.04,-0.03,-0.39,0.14,-52.44,-13.59,30.98
21465,-7.92,-4.34,2.98,0.00,-0.38,0.05,-52.44,-13.59,30.98
21476,-7.92,-4.34,2.98,0.00,-0.38,0.05,-52.44,-13.59,30.98
21487,-8.25,-3.87,3.58,-0.04,-0.45,-0.02,-52.44,-13.59,30.98
21498,-8.25,-3.87,3.58,-0.04,-0.45,-0.02,-52.44,-13.59,30.98
21509,-8.66,-4.08,3.71,-0.17,-0.44,-0.10,-51.02,-13.26,31.88
21520,-8.66,-4.08,3.71,-0.17,-0.44,-0.10,-51.02,-13.26,31.88
21531,-8.69,-3.51,3.67,-0.19,-0.32,-0.14,-51.02,-13.26,31.88
21542,-8.69,-3.51,3.67,-0.19,-0.32,-0.14,-51.02,-13.26,31.88
21553,-8.71,-4.11,3.46,-0.05,-0.11,-0.14,-51.02,-13.26,31.88
21564,-8.71,-4.11,3.46,-0.05,-0.11,-0.14,-51.02,-13.26,31.88
21575,-8.51,-4.07,3.73,0.04,0.01,-0.10,-51.02,-13.26,31.88
21587,-8.54,-4.43,3.86,0.01,0.14,-0.12,-51.02,-13.26,31.88
21597,-8.54,-4.43,3.86,0.01,0.14,-0.12,-51.02,-13.26,31.88
21608,-8.44,-3.94,2.93,-0.05,0.28,-0.06,-51.02,-13.26,31.88
21619,-8.44,-3.94,2.93,-0.05,0.28,-0.06,-51.02,-13.26,31.88
21630,-8.42,-4.30,3.21,0.04,0.28,0.03,-50.54,-13.26,32.77
21641,-8.42,-4.30,3.21,0.04,0.28,0.03,-50.54,-13.26,32.77
21652,-8.41,-4.33,3.89,0.11,0.26,0.14,-50.54,-13.26,32.77
21663,-8.41,-4.33,3.89,0.11,0.26,0.14,-50.54,-13.26,32.77
21674,-8.27,-3.50,3.23,0.03,0.25,0.22,-50.54,-13.26,32.77
21685,-8.19,-3.80,3.30,-0.09,0.19,0.24,-50.54,-13.26,32.77
21696,-8.19,-3.80,3.30,-0.09,0.19,0.24,-50.54,-13.26,32.77
21707,-8.55,-4.27,3.47,-0.19,0.11,0.24,-50.54,-13.26,32.77
21718,-8.55,-4.27,3.47,-0.19,0.11,0.24,-50.54,-13.26,32.77
21729,-8.43,-2.13,2.86,-0.30,0.01,0.32,-50.54,-13.26,32.77
21740,-8.43,-2.13,2.86,-0.30,0.01,0.32,-50.54,-13.26,32.77
21751,-8.52,-3.33,3.51,-0.25,-0.17,0.20,-52.20,-13.10,31.73
21762,-8.52,-3.33,3.51,-0.25,-0.17,0.20,-52.20,-13.10,31.73
21773,-8.42,-3.50,2.84,-0.24,-0.25,0.15,-52.20,-13.10,31.73
21784,-8.42,-3.50,2.84,-0.24,-0.25,0.15,-52.20,-13.10,31.73
21795,-8.10,-4.15,3.01,-0.16,-0.30,0.05,-52.20,-13.10,31.73
21806,-8.08,-4.14,3.14,-0.11,-0.33,-0.01,-52.20,-13.10,31.73
21817,-8.08,-4.14,3.14,-0.11,-0.33,-0.01,-52.20,-13.10,31.73
21828,-8.35,-3.94,3.39,-0.17,-0.39,-0.03,-52.20,-13.10,31.73
21839,-8.35,-3.94,3.39,-0.17,-0.39,-0.03,-52.20,-13.10,31.73
21850,-8.76,-3.22,4.02,-0.23,-0.34,-0.06,-52.20,-13.10,31.73
21861,-8.76,-3.22,4.02,-0.23,-0.34,-0.06,-52.20,-13.10,31.73
21872,-8.54,-3.89,3.04,-0.18,-0.20,-0.12,-52.20,-13.10,31.73
21883,-8.54,-3.89,3.04,-0.18,-0.20,-0.12,-52.20,-13.10,31.73
21894,-8.33,-3.81,2.74,-0.02,-0.15,-0.09,-50.54,-14.23,33.07
21905,-8.56,-4.14,3.57,0.12,-0.09,-0.11,-50.54,-14.23,33.07
21916,-8.56,-4.14,3.57,0.12,-0.09,-0.11,-50.54,-14.23,33.07
21927,-8.44,-3.99,3.25,0.19,-0.00,-0.09,-50.54,-14.23,33.07
21938,-8.44,-3.99,3.25,0.19,-0.00,-0.09,-50.54,-14.23,33.07
21949,-8.53,-3.78,3.75,0.18,0.06,-0.09,-50.54,-14.23,33.07
21960,-8.53,-3.78,3.75,0.18,0.06,-0.09,-50.54,-14.23,33.07
21971,-8.44,-3.57,3.62,0.11,0.19,-0.11,-50.54,-14.23,33.07
21982,-8.44,-3.57,3.62,0.11,0.19,-0.11,-50.54,-14.23,33.07
21993,-8.27,-4.27,3.15,0.08,0.20,-0.08,-50.54,-14.23,33.07
22004,-8.27,-4.27,3.15,0.08,0.20,-0.08,-50.54,-14.23,33.07
22015,-8.43,-3.99,4.20,0.09,0.14,0.01,-50.30,-13.75,32.32
22026,-8.30,-4.14,3.16,0.06,0.23,0.03,-50.30,-13.75,32.32
22037,-8.30,-4.14,3.16,0.06,0.23,0.03,-50.30,-13.75,32.32
22048,-8.61,-4.19,3.61,0.05,0.21,0.09,-50.30,-13.75,32.32
22059,-8.61,-4.19,3.61,0.05,0.21,0.09,-50.30,-13.75,32.32
22070,-8.40,-4.12,3.64,-0.09,0.21,0.22,-50.30,-13.75,32.32
22081,-8.40,-4.12,3.64,-0.09,0.21,0.22,-50.30,-13.75,32.32
22092,-8.41,-4.05,2.82,-0.20,0.15,0.28,-50.30,-13.75,32.32
22103,-8.41,-4.05,2.82,-0.20,0.15,0.28,-50.30,-13.75,32.32
22114,-8.22,-3.21,2.49,-0.17,0.02,0.35,-50.30,-13.75,32.32
22125,-8.22,-3.21,2.49,-0.17,0.02,0.35,-50.30,-13.75,32.32
22136,-8.47,-2.30,4.05,-0.13,-0.16,0.34,-51.73,-12.78,32.62
22147,-8.14,-3.50,2.41,-0.22,-0.16,0.14,-51.73,-12.78,32.62
22158,-8.14,-3.50,2.41,-0.22,-0.16,0.14,-51.73,-12.78,32.62
22169,-8.51,-3.72,3.71,-0.22,-0.36,0.13,-51.73,-12.78,32.62
22180,-8.51,-3.72,3.71,-0.22,-0.36,0.13,-51.73,-12.78,32.62
22191,-8.34,-3.78,3.45,-0.19,-0.38,0.08,-51.73,-12.78,32.62
22202,-8.34,-3.78,3.45,-0.19,-0.38,0.08,-51.73,-12.78,32.62
22213,-8.33,-4.61,2.76,-0.18,-0.30,-0.09,-51.73,-12.78,32.62
22224,-8.33,-4.61,2.76,-0.18,-0.30,-0.09,-51.73,-12.78,32.62
22235,-8.52,-3.72,3.30,-0.11,-0.31,-0.09,-51.73,-12.78,32.62
22246,-8.63,-3.52,4.18,-0.06,-0.24,-0.08,-52.20,-13.10,33.51
22257,-8.63,-3.52,4.18,-0.06,-0.24,-0.08,-52.20,-13.10,33.51
22268,-8.54,-3.67,3.65,-0.03,-0.11,-0.12,-52.20,-13.10,33.51
22279,-8.54,-3.67,3.65,-0.03,-0.11,-0.12,-52.20,-13.10,33.51
22290,-8.48,-3.96,3.50,0.01,-0.04,-0.12,-52.20,-13.10,33.51
22301,-8.48,-3.96,3.50,0.01,-0.04,-0.12,-52.20,-13.10,33.51
22312,-8.42,-3.82,3.14,0.03,-0.01,-0.08,-52.20,-13.10,33.51
22323,-8.42,-3.82,3.14,0.03,-0.01,-0.08,-52.20,-13.10,33.51
22334,-8.62,-3.86,3.94,0.11,-0.01,-0.08,-52.20,-13.10,33.51
22345,-8.62,-3.86,3.94,0.11,-0.01,-0.08,-52.20,-13.10,33.51
22356,-8.50,-3.93,3.58,0.06,0.14,-0.10,-52.20,-13.10,33.51
22367,-8.58,-3.53,4.09,0.02,0.16,-0.07,-52.20,-13.10,33.51
22378,-8.58,-3.53,4.09,0.02,0.16,-0.07,-52.20,-13.10,33.51
22389,-8.37,-3.73,3.39,-0.03,0.20,-0.07,-50.54,-13.59,32.47
22400,-8.37,-3.73,3.39,-0.03,0.20,-0.07,-50.54,-13.59,32.47
22411,-8.56,-4.03,3.64,-0.00,0.17,-0.03,-50.54,-13.59,32.47
22422,-8.56,-4.03,3.64,-0.00,0.17,-0.03,-50.54,-13.59,32.47
22433,-8.49,-4.11,3.64,-0.03,0.24,0.07,-50.54,-13.59,32.47
22444,-8.49,-4.11,3.64,-0.03,0.24,0.07,-50.54,-13.59,32.47
22455,-8.39,-3.99,3.13,-0.10,0.24,0.19,-50.54,-13.59,32.47
22466,-8.32,-3.33,2.82,-0.13,0.16,0.28,-50.54,-13.59,32.47
22477,-8.32,-3.33,2.82,-0.13,0.16,0.28,-50.54,-13.59,32.47
22488,-8.64,-3.37,3.33,-0.16,0.03,0.29,-50.54,-13.59,32.47
22499,-8.64,-3.37,3.33,-0.16,0.03,0.29,-50.54,-13.59,32.47
22515,-8.19,-2.08,2.83,-0.16,-0.13,0.39,-52.44,-14.23,33.07
22521,-8.19,-2.08,2.83,-0.16,-0.13,0.39,-52.44,-14.23,33.07
22532,-8.30,-3.07,3.80,-0.14,-0.32,0.27,-52.44,-14.23,33.07
22543,-8.30,-3.07,3.80,-0.14,-0.32,0.27,-52.44,-14.23,33.07
22554,-8.30,-3.43,2.97,-0.14,-0.35,0.19,-52.44,-14.23,33.07
22565,-8.30,-3.43,2.97,-0.14,-0.35,0.19,-52.44,-14.23,33.07
22576,-8.37,-4.13,3.49,-0.09,-0.35,0.05,-52.44,-14.23,33.07
22588,-8.07,-4.49,2.40,-0.15,-0.26,-0.10,-52.44,-14.23,33.07
22598,-8.07,-4.49,2.40,-0.15,-0.26,-0.10,-52.44,-14.23,33.07
22609,-8.61,-3.66,3.88,-0.11,-0.36,-0.08,-52.44,-14.23,33.07
22620,-8.61,-3.66,3.88,-0.11,-0.36,-0.08,-52.44,-14.23,33.07
22631,-8.77,-3.08,4.05,-0.10,-0.28,-0.09,-51.49,-12.62,33.36
22642,-8.77,-3.08,4.05,-0.10,-0.28,-0.09,-51.49,-12.62,33.36
22653,-8.52,-3.63,3.37,-0.07,-0.12,-0.15,-51.49,-12.62,33.36
22664,-8.52,-3.63,3.37,-0.07,-0.12,-0.15,-51.49,-12.62,33.36
22675,-8.52,-4.16,3.57,0.00,-0.07,-0.13,-51.49,-12.62,33.36
22686,-8.40,-3.88,3.33,0.06,-0.03,-0.08,-51.49,-12.62,33.36
22697,-8.40,-3.88,3.33,0.06,-0.03,-0.08,-51.49,-12.62,33.36
22708,-8.40,-3.71,3.51,0.11,-0.04,-0.05,-51.49,-12.62,33.36
22719,-8.40,-3.71,3.51,0.11,-0.04,-0.05,-51.49,-12.62,33.36
22730,-8.52,-3.46,4.06,0.13,-0.04,-0.05,-51.49,-12.62,33.36
