time,ax,ay,az,gx,gy,gz,mx,my,mz
402,-0.52,6.14,-8.22,0.07,0.01,-0.00,-38.08,23.64,-24.92
412,-0.30,6.26,-8.22,0.21,0.18,0.12,-38.08,23.64,-24.92
423,-0.30,6.26,-8.22,0.21,0.18,0.12,-38.08,23.64,-24.92
434,-0.36,6.31,-8.19,-0.05,-0.04,-0.04,-40.13,24.11,-25.72
446,-0.79,6.68,-7.68,-0.30,-0.19,-0.15,-40.13,24.11,-25.72
456,-0.79,6.68,-7.68,-0.30,-0.19,-0.15,-40.13,24.11,-25.72
471,-0.45,6.26,-8.16,0.15,0.08,0.05,-40.13,24.11,-25.72
478,-0.45,6.26,-8.16,0.15,0.08,0.05,-40.13,24.11,-25.72
489,-0.37,6.34,-8.16,0.08,0.06,0.03,-40.13,24.11,-25.72
500,-0.37,6.34,-8.16,0.08,0.06,0.03,-40.13,24.11,-25.72
511,-0.66,6.50,-7.88,-0.16,-0.11,-0.09,-40.13,24.11,-25.72
652,-0.52,6.40,-8.03,-0.02,-0.01,-0.02,-38.99,22.39,-23.33
662,-0.52,6.40,-8.03,-0.02,-0.01,-0.02,-38.99,22.39,-23.33
673,-0.48,6.38,-8.08,0.01,0.01,-0.00,-39.67,23.17,-23.81
684,-0.51,6.39,-8.05,-0.01,-0.00,-0.01,-39.67,23.17,-23.81
695,-0.51,6.39,-8.05,-0.01,-0.00,-0.01,-39.67,23.17,-23.81
706,-0.52,6.38,-8.05,0.01,0.00,-0.01,-39.67,23.17,-23.81
717,-0.52,6.38,-8.05,0.01,0.00,-0.01,-39.67,23.17,-23.81
728,-0.53,6.40,-8.01,-0.01,-0.00,-0.01,-39.67,23.17,-23.81
739,-0.53,6.40,-8.01,-0.01,-0.00,-0.01,-39.67,23.17,-23.81
750,-0.52,6.39,-8.05,0.00,0.00,-0.01,-39.67,23.17,-23.81
761,-0.52,6.39,-8.05,0.00,0.00,-0.01,-39.67,23.17,-23.81
772,-0.50,6.40,-8.05,-0.00,-0.00,-0.01,-39.67,23.17,-23.81
783,-0.50,6.40,-8.05,-0.00,-0.00,-0.01,-39.67,23.17,-23.81
794,-0.51,6.37,-8.06,0.00,0.00,-0.01,-39.67,23.17,-23.81
805,-0.54,6.41,-8.06,-0.00,-0.00,-0.01,-40.13,23.80,-25.08
816,-0.54,6.41,-8.06,-0.00,-0.00,-0.01,-40.13,23.80,-25.08
827,-0.48,6.32,-8.12,0.00,-0.01,0.01,-40.13,23.80,-25.08
931,-0.52,6.39,-8.09,-0.00,-0.00,-0.01,-40.58,24.11,-25.08
941,-0.52,6.39,-8.09,-0.00,-0.00,-0.01,-40.58,24.11,-25.08
952,-0.50,6.39,-8.06,-0.00,0.00,-0.01,-40.58,24.11,-25.08
963,-0.50,6.39,-8.06,-0.00,0.00,-0.01,-40.58,24.11,-25.08
974,-0.49,6.38,-8.05,-0.00,0.00,-0.01,-40.58,24.11,-25.08
985,-0.50,6.33,-8.08,0.00,0.00,-0.01,-40.58,24.11,-25.08
996,-0.50,6.33,-8.08,0.00,0.00,-0.01,-40.58,24.11,-25.08
1007,-0.53,6.36,-8.08,0.00,0.00,-0.01,-40.58,24.11,-25.08
1018,-0.53,6.36,-8.08,0.00,0.00,-0.01,-40.58,24.11,-25.08
1029,-0.51,6.42,-8.01,-0.00,-0.00,-0.01,-40.58,24.11,-25.08
1040,-0.51,6.42,-8.01,-0.00,-0.00,-0.01,-40.58,24.11,-25.08
1051,-0.50,6.41,-8.03,0.00,0.00,-0.01,-39.22,24.42,-24.45
1062,-0.50,6.41,-8.03,0.00,0.00,-0.01,-39.22,24.42,-24.45
1164,-0.49,6.41,-8.04,-0.00,0.00,-0.01,-39.22,24.42,-24.45
1174,-0.51,6.39,-8.05,0.00,0.00,-0.01,-39.22,24.42,-24.45
1185,-0.51,6.37,-8.08,0.00,0.00,-0.01,-38.54,23.02,-24.61
1196,-0.51,6.37,-8.08,0.00,0.00,-0.01,-38.54,23.02,-24.61
1207,-0.53,6.39,-8.05,-0.00,0.00,-0.01,-38.54,23.02,-24.61
1218,-0.53,6.39,-8.05,-0.00,0.00,-0.01,-38.54,23.02,-24.61
1229,-0.53,6.38,-8.03,-0.00,0.00,-0.01,-38.54,23.02,-24.61
1240,-0.53,6.38,-8.03,-0.00,0.00,-0.01,-38.54,23.02,-24.61
1251,-0.49,6.38,-8.04,0.00,0.00,-0.01,-38.54,23.02,-24.61
1262,-0.49,6.38,-8.04,0.00,0.00,-0.01,-38.54,23.02,-24.61
1273,-0.47,6.35,-8.05,0.00,0.00,-0.01,-38.54,23.02,-24.61
1284,-0.47,6.35,-8.05,0.00,0.00,-0.01,-38.54,23.02,-24.61
1295,-0.53,6.36,-8.09,0.00,0.00,-0.01,-38.54,23.02,-24.61
1306,-0.55,6.40,-8.06,-0.00,-0.00,-0.01,-39.67,23.80,-25.40
1317,-0.55,6.40,-8.06,-0.00,-0.00,-0.01,-39.67,23.80,-25.40
1328,-0.50,6.45,-8.02,0.00,0.00,-0.01,-39.67,23.80,-25.40
1339,-0.50,6.45,-8.02,0.00,0.00,-0.01,-39.67,23.80,-25.40
1440,-0.50,6.43,-8.03,-0.00,-0.00,-0.01,-38.31,23.80,-24.45
1450,-0.47,6.40,-8.04,0.00,0.00,-0.01,-38.31,23.80,-24.45
1461,-0.47,6.40,-8.04,0.00,0.00,-0.01,-38.31,23.80,-24.45
1472,-0.49,6.37,-8.06,0.00,-0.00,-0.01,-38.31,23.80,-24.45
1483,-0.49,6.37,-8.06,0.00,-0.00,-0.01,-38.31,23.80,-24.45
1494,-0.54,6.37,-8.07,-0.00,-0.00,-0.01,-38.31,23.80,-24.45
1505,-0.54,6.39,-8.03,-0.00,-0.00,-0.01,-38.31,23.80,-24.45
1516,-0.54,6.39,-8.03,-0.00,-0.00,-0.01,-38.31,23.80,-24.45
1527,-0.50,6.41,-8.02,0.00,-0.00,-0.01,-38.31,23.80,-24.45
1538,-0.50,6.41,-8.02,0.00,-0.00,-0.01,-38.31,23.80,-24.45
1549,-0.47,6.40,-8.05,0.00,0.00,-0.01,-38.31,24.11,-24.13
1560,-0.47,6.40,-8.05,0.00,0.00,-0.01,-38.31,24.11,-24.13
1571,-0.51,6.39,-8.07,-0.00,0.00,-0.01,-38.31,24.11,-24.13
1713,-0.55,6.38,-8.04,-0.00,0.00,-0.01,-41.03,23.17,-26.04
1723,-0.55,6.38,-8.04,-0.00,0.00,-0.01,-41.03,23.17,-26.04
1734,-0.49,6.41,-8.02,0.00,0.00,-0.01,-41.03,23.17,-26.04
1745,-0.47,6.39,-8.04,0.00,0.00,-0.01,-41.03,23.17,-26.04
1761,-0.47,6.39,-8.04,0.00,0.00,-0.01,-41.03,23.17,-26.04
1767,-0.50,6.35,-8.07,0.00,0.00,-0.01,-41.03,23.17,-26.04
1778,-0.50,6.35,-8.07,0.00,0.00,-0.01,-41.03,23.17,-26.04
1789,-0.55,6.36,-8.07,-0.00,0.00,-0.01,-41.03,23.17,-26.04
1800,-0.55,6.36,-8.07,-0.00,0.00,-0.01,-41.03,23.17,-26.04
1811,-0.53,6.38,-8.06,-0.00,-0.00,-0.01,-39.67,22.86,-25.08
1822,-0.53,6.38,-8.06,-0.00,-0.00,-0.01,-39.67,22.86,-25.08
1833,-0.49,6.42,-8.05,0.00,0.00,-0.01,-39.67,22.86,-25.08
1844,-0.49,6.42,-8.05,0.00,0.00,-0.01,-39.67,22.86,-25.08
1946,-0.48,6.40,-8.04,0.00,0.00,-0.01,-40.13,22.86,-24.13
1956,-0.48,6.40,-8.04,0.00,0.00,-0.01,-40.13,22.86,-24.13
1967,-0.52,6.37,-8.06,0.00,0.00,-0.01,-40.13,22.86,-24.13
1978,-0.52,6.37,-8.06,0.00,0.00,-0.01,-40.13,22.86,-24.13
1989,-0.55,6.35,-8.05,0.00,-0.00,-0.01,-40.13,22.86,-24.13
2000,-0.55,6.35,-8.05,0.00,-0.00,-0.01,-40.13,22.86,-24.13
2011,-0.50,6.39,-8.07,-0.00,-0.00,-0.01,-40.13,22.86,-24.13
2022,-0.50,6.39,-8.07,-0.00,-0.00,-0.01,-40.13,22.86,-24.13
2033,-0.46,6.40,-8.04,-0.00,-0.00,-0.01,-40.13,22.86,-24.13
2044,-0.46,6.40,-8.04,-0.00,-0.00,-0.01,-40.13,22.86,-24.13
2055,-0.65,6.46,-8.21,0.02,0.00,-0.01,-40.13,22.86,-24.13
2066,-1.79,6.79,-7.70,0.12,0.68,-0.64,-40.81,24.58,-24.29
2077,-1.79,6.79,-7.70,0.12,0.68,-0.64,-40.81,24.58,-24.29
2088,0.58,9.46,-13.47,0.76,1.08,-0.78,-40.81,24.58,-24.29
2099,0.58,9.46,-13.47,0.76,1.08,-0.78,-40.81,24.58,-24.29
2110,0.70,7.24,-10.95,6.46,0.18,-0.15,-40.81,24.58,-24.29
2121,0.70,7.24,-10.95,6.46,0.18,-0.15,-40.81,24.58,-24.29
2223,6.83,-19.28,-14.77,15.82,-2.05,-4.13,-34.00,-9.72,-31.92
2233,5.03,-15.30,-10.96,10.92,-4.73,0.37,-34.00,-9.72,-31.92
2244,5.03,-15.30,-10.96,10.92,-4.73,0.37,-34.00,-9.72,-31.92
2255,3.64,-6.32,-7.80,7.29,-5.55,2.65,-34.00,-9.72,-31.92
2266,1.32,-4.47,-7.09,4.96,-6.11,2.15,-34.00,-9.72,-31.92
2277,1.32,-4.47,-7.09,4.96,-6.11,2.15,-34.00,-9.72,-31.92
2288,3.80,-3.23,-6.17,3.59,-6.38,1.84,-34.00,-9.72,-31.92
2299,3.80,-3.23,-6.17,3.59,-6.38,1.84,-34.00,-9.72,-31.92
2310,3.91,-3.40,-5.82,1.56,-6.66,1.75,-48.52,-30.60,3.70
2321,3.91,-3.40,-5.82,1.56,-6.66,1.75,-48.52,-30.60,3.70
2332,2.15,-8.27,-5.23,1.94,-7.59,2.23,-48.52,-30.60,3.70
2343,2.15,-8.27,-5.23,1.94,-7.59,2.23,-48.52,-30.60,3.70
2354,1.08,-11.22,-1.46,4.18,-8.24,3.84,-48.52,-30.60,3.70
2456,-1.88,1.23,16.15,17.27,-5.86,6.79,-36.04,-17.35,35.99
2466,-3.19,-4.40,15.02,8.55,-2.62,6.84,-36.04,-17.35,35.99
2477,-3.19,-4.40,15.02,8.55,-2.62,6.84,-36.04,-17.35,35.99
2488,-1.37,1.45,20.52,-2.76,-1.14,5.85,-36.04,-17.35,35.99
2499,-1.37,1.45,20.52,-2.76,-1.14,5.85,-36.04,-17.35,35.99
2510,-4.76,9.85,8.63,-8.06,0.25,4.57,-36.04,-17.35,35.99
2521,-4.76,9.85,8.63,-8.06,0.25,4.57,-36.04,-17.35,35.99
2532,-4.52,6.94,7.64,-4.69,0.59,2.54,-36.04,-17.35,35.99
2543,-4.52,6.94,7.64,-4.69,0.59,2.54,-36.04,-17.35,35.99
2554,-3.63,-1.21,7.21,-5.14,0.35,0.50,-36.04,-17.35,35.99
2565,-3.63,-1.21,7.21,-5.14,0.35,0.50,-36.04,-17.35,35.99
2576,-1.77,-5.94,4.23,-3.54,0.46,0.67,-32.64,-10.03,42.51
2587,-0.22,-3.14,2.94,-0.95,0.12,2.12,-32.64,-10.03,42.51
2598,-0.22,-3.14,2.94,-0.95,0.12,2.12,-32.64,-10.03,42.51
2609,-2.99,-0.90,2.12,-0.34,-0.74,2.95,-32.64,-10.03,42.51
2620,-2.99,-0.90,2.12,-0.34,-0.74,2.95,-32.64,-10.03,42.51
2631,-5.84,-0.52,4.09,3.50,-1.19,4.04,-32.64,-10.03,42.51
2746,-5.84,-0.52,4.09,3.50,-1.19,4.04,-32.64,-10.03,42.51
2748,-10.02,1.56,8.05,2.68,-0.21,-0.69,-36.04,8.21,41.71
2758,-10.02,1.56,8.05,2.68,-0.21,-0.69,-36.04,8.21,41.71
2769,-7.77,0.90,8.48,0.28,-0.09,-0.52,-36.04,8.21,41.71
2780,-7.77,0.90,8.48,0.28,-0.09,-0.52,-36.04,8.21,41.71
2791,-5.61,1.73,7.51,-2.10,0.04,-0.04,-36.04,8.21,41.71
2802,-5.61,1.73,7.51,-2.10,0.04,-0.04,-36.04,8.21,41.71
2813,-6.81,1.29,7.60,-2.25,0.17,0.54,-37.18,12.73,41.87
2824,-6.81,1.29,7.60,-2.25,0.17,0.54,-37.18,12.73,41.87
2835,-5.88,1.47,7.21,-3.11,0.01,1.05,-37.18,12.73,41.87
2846,-5.88,1.47,7.21,-3.11,0.01,1.05,-37.18,12.73,41.87
2857,-4.12,2.20,5.79,-5.02,-0.34,1.58,-37.18,12.73,41.87
2868,-2.96,3.64,4.04,-5.41,-0.92,2.07,-37.18,12.73,41.87
2879,-2.96,3.64,4.04,-5.41,-0.92,2.07,-37.18,12.73,41.87
2983,-2.86,8.02,11.95,9.94,-0.59,10.89,-28.33,15.07,43.94
2993,-4.41,20.49,8.90,3.75,1.35,8.77,-28.33,15.07,43.94
3004,-4.41,20.49,8.90,3.75,1.35,8.77,-28.33,15.07,43.94
3015,-3.80,16.77,0.54,1.89,2.25,2.84,-28.33,15.07,43.94
3026,-3.80,16.77,0.54,1.89,2.25,2.84,-28.33,15.07,43.94
3037,-1.58,7.32,1.62,4.50,0.63,-0.09,-28.33,15.07,43.94
3048,-2.33,9.60,6.91,0.38,-1.40,-0.42,-28.33,15.07,43.94
3059,-2.33,9.60,6.91,0.38,-1.40,-0.42,-28.33,15.07,43.94
3070,-1.95,8.21,8.89,-1.43,-1.31,-0.21,-10.64,33.77,32.17
3081,-1.95,8.21,8.89,-1.43,-1.31,-0.21,-10.64,33.77,32.17
3092,-0.90,7.31,5.58,-2.81,-0.29,0.20,-10.64,33.77,32.17
3103,-0.90,7.31,5.58,-2.81,-0.29,0.20,-10.64,33.77,32.17
3114,-0.03,6.69,4.11,-2.40,0.31,0.65,-10.64,33.77,32.17
3125,-0.03,6.69,4.11,-2.40,0.31,0.65,-10.64,33.77,32.17
3136,0.38,6.43,3.47,-1.69,0.41,0.82,-10.64,33.77,32.17
3147,-0.36,6.34,3.96,-1.19,0.57,0.80,-10.64,33.77,32.17
3158,-0.36,6.34,3.96,-1.19,0.57,0.80,-10.64,33.77,32.17
3169,-1.71,6.15,4.48,-0.95,0.81,0.99,-10.64,33.77,32.17
3271,0.16,6.90,6.50,-1.18,0.87,1.59,-6.79,24.89,40.92
3281,0.16,6.90,6.50,-1.18,0.87,1.59,-6.79,24.89,40.92
3292,-0.14,7.60,6.73,-1.80,0.75,1.39,-6.79,24.89,40.92
3303,-0.14,7.60,6.73,-1.80,0.75,1.39,-6.79,24.89,40.92
3314,0.20,8.02,6.41,-1.90,0.73,1.16,-6.79,24.89,40.92
3325,0.20,8.02,6.41,-1.90,0.73,1.16,-6.79,24.89,40.92
3336,1.36,7.56,6.26,-1.52,0.48,1.11,-2.48,15.07,44.89
3347,0.14,6.89,6.42,-1.54,-0.08,1.11,-2.48,15.07,44.89
3358,0.14,6.89,6.42,-1.54,-0.08,1.11,-2.48,15.07,44.89
3369,-0.71,6.61,8.43,-1.22,-0.47,1.06,-2.48,15.07,44.89
3380,-0.71,6.61,8.43,-1.22,-0.47,1.06,-2.48,15.07,44.89
3391,-0.33,6.36,8.61,-0.76,-0.27,0.96,-2.48,15.07,44.89
3402,-0.33,6.36,8.61,-0.76,-0.27,0.96,-2.48,15.07,44.89
3504,0.35,5.04,8.55,0.51,0.27,0.41,0.47,6.50,47.28
3514,0.09,5.71,7.72,-1.39,0.24,0.36,0.47,6.50,47.28
3525,0.09,5.71,7.72,-1.39,0.24,0.36,0.47,6.50,47.28
3536,-0.58,6.11,5.87,-2.11,0.08,0.29,0.47,6.50,47.28
3547,-1.19,6.00,9.04,-0.81,-0.08,0.07,0.47,6.50,47.28
3558,-1.19,6.00,9.04,-0.81,-0.08,0.07,0.47,6.50,47.28
3569,-1.01,5.91,11.40,-0.43,0.20,-0.20,-0.66,3.53,47.44
3580,-1.01,5.91,11.40,-0.43,0.20,-0.20,-0.66,3.53,47.44
3591,0.55,6.00,8.03,-0.39,0.73,-0.27,-0.66,3.53,47.44
3602,0.55,6.00,8.03,-0.39,0.73,-0.27,-0.66,3.53,47.44
3613,0.89,5.54,8.10,-0.20,0.48,-0.25,-0.66,3.53,47.44
3624,0.89,5.54,8.10,-0.20,0.48,-0.25,-0.66,3.53,47.44
3635,0.68,4.67,8.16,0.04,0.29,-0.23,-0.66,3.53,47.44
3646,0.68,4.67,8.16,0.04,0.29,-0.23,-0.66,3.53,47.44
3657,0.22,4.03,7.45,0.18,0.11,-0.14,-0.66,3.53,47.44
3668,0.42,3.39,7.97,0.31,-0.17,0.01,-0.66,3.53,47.44
3679,0.42,3.39,7.97,0.31,-0.17,0.01,-0.66,3.53,47.44
3690,0.35,4.68,9.19,0.27,-0.32,0.27,-0.66,3.53,47.44
3701,0.35,4.68,9.19,0.27,-0.32,0.27,-0.66,3.53,47.44
3804,0.36,5.15,8.04,0.17,-0.06,0.08,-2.93,3.53,46.48
3814,0.68,4.82,8.71,0.13,-0.03,0.11,-2.93,3.53,46.48
3825,0.68,4.82,8.71,0.13,-0.03,0.11,-2.93,3.53,46.48
3836,0.24,5.16,8.70,-0.00,0.12,0.23,-3.84,1.97,45.53
3847,-0.33,5.26,7.96,-0.09,0.28,0.24,-3.84,1.97,45.53
3858,-0.33,5.26,7.96,-0.09,0.28,0.24,-3.84,1.97,45.53
3869,-0.31,5.20,7.68,-0.05,0.24,0.13,-3.84,1.97,45.53
3880,-0.31,5.20,7.68,-0.05,0.24,0.13,-3.84,1.97,45.53
3891,0.04,5.20,7.93,0.08,0.07,0.04,-3.84,1.97,45.53
3902,0.04,5.20,7.93,0.08,0.07,0.04,-3.84,1.97,45.53
3913,0.39,5.16,8.54,0.14,-0.09,0.00,-3.84,1.97,45.53
3924,0.39,5.16,8.54,0.14,-0.09,0.00,-3.84,1.97,45.53
3935,0.60,5.05,8.77,0.02,-0.13,-0.00,-3.84,1.97,45.53
3946,0.60,5.05,8.77,0.02,-0.13,-0.00,-3.84,1.97,45.53
4086,0.11,4.87,7.94,-0.17,0.03,0.00,-1.80,2.13,46.32
4096,0.10,4.70,7.78,-0.12,-0.01,-0.08,-1.80,2.13,46.32
4107,0.10,4.70,7.78,-0.12,-0.01,-0.08,-1.80,2.13,46.32
4118,0.52,4.77,8.10,0.04,-0.04,-0.10,-1.80,2.13,46.32
4129,1.07,4.92,8.63,0.15,-0.05,-0.06,-1.80,2.13,46.32
4140,1.07,4.92,8.63,0.15,-0.05,-0.06,-1.80,2.13,46.32
4151,1.33,4.82,9.01,0.07,-0.06,0.04,-1.80,2.13,46.32
4162,1.33,4.82,9.01,0.07,-0.06,0.04,-1.80,2.13,46.32
4173,0.90,4.95,9.04,-0.06,0.02,0.15,-1.80,2.13,46.32
4184,0.90,4.95,9.04,-0.06,0.02,0.15,-1.80,2.13,46.32
4195,0.29,4.75,8.44,-0.18,0.12,0.15,-1.80,2.13,46.32
4206,0.29,4.75,8.44,-0.18,0.12,0.15,-1.80,2.13,46.32
4217,-0.29,4.44,7.58,-0.19,0.12,0.05,-1.12,1.97,46.17
4228,-0.24,4.27,7.14,0.01,0.01,-0.08,-1.12,1.97,46.17
4239,-0.24,4.27,7.14,0.01,0.01,-0.08,-1.12,1.97,46.17
4250,0.44,4.45,7.80,0.32,-0.12,-0.16,-1.12,1.97,46.17
4261,0.44,4.45,7.80,0.32,-0.12,-0.16,-1.12,1.97,46.17
4272,1.32,4.83,9.75,0.33,-0.23,-0.06,-1.12,1.97,46.17
4283,1.32,4.83,9.75,0.33,-0.23,-0.06,-1.12,1.97,46.17
4385,1.28,5.63,8.89,0.34,-0.41,-0.08,-2.93,1.66,45.21
4396,1.98,5.57,9.83,0.18,-0.18,-0.10,-2.93,1.66,45.21
4407,1.98,5.57,9.83,0.18,-0.18,-0.10,-2.93,1.66,45.21
4418,1.67,5.37,8.53,-0.12,0.25,-0.07,-2.93,1.66,45.21
4429,0.88,5.13,8.10,-0.27,0.34,-0.08,-2.93,1.66,45.21
4440,0.88,5.13,8.10,-0.27,0.34,-0.08,-2.93,1.66,45.21
4451,-0.04,4.88,8.11,-0.37,0.24,-0.14,-1.80,1.20,44.73
4462,-0.04,4.88,8.11,-0.37,0.24,-0.14,-1.80,1.20,44.73
4473,-0.62,4.42,7.55,-0.40,0.03,-0.23,-1.80,1.20,44.73
4484,-0.62,4.42,7.55,-0.40,0.03,-0.23,-1.80,1.20,44.73
4495,0.03,3.66,7.71,-0.10,-0.20,-0.21,-1.80,1.20,44.73
4506,0.03,3.66,7.71,-0.10,-0.20,-0.21,-1.80,1.20,44.73
4517,0.45,3.95,8.78,0.18,-0.29,-0.00,-1.80,1.20,44.73
4528,1.00,4.40,9.20,0.04,-0.40,0.21,-1.80,1.20,44.73
4630,-0.33,7.56,15.67,-0.24,-1.46,1.67,0.25,0.10,45.53
4640,-0.33,7.56,15.67,-0.24,-1.46,1.67,0.25,0.10,45.53
4651,-1.52,7.87,16.47,-0.98,-0.55,0.91,0.25,0.10,45.53
4662,-1.52,7.87,16.47,-0.98,-0.55,0.91,0.25,0.10,45.53
4677,-2.32,6.68,14.33,-1.82,0.82,-0.24,0.25,0.10,45.53
4684,-2.32,6.68,14.33,-1.82,0.82,-0.24,0.25,0.10,45.53
4695,-2.27,5.95,12.80,-2.51,1.96,-1.49,0.25,0.10,45.53
4706,-2.27,5.95,12.80,-2.51,1.96,-1.49,0.25,0.10,45.53
4717,-3.23,5.26,10.41,-2.85,2.85,-2.69,1.38,-2.23,44.10
4728,-4.88,7.03,8.22,-1.95,3.36,-3.75,1.38,-2.23,44.10
4739,-4.88,7.03,8.22,-1.95,3.36,-3.75,1.38,-2.23,44.10
4750,-0.31,8.10,10.09,-0.59,3.61,-5.14,1.38,-2.23,44.10
4761,-0.31,8.10,10.09,-0.59,3.61,-5.14,1.38,-2.23,44.10
4772,1.27,6.27,11.17,-0.83,3.91,-6.81,1.38,-2.23,44.10
4874,-0.32,-7.82,-1.40,-4.05,5.57,-5.00,-24.70,-19.54,39.17
4884,-0.32,-7.82,-1.40,-4.05,5.57,-5.00,-24.70,-19.54,39.17
4895,-5.40,-4.09,5.20,-3.46,3.98,-2.32,-24.70,-19.54,39.17
4906,-5.40,-4.09,5.20,-3.46,3.98,-2.32,-24.70,-19.54,39.17
4917,-4.23,-3.36,7.41,-3.86,4.77,-1.80,-24.70,-19.54,39.17
4928,-4.23,-3.36,7.41,-3.86,4.77,-1.80,-24.70,-19.54,39.17
4939,-1.31,-2.19,2.75,-3.53,6.17,-1.51,-24.70,-19.54,39.17
4950,-0.10,-4.69,-1.68,-2.53,6.04,-1.22,-34.91,-36.22,16.43
4961,-0.10,-4.69,-1.68,-2.53,6.04,-1.22,-34.91,-36.22,16.43
4972,-3.29,-5.02,-3.73,-0.60,5.00,-0.37,-34.91,-36.22,16.43
4983,-3.29,-5.02,-3.73,-0.60,5.00,-0.37,-34.91,-36.22,16.43
4994,-6.44,-4.31,-2.28,1.68,3.94,0.24,-34.91,-36.22,16.43
5005,-6.44,-4.31,-2.28,1.68,3.94,0.24,-34.91,-36.22,16.43
5016,-7.54,-4.75,-2.07,3.41,3.13,0.10,-34.91,-36.22,16.43
5027,-7.54,-4.75,-2.07,3.41,3.13,0.10,-34.91,-36.22,16.43
5038,-8.77,-5.22,-1.37,4.31,2.13,-0.31,-34.91,-36.22,16.43
5049,-8.17,-3.49,0.37,5.12,1.57,-0.72,-34.91,-36.22,16.43
5151,-10.85,-5.92,11.73,10.33,-0.48,-0.78,-39.90,-28.42,28.51
5161,-10.85,-5.92,11.73,10.33,-0.48,-0.78,-39.90,-28.42,28.51
5172,-8.65,-3.43,9.94,6.39,-0.18,-0.27,-39.90,-28.42,28.51
5183,-8.65,-3.43,9.94,6.39,-0.18,-0.27,-39.90,-28.42,28.51
5194,-6.37,-0.94,6.04,3.95,0.09,-0.32,-39.90,-28.42,28.51
5205,-6.37,-0.94,6.04,3.95,0.09,-0.32,-39.90,-28.42,28.51
5216,-6.76,-1.18,6.31,4.11,-0.01,-0.43,-37.86,6.34,40.12
5227,-6.76,-1.18,6.31,4.11,-0.01,-0.43,-37.86,6.34,40.12
5238,-8.02,-0.82,7.90,4.35,-0.09,-0.27,-37.86,6.34,40.12
5249,-8.23,0.33,6.93,3.80,-0.07,-0.18,-37.86,6.34,40.12
5260,-8.23,0.33,6.93,3.80,-0.07,-0.18,-37.86,6.34,40.12
5271,-6.84,0.16,6.78,4.39,-0.19,-0.12,-37.86,6.34,40.12
5282,-6.84,0.16,6.78,4.39,-0.19,-0.12,-37.86,6.34,40.12
5384,-5.13,5.41,8.17,1.89,0.49,0.87,-37.63,24.27,30.74
5395,-4.68,5.71,4.09,3.23,0.94,0.27,-37.63,24.27,30.74
5406,-4.68,5.71,4.09,3.23,0.94,0.27,-37.63,24.27,30.74
5417,-4.91,3.90,2.57,3.70,0.71,-0.26,-37.63,24.27,30.74
5428,-4.91,3.90,2.57,3.70,0.71,-0.26,-37.63,24.27,30.74
5439,-6.26,4.21,7.69,2.47,0.05,-0.16,-37.63,24.27,30.74
5450,-7.54,5.63,8.89,1.31,0.05,-0.06,-37.63,24.27,30.74
5461,-7.54,5.63,8.89,1.31,0.05,-0.06,-37.63,24.27,30.74
5472,-5.19,5.95,4.50,1.27,0.36,-0.10,-37.86,30.97,21.67
5483,-5.19,5.95,4.50,1.27,0.36,-0.10,-37.86,30.97,21.67
5494,-3.57,5.71,3.33,1.80,0.21,-0.04,-37.86,30.97,21.67
5505,-3.57,5.71,3.33,1.80,0.21,-0.04,-37.86,30.97,21.67
5516,-5.17,7.82,4.11,1.68,-0.21,-0.15,-37.86,30.97,21.67
5527,-5.17,7.82,4.11,1.68,-0.21,-0.15,-37.86,30.97,21.67
5538,-6.88,8.43,5.43,1.63,-0.52,-0.68,-37.86,30.97,21.67
5549,-6.16,5.66,5.08,2.14,-0.70,-1.09,-37.86,30.97,21.67
5560,-6.16,5.66,5.08,2.14,-0.70,-1.09,-37.86,30.97,21.67
5571,-6.82,4.24,6.13,2.23,-0.76,-0.96,-37.86,30.97,21.67
5674,-5.80,4.09,6.56,-1.21,0.03,-0.19,-40.81,33.31,13.56
5685,-5.80,4.09,6.56,-1.21,0.03,-0.19,-40.81,33.31,13.56
5696,-6.15,4.59,3.20,-2.24,0.24,0.07,-40.81,33.31,13.56
5707,-6.15,4.59,3.20,-2.24,0.24,0.07,-40.81,33.31,13.56
5718,-7.60,3.41,6.11,-0.59,0.39,0.57,-39.90,30.81,15.79
5729,-6.99,4.53,6.71,-1.84,0.41,0.74,-39.90,30.81,15.79
5740,-6.99,4.53,6.71,-1.84,0.41,0.74,-39.90,30.81,15.79
5751,-7.23,6.68,5.90,-3.49,0.18,0.56,-39.90,30.81,15.79
5762,-7.23,6.68,5.90,-3.49,0.18,0.56,-39.90,30.81,15.79
5773,-4.72,4.61,4.98,-1.26,0.55,0.70,-39.90,30.81,15.79
5784,-4.72,4.61,4.98,-1.26,0.55,0.70,-39.90,30.81,15.79
5795,-3.26,4.88,0.98,0.75,0.50,0.83,-39.90,30.81,15.79
5806,-3.26,4.88,0.98,0.75,0.50,0.83,-39.90,30.81,15.79
5948,-6.65,6.48,4.85,3.82,-0.09,-0.67,-37.18,33.31,14.52
5959,-6.84,5.29,4.03,3.07,-0.12,-0.70,-37.18,33.31,14.52
5970,-7.19,4.92,3.50,1.55,-0.11,-0.38,-38.31,36.27,3.86
5981,-7.19,4.92,3.50,1.55,-0.11,-0.38,-38.31,36.27,3.86
5992,-6.82,6.98,3.58,-0.24,-0.06,-0.13,-38.31,36.27,3.86
6003,-6.82,6.98,3.58,-0.24,-0.06,-0.13,-38.31,36.27,3.86
6014,-7.10,5.92,1.24,-1.98,-0.12,-0.17,-38.31,36.27,3.86
6025,-7.10,5.92,1.24,-1.98,-0.12,-0.17,-38.31,36.27,3.86
6036,-7.49,7.46,6.34,-1.98,-0.30,-0.04,-38.31,36.27,3.86
6047,-7.49,7.46,6.34,-1.98,-0.30,-0.04,-38.31,36.27,3.86
6058,-5.61,6.86,2.59,-0.73,0.27,-0.04,-38.31,36.27,3.86
6069,-5.61,6.86,2.59,-0.73,0.27,-0.04,-38.31,36.27,3.86
6080,-7.06,7.02,2.59,0.13,0.18,-0.15,-38.31,36.27,3.86
6184,-6.56,3.69,5.69,0.22,0.52,0.03,-39.22,34.09,6.41
6195,-5.87,6.77,3.74,-1.53,0.67,0.34,-39.22,34.09,6.41
6206,-5.87,6.77,3.74,-1.53,0.67,0.34,-39.22,34.09,6.41
6217,-7.16,7.87,4.10,-1.22,0.64,0.16,-39.45,32.99,7.52
6228,-7.16,7.87,4.10,-1.22,0.64,0.16,-39.45,32.99,7.52
6239,-6.36,5.04,3.95,-1.40,0.67,-0.16,-39.45,32.99,7.52
6250,-6.57,6.29,3.80,-1.68,0.72,0.00,-39.45,32.99,7.52
6261,-6.57,6.29,3.80,-1.68,0.72,0.00,-39.45,32.99,7.52
6272,-7.29,6.10,3.94,-1.90,0.73,0.01,-39.45,32.99,7.52
6283,-7.29,6.10,3.94,-1.90,0.73,0.01,-39.45,32.99,7.52
6294,-6.67,6.00,3.18,-2.22,0.65,0.04,-39.45,32.99,7.52
6305,-6.67,6.00,3.18,-2.22,0.65,0.04,-39.45,32.99,7.52
6316,-6.61,7.26,2.50,-1.82,0.47,0.06,-39.45,32.99,7.52
6327,-6.61,7.26,2.50,-1.82,0.47,0.06,-39.45,32.99,7.52
6338,-6.61,5.93,3.54,-1.23,0.24,-0.08,-39.45,32.99,7.52
6349,-6.61,5.93,3.54,-1.23,0.24,-0.08,-39.45,32.99,7.52
6360,-6.63,5.05,4.30,-1.00,0.23,-0.03,-40.58,31.59,14.04
6371,-7.10,5.47,4.33,-0.67,0.29,0.11,-40.58,31.59,14.04
6382,-7.10,5.47,4.33,-0.67,0.29,0.11,-40.58,31.59,14.04
6486,-7.51,4.84,4.51,-0.13,0.00,-0.23,-43.98,29.88,15.47
6496,-7.65,4.44,4.99,-0.11,0.01,-0.27,-43.98,29.88,15.47
6507,-7.65,4.44,4.99,-0.11,0.01,-0.27,-43.98,29.88,15.47
6518,-7.44,3.99,5.24,-0.23,0.11,-0.19,-43.98,29.88,15.47
6529,-7.44,3.99,5.24,-0.23,0.11,-0.19,-43.98,29.88,15.47
6540,-7.40,5.03,4.26,0.00,0.36,0.06,-43.98,29.88,15.47
6551,-7.45,5.91,2.95,0.01,0.34,0.11,-43.98,29.88,15.47
6562,-7.45,5.91,2.95,0.01,0.34,0.11,-43.98,29.88,15.47
6573,-7.32,4.81,4.50,-0.22,0.08,-0.07,-43.98,29.88,15.47
6584,-7.32,4.81,4.50,-0.22,0.08,-0.07,-43.98,29.88,15.47
6595,-7.17,4.59,4.78,-0.30,0.07,-0.08,-44.66,30.03,17.54
6606,-7.17,4.59,4.78,-0.30,0.07,-0.08,-44.66,30.03,17.54
6617,-7.13,4.42,4.61,-0.24,0.10,0.01,-44.66,30.03,17.54
6719,-7.75,4.13,4.91,0.07,0.16,0.08,-44.66,30.03,17.54
6730,-7.40,5.06,4.30,0.12,0.25,0.13,-43.98,30.03,17.54
6741,-7.40,5.06,4.30,0.12,0.25,0.13,-43.98,29.88,17.06
6752,-7.13,5.12,4.11,0.24,0.24,0.03,-43.98,29.88,17.06
6763,-7.13,5.12,4.11,0.24,0.24,0.03,-43.98,29.88,17.06
6774,-7.48,4.79,4.76,0.29,0.23,-0.02,-43.98,29.88,17.06
6785,-7.48,4.79,4.76,0.29,0.23,-0.02,-43.98,29.88,17.06
6796,-7.79,5.53,3.13,-0.08,0.13,0.10,-43.98,29.88,17.06
6807,-7.79,5.53,3.13,-0.08,0.13,0.10,-43.98,29.88,17.06
6818,-7.62,4.34,4.29,-0.24,-0.07,0.06,-43.98,29.88,17.06
6829,-7.62,4.34,4.29,-0.24,-0.07,0.06,-43.98,29.88,17.06
6840,-7.68,4.72,5.06,-0.18,-0.06,0.08,-43.98,29.88,17.06
6851,-7.58,4.59,4.52,-0.05,0.02,0.06,-43.76,30.03,14.68
6867,-7.58,4.59,4.52,-0.05,0.02,0.06,-43.76,30.03,14.68
6873,-7.90,5.02,4.62,0.02,0.05,0.02,-43.76,30.03,14.68
6884,-7.90,5.02,4.62,0.02,0.05,0.02,-43.76,30.03,14.68
6895,-8.03,4.93,5.12,0.03,0.17,-0.01,-43.76,30.03,14.68
6906,-8.03,4.93,5.12,0.03,0.17,-0.01,-43.76,30.03,14.68
7006,-7.36,4.97,2.92,-0.09,0.41,-0.20,-46.02,29.41,17.22
7016,-7.35,5.42,3.43,-0.06,0.32,-0.14,-46.02,29.41,17.22
7027,-7.35,5.42,3.43,-0.06,0.32,-0.14,-46.02,29.41,17.22
7038,-7.28,4.76,3.90,-0.10,0.23,-0.11,-46.02,29.41,17.22
7049,-7.28,4.76,3.90,-0.10,0.23,-0.11,-46.02,29.41,17.22
7060,-7.25,4.78,3.34,-0.06,0.16,-0.01,-46.02,29.41,17.22
7071,-7.55,4.99,2.44,0.02,0.06,0.12,-46.02,29.41,17.22
7082,-7.55,4.99,2.44,0.02,0.06,0.12,-46.02,29.41,17.22
7093,-8.72,4.11,3.37,-0.07,-0.25,0.16,-46.02,29.41,17.22
7104,-8.72,4.11,3.37,-0.07,-0.25,0.16,-46.02,29.41,17.22
7115,-6.91,4.88,3.70,-0.73,-0.60,0.35,-46.02,29.72,15.63
7126,-6.91,4.88,3.70,-0.73,-0.60,0.35,-46.02,29.72,15.63
7137,-6.82,4.73,5.00,-0.67,-0.68,0.29,-46.02,29.72,15.63
7239,-8.45,6.23,4.22,-0.09,0.27,0.23,-42.39,31.28,17.54
7250,-8.45,6.23,4.22,-0.09,0.27,0.23,-42.39,31.28,17.54
7261,-7.92,6.06,3.65,0.13,0.29,-0.12,-42.39,31.28,17.54
7272,-7.44,4.45,2.58,0.09,0.22,-0.31,-42.39,31.28,17.54
7283,-7.44,4.45,2.58,0.09,0.22,-0.31,-42.39,31.28,17.54
7294,-8.17,2.67,4.55,-0.35,0.01,-0.16,-42.39,31.28,17.54
7305,-8.17,2.67,4.55,-0.35,0.01,-0.16,-42.39,31.28,17.54
7316,-7.30,5.37,2.67,-0.72,-0.10,0.33,-42.39,31.28,17.54
7327,-7.30,5.37,2.67,-0.72,-0.10,0.33,-42.39,31.28,17.54
7338,-7.52,5.07,5.34,-0.49,-0.32,0.28,-42.39,31.28,17.54
7349,-7.52,5.07,5.34,-0.49,-0.32,0.28,-42.39,31.28,17.54
7360,-7.15,4.36,5.96,-0.46,-0.22,-0.02,-43.76,30.03,17.86
7371,-7.34,4.47,5.05,-0.34,0.04,-0.11,-43.76,30.03,17.86
7382,-7.34,4.47,5.05,-0.34,0.04,-0.11,-43.76,30.03,17.86
7393,-7.08,4.22,4.85,-0.29,0.10,-0.12,-43.76,30.03,17.86
7404,-7.08,4.22,4.85,-0.29,0.10,-0.12,-43.76,30.03,17.86
7415,-7.49,4.40,5.46,0.13,0.20,-0.08,-43.76,30.03,17.86
7426,-7.49,4.40,5.46,0.13,0.20,-0.08,-43.76,30.03,17.86
7529,-7.84,4.83,4.47,0.01,-0.00,-0.08,-44.44,29.88,17.38
7539,-7.44,4.50,3.62,-0.03,0.06,-0.08,-44.44,29.88,17.38
7550,-7.44,4.50,3.62,-0.03,0.06,-0.08,-44.44,29.88,17.38
7561,-7.49,4.16,4.54,-0.07,0.01,-0.01,-44.44,29.88,17.38
7577,-7.40,4.20,3.95,-0.03,0.03,0.13,-44.44,29.88,17.38
7583,-7.40,4.20,3.95,-0.03,0.03,0.13,-44.44,29.88,17.38
7594,-7.81,4.77,4.25,-0.05,-0.05,0.20,-44.44,29.88,17.38
7605,-7.81,4.77,4.25,-0.05,-0.05,0.20,-44.44,29.88,17.38
7616,-7.29,3.97,3.68,-0.28,-0.20,0.09,-45.12,30.34,19.13
7627,-7.29,3.97,3.68,-0.28,-0.20,0.09,-45.12,30.34,19.13
7638,-7.61,4.49,4.40,-0.44,-0.40,0.10,-45.12,30.34,19.13
7649,-7.61,4.49,4.40,-0.44,-0.40,0.10,-45.12,30.34,19.13
7660,-8.24,4.18,5.90,-0.27,-0.43,0.02,-45.12,30.34,19.13
7760,-7.42,4.79,5.31,-0.20,0.48,-0.34,-45.12,29.72,18.81
7770,-7.42,4.79,5.31,-0.20,0.48,-0.34,-45.12,29.72,18.81
7781,-7.76,4.62,1.94,-0.28,0.59,-0.26,-45.12,29.72,18.81
7792,-7.19,4.24,3.79,-0.01,0.41,-0.05,-45.12,29.72,18.81
7803,-7.19,4.24,3.79,-0.01,0.41,-0.05,-45.12,29.72,18.81
7814,-7.10,4.31,3.01,0.04,0.26,0.12,-45.12,29.72,18.81
7825,-7.10,4.31,3.01,0.04,0.26,0.12,-45.12,29.72,18.81
7836,-7.45,4.93,3.23,0.13,0.06,0.26,-45.12,29.72,18.81
7847,-7.45,4.93,3.23,0.13,0.06,0.26,-45.12,29.72,18.81
7858,-8.30,4.18,5.48,-0.06,-0.19,0.15,-45.12,29.41,18.49
7869,-8.30,4.18,5.48,-0.06,-0.19,0.15,-45.12,29.41,18.49
7880,-8.21,3.46,5.99,-0.23,-0.09,-0.03,-45.12,29.41,18.49
7891,-8.21,3.46,5.99,-0.23,-0.09,-0.03,-45.12,29.41,18.49
7902,-8.31,5.32,4.90,-0.10,0.18,-0.05,-45.12,29.41,18.49
7913,-7.72,4.47,3.56,-0.05,0.32,-0.19,-45.12,29.41,18.49
7924,-7.72,4.47,3.56,-0.05,0.32,-0.19,-45.12,29.41,18.49
7935,-7.47,3.73,3.57,-0.03,0.24,-0.17,-45.12,29.41,18.49
7946,-7.47,3.73,3.57,-0.03,0.24,-0.17,-45.12,29.41,18.49
8047,-7.41,3.80,4.05,-0.33,-0.21,0.17,-43.30,30.03,17.22
8058,-8.04,4.39,4.25,-0.42,-0.36,0.24,-43.30,30.03,17.22
8069,-8.04,4.39,4.25,-0.42,-0.36,0.24,-43.30,30.03,17.22
8080,-8.05,4.61,4.92,-0.26,-0.36,0.15,-43.30,30.03,17.22
8091,-8.05,4.61,4.92,-0.26,-0.36,0.15,-43.30,30.03,17.22
8102,-7.89,3.85,4.43,-0.21,-0.29,0.05,-43.30,30.03,17.22
8113,-8.04,4.40,4.65,-0.14,-0.27,0.05,-43.53,29.88,18.02
8124,-8.04,4.40,4.65,-0.14,-0.27,0.05,-43.53,29.88,18.02
8135,-8.09,4.05,5.29,-0.11,-0.20,-0.01,-43.53,29.88,18.02
8146,-8.09,4.05,5.29,-0.11,-0.20,-0.01,-43.53,29.88,18.02
8157,-8.75,5.01,5.67,-0.15,0.00,-0.06,-43.53,29.88,18.02
8168,-8.75,5.01,5.67,-0.15,0.00,-0.06,-43.53,29.88,18.02
8179,-8.06,4.88,5.77,-0.25,0.23,-0.29,-43.53,29.88,18.02
8322,-8.31,3.89,5.82,-0.29,-0.18,0.04,-45.80,27.07,20.88
8332,-8.06,3.92,4.94,-0.25,0.02,-0.03,-45.80,27.07,20.88
8343,-8.06,3.92,4.94,-0.25,0.02,-0.03,-45.80,27.07,20.88
8354,-8.23,4.58,4.95,-0.13,0.15,-0.08,-45.80,27.07,20.88
8365,-8.23,4.58,4.95,-0.13,0.15,-0.08,-45.80,27.07,20.88
8376,-7.71,3.94,3.91,-0.00,0.27,-0.17,-46.25,27.69,20.24
8387,-7.71,3.94,3.91,-0.00,0.27,-0.17,-46.25,27.69,20.24
8398,-7.82,4.86,3.58,0.03,0.20,-0.15,-46.25,27.69,20.24
8409,-7.82,4.86,3.58,0.03,0.20,-0.15,-46.25,27.69,20.24
8518,-8.47,3.71,6.38,-0.31,-0.22,0.04,-43.98,28.63,18.97
8529,-8.47,3.71,6.38,-0.31,-0.22,0.04,-43.98,28.63,18.97
8540,-8.27,4.05,4.40,-0.18,0.08,0.02,-43.98,28.63,18.97
8551,-8.27,4.05,4.40,-0.18,0.08,0.02,-43.98,28.63,18.97
8562,-8.68,5.00,5.47,-0.14,0.20,-0.09,-43.98,28.63,18.97
8573,-8.00,4.60,4.03,-0.11,0.38,-0.29,-43.98,28.63,18.97
8584,-8.00,4.60,4.03,-0.11,0.38,-0.29,-43.98,28.63,18.97
8595,-7.40,3.53,3.20,-0.08,0.34,-0.28,-43.98,28.63,18.97
8606,-7.40,3.53,3.20,-0.08,0.34,-0.28,-43.98,28.63,18.97
8617,-7.57,3.61,4.33,-0.13,0.15,-0.09,-46.70,28.01,19.61
8628,-7.57,3.61,4.33,-0.13,0.15,-0.09,-46.70,28.01,19.61
8639,-7.36,3.83,3.02,0.22,0.18,0.19,-46.70,28.01,19.61
8650,-7.36,3.83,3.02,0.22,0.18,0.19,-46.70,28.01,19.61
8661,-7.75,5.75,3.16,0.44,0.01,0.36,-46.70,28.01,19.61
8803,-8.84,4.04,1.40,0.30,0.17,0.22,-46.25,29.25,18.02
8813,-7.38,5.40,2.44,-0.27,-0.59,0.33,-46.25,29.25,18.02
8824,-7.38,5.40,2.44,-0.27,-0.59,0.33,-46.25,29.25,18.02
8835,-7.78,4.17,6.74,-0.42,-0.83,0.04,-46.25,29.25,18.02
8846,-7.78,4.17,6.74,-0.42,-0.83,0.04,-46.25,29.25,18.02
8857,-7.38,3.35,5.43,-0.22,-0.26,-0.07,-46.25,29.25,18.02
8868,-7.38,3.35,5.43,-0.22,-0.26,-0.07,-46.25,29.25,18.02
8879,-7.75,3.95,4.73,-0.15,-0.06,-0.02,-45.34,28.32,18.65
8890,-7.75,3.95,4.73,-0.15,-0.06,-0.02,-45.34,28.32,18.65
8901,-7.50,3.70,5.26,-0.21,-0.07,-0.02,-45.34,28.32,18.65
8912,-7.50,3.70,5.26,-0.21,-0.07,-0.02,-45.34,28.32,18.65
8923,-7.76,4.15,4.64,-0.08,0.12,0.08,-45.34,28.32,18.65
8934,-7.96,4.53,3.57,-0.07,0.19,0.14,-45.34,28.32,18.65
9038,-8.14,4.09,4.99,-0.16,-0.05,0.12,-46.48,29.10,21.04
9048,-8.14,4.09,4.99,-0.16,-0.05,0.12,-46.48,29.10,21.04
9059,-8.26,4.44,5.51,-0.04,0.08,0.05,-46.48,29.10,21.04
9070,-8.26,4.44,5.51,-0.04,0.08,0.05,-46.48,29.10,21.04
9081,-8.25,4.41,5.26,-0.02,0.27,-0.06,-46.48,29.10,21.04
9092,-8.25,4.41,5.26,-0.02,0.27,-0.06,-46.48,29.10,21.04
9103,-8.05,4.82,4.32,-0.01,0.42,-0.11,-46.48,29.10,21.04
9114,-7.55,4.44,3.51,0.03,0.43,-0.17,-44.21,29.41,20.72
9125,-7.55,4.44,3.51,0.03,0.43,-0.17,-44.21,29.41,20.72
9136,-7.42,4.52,3.09,0.04,0.31,-0.16,-44.21,29.41,20.72
9147,-7.42,4.52,3.09,0.04,0.31,-0.16,-44.21,29.41,20.72
9158,-7.66,4.13,4.23,0.10,0.10,-0.12,-44.21,29.41,20.72
9169,-7.66,4.13,4.23,0.10,0.10,-0.12,-44.21,29.41,20.72
9273,-8.18,4.54,4.59,-0.33,-0.20,0.07,-44.89,29.25,21.20
9283,-8.18,4.54,4.59,-0.33,-0.20,0.07,-44.89,29.25,21.20
9294,-7.97,4.25,4.51,-0.18,-0.11,-0.00,-44.89,29.25,21.20
9305,-7.97,4.25,4.51,-0.18,-0.11,-0.00,-44.89,29.25,21.20
9316,-8.24,4.43,5.04,-0.08,-0.05,-0.03,-44.89,29.25,21.20
9327,-8.24,4.43,5.04,-0.08,-0.05,-0.03,-44.89,29.25,21.20
9338,-8.49,4.30,6.04,0.12,0.15,-0.10,-44.89,29.25,21.20
9349,-8.49,4.30,6.04,0.12,0.15,-0.10,-44.89,29.25,21.20
9360,-7.45,3.60,3.83,0.21,0.47,-0.16,-44.89,29.25,21.20
9371,-7.45,3.60,3.83,0.21,0.47,-0.16,-44.89,29.25,21.20
9382,-7.66,4.72,3.50,0.08,0.35,-0.07,-44.66,29.10,20.40
9393,-7.39,3.20,3.88,0.04,0.22,-0.03,-44.66,29.10,20.40
9404,-7.39,3.20,3.88,0.04,0.22,-0.03,-44.66,29.10,20.40
9512,-8.05,4.09,5.02,-0.28,-0.30,-0.01,-45.12,28.47,21.04
9522,-7.97,4.37,4.36,-0.24,-0.19,-0.03,-45.12,28.47,21.04
9533,-7.97,3.77,4.98,-0.15,-0.16,-0.05,-45.12,28.47,21.04
9544,-7.97,3.77,4.98,-0.15,-0.16,-0.05,-45.12,28.47,21.04
9555,-8.32,4.49,5.16,-0.03,-0.05,-0.02,-45.12,28.47,21.04
9566,-8.32,4.49,5.16,-0.03,-0.05,-0.02,-45.12,28.47,21.04
9577,-8.78,4.41,6.11,0.19,0.14,-0.14,-45.12,28.47,21.04
9588,-8.78,4.41,6.11,0.19,0.14,-0.14,-45.12,28.47,21.04
9599,-7.94,4.07,4.91,0.25,0.51,-0.25,-45.12,28.47,21.04
9610,-7.94,4.07,4.91,0.25,0.51,-0.25,-45.12,28.47,21.04
9621,-7.44,4.82,3.29,0.05,0.58,-0.21,-45.12,28.47,21.04
9632,-7.44,4.82,3.29,0.05,0.58,-0.21,-45.12,28.47,21.04
9643,-7.31,3.72,3.42,-0.05,0.37,-0.14,-45.12,28.47,21.04
9654,-7.57,3.85,3.89,0.03,0.23,0.04,-45.12,28.47,21.04
9758,-8.67,4.06,5.79,-0.25,-0.38,0.14,-45.12,28.79,21.04
9769,-8.67,4.06,5.79,-0.25,-0.38,0.14,-45.12,28.79,21.04
9780,-8.16,3.37,5.06,-0.04,-0.11,0.03,-45.12,28.79,21.04
9791,-8.16,3.37,5.06,-0.04,-0.11,0.03,-45.12,28.79,21.04
9802,-8.89,5.03,5.83,0.14,0.10,0.04,-45.12,28.79,21.04
9813,-7.66,3.52,4.08,0.14,0.40,-0.19,-45.12,28.79,21.04
9824,-7.66,3.52,4.08,0.14,0.40,-0.19,-45.12,28.79,21.04
9835,-7.70,4.39,3.65,0.08,0.42,-0.17,-45.12,28.79,21.04
9846,-7.70,4.39,3.65,0.08,0.42,-0.17,-45.12,28.79,21.04
9857,-7.24,3.54,2.95,0.06,0.25,-0.15,-45.12,28.79,21.04
9868,-7.24,3.54,2.95,0.06,0.25,-0.15,-45.12,28.79,21.04
9879,-7.74,4.17,4.15,0.07,-0.00,-0.04,-44.21,28.47,18.81
9890,-7.74,4.17,4.15,0.07,-0.00,-0.04,-44.21,28.47,18.81
9994,-8.12,4.39,4.21,-0.21,0.18,0.20,-44.21,27.85,20.40
10004,-8.12,4.39,4.21,-0.21,0.18,0.20,-44.21,27.85,20.40
10015,-8.26,3.94,5.16,-0.12,0.21,0.14,-44.21,27.85,20.40
10026,-8.26,3.94,5.16,-0.12,0.21,0.14,-44.21,27.85,20.40
10037,-8.37,4.46,5.16,-0.04,0.38,0.05,-44.21,27.85,20.40
10048,-8.37,4.46,5.16,-0.04,0.38,0.05,-44.21,27.85,20.40
10059,-7.98,4.70,3.76,0.11,0.53,-0.12,-44.21,27.85,20.40
10070,-7.98,4.70,3.76,0.11,0.53,-0.12,-44.21,27.85,20.40
10081,-7.64,4.19,2.53,0.07,0.40,-0.20,-44.21,27.85,20.40
10092,-7.64,4.19,2.53,0.07,0.40,-0.20,-44.21,27.85,20.40
10103,-7.65,3.73,3.83,-0.04,0.15,-0.11,-44.21,27.85,20.40
10114,-8.19,3.70,2.78,-0.01,0.14,0.16,-44.21,27.85,20.40
10125,-8.19,3.70,2.78,-0.01,0.14,0.16,-44.21,27.85,20.40
10231,-8.27,3.54,3.77,0.24,0.30,0.10,-45.12,28.16,20.08
10241,-8.10,5.44,3.08,-0.18,0.10,0.18,-45.12,28.16,20.08
10252,-8.10,5.44,3.08,-0.18,0.10,0.18,-45.12,28.16,20.08
10263,-7.71,3.70,3.76,-0.32,-0.13,0.03,-46.48,27.85,20.40
10274,-7.84,4.05,4.37,-0.30,-0.24,0.04,-46.48,27.85,20.40
10285,-7.84,4.05,4.37,-0.30,-0.24,0.04,-46.48,27.85,20.40
10296,-7.85,4.49,4.05,-0.15,-0.26,0.05,-46.48,27.85,20.40
10307,-7.85,4.49,4.05,-0.15,-0.26,0.05,-46.48,27.85,20.40
10318,-8.18,4.31,4.80,0.02,-0.32,-0.01,-46.48,27.85,20.40
10329,-8.18,4.31,4.80,0.02,-0.32,-0.01,-46.48,27.85,20.40
10340,-7.95,3.63,4.43,0.08,-0.25,-0.05,-46.48,27.85,20.40
10351,-7.95,3.63,4.43,0.08,-0.25,-0.05,-46.48,27.85,20.40
10362,-8.20,4.42,4.84,0.07,-0.20,-0.02,-46.48,27.85,20.40
10503,-7.65,4.62,3.50,0.15,0.02,0.19,-44.21,27.23,21.99
10513,-7.65,4.62,3.50,0.15,0.02,0.19,-44.21,27.23,21.99
10524,-8.36,3.98,4.94,-0.02,-0.17,0.11,-45.12,27.23,20.40
10535,-8.43,3.22,5.89,-0.28,-0.13,-0.03,-45.12,27.23,20.40
10546,-8.43,3.22,5.89,-0.28,-0.13,-0.03,-45.12,27.23,20.40
10557,-8.29,4.25,4.75,-0.18,0.14,-0.05,-45.12,27.23,20.40
10568,-8.29,4.25,4.75,-0.18,0.14,-0.05,-45.12,27.23,20.40
10579,-8.02,4.95,3.86,-0.16,0.25,-0.13,-45.12,27.23,20.40
10590,-8.02,4.95,3.86,-0.16,0.25,-0.13,-45.12,27.23,20.40
10601,-7.63,4.17,3.19,-0.14,0.19,-0.22,-45.12,27.23,20.40
10612,-7.63,4.17,3.19,-0.14,0.19,-0.22,-45.12,27.23,20.40
10623,-7.48,2.33,4.74,-0.07,0.04,-0.10,-45.12,27.23,20.40
10634,-7.90,4.47,3.33,0.21,0.13,0.27,-44.21,27.85,19.77
10645,-7.90,4.47,3.33,0.21,0.13,0.27,-44.21,27.85,19.77
10748,-8.56,4.56,4.80,-0.16,0.07,-0.02,-44.21,27.85,19.77
10758,-8.24,3.90,4.42,-0.03,0.18,-0.17,-44.89,27.69,20.56
10769,-8.24,3.90,4.42,-0.03,0.18,-0.17,-44.89,27.69,20.56
10780,-7.85,4.12,3.99,0.19,0.31,-0.21,-44.89,27.69,20.56
10791,-7.85,4.12,3.99,0.19,0.31,-0.21,-44.89,27.69,20.56
10802,-7.50,3.58,3.20,0.26,0.30,-0.17,-44.89,27.69,20.56
10813,-7.50,3.58,3.20,0.26,0.30,-0.17,-44.89,27.69,20.56
10824,-7.68,4.01,4.06,0.31,0.19,0.04,-44.89,27.69,20.56
10835,-7.58,4.59,2.85,0.41,0.16,0.21,-44.89,27.69,20.56
10846,-7.58,4.59,2.85,0.41,0.16,0.21,-44.89,27.69,20.56
10857,-7.73,4.55,3.59,0.34,-0.10,0.18,-44.89,27.69,20.56
10868,-7.73,4.55,3.59,0.34,-0.10,0.18,-44.89,27.69,20.56
10879,-7.45,3.88,3.40,0.22,-0.31,0.13,-45.80,28.32,20.24
10985,-9.04,4.59,6.20,0.13,-0.01,0.09,-45.80,28.32,20.24
10995,-8.89,4.27,7.87,0.15,0.45,-0.11,-45.80,28.32,20.24
11006,-8.89,4.27,7.87,0.15,0.45,-0.11,-45.80,28.32,20.24
11017,-7.40,4.32,2.42,0.19,1.04,-0.29,-43.98,27.69,20.24
11028,-7.40,4.32,2.42,0.19,1.04,-0.29,-43.98,27.69,20.24
11039,-6.96,4.60,1.98,0.16,0.77,-0.26,-43.98,27.69,20.24
11050,-6.96,4.60,1.98,0.16,0.77,-0.26,-43.98,27.69,20.24
11061,-6.84,3.97,2.85,0.19,0.31,-0.14,-43.98,27.69,20.24
11072,-6.84,3.97,2.85,0.19,0.31,-0.14,-43.98,27.69,20.24
11083,-7.61,4.98,3.70,0.05,-0.04,-0.03,-43.98,27.69,20.24
11094,-7.61,4.98,3.70,0.05,-0.04,-0.03,-43.98,27.69,20.24
11105,-6.84,4.11,1.36,-0.11,-0.27,-0.07,-43.98,27.69,20.24
11116,-7.93,4.75,4.31,-0.28,-0.78,0.05,-43.98,27.69,20.24
11218,-7.44,4.31,3.36,0.03,0.39,0.18,-45.57,28.47,20.40
11229,-7.44,4.31,3.36,0.03,0.39,0.18,-45.57,28.47,20.40
11240,-7.67,3.64,3.52,-0.03,0.15,0.20,-45.57,28.47,20.40
11251,-7.67,3.64,3.52,-0.03,0.15,0.20,-45.57,28.47,20.40
11262,-9.01,3.93,3.25,-0.05,-0.18,0.16,-42.85,29.72,20.08
11273,-9.01,3.93,3.25,-0.05,-0.18,0.16,-42.85,29.72,20.08
11284,-7.38,5.24,2.48,-0.41,-0.69,0.11,-42.85,29.72,20.08
11295,-6.98,4.30,5.23,-0.32,-1.04,-0.14,-42.85,29.72,20.08
11306,-6.98,4.30,5.23,-0.32,-1.04,-0.14,-42.85,29.72,20.08
11317,-6.83,3.43,5.57,0.08,-0.92,-0.27,-42.85,29.72,20.08
11328,-6.83,3.43,5.57,0.08,-0.92,-0.27,-42.85,29.72,20.08
11339,-6.92,3.58,6.35,0.55,-0.68,-0.25,-42.85,29.72,20.08
11350,-6.92,3.58,6.35,0.55,-0.68,-0.25,-42.85,29.72,20.08
11453,-8.10,4.39,5.34,-0.11,-0.15,-0.21,-41.94,28.47,20.72
11463,-9.16,3.31,3.40,-0.06,0.04,-0.09,-41.94,28.47,20.72
11474,-9.16,3.31,3.40,-0.06,0.04,-0.09,-41.94,28.47,20.72
11485,-7.19,5.46,3.21,-0.71,-0.30,0.22,-41.94,28.47,20.72
11496,-7.09,4.35,6.46,-0.75,-0.32,0.09,-41.94,28.47,20.72
11507,-7.09,4.35,6.46,-0.75,-0.32,0.09,-41.94,28.47,20.72
11518,-7.14,3.54,6.21,-0.30,0.25,-0.02,-43.98,28.63,21.83
11529,-7.14,3.54,6.21,-0.30,0.25,-0.02,-43.98,28.63,21.83
11540,-7.68,4.12,4.97,0.02,0.63,-0.03,-43.98,28.63,21.83
11551,-7.68,4.12,4.97,0.02,0.63,-0.03,-43.98,28.63,21.83
11562,-7.73,3.46,4.76,0.13,0.58,-0.14,-43.98,28.63,21.83
11573,-7.73,3.46,4.76,0.13,0.58,-0.14,-43.98,28.63,21.83
11584,-7.69,3.67,4.81,0.06,0.39,-0.13,-43.98,28.63,21.83
11691,-7.97,5.23,3.30,0.07,0.14,0.03,-45.34,28.94,21.20
11701,-7.74,4.25,4.26,-0.08,0.01,-0.08,-45.34,28.94,21.20
11712,-7.74,4.25,4.26,-0.08,0.01,-0.08,-45.34,28.94,21.20
11723,-7.58,3.84,4.28,-0.07,0.04,0.01,-45.34,28.94,21.20
11739,-7.58,3.84,4.28,-0.07,0.04,0.01,-45.34,28.94,21.20
11745,-7.39,4.04,3.80,-0.12,-0.05,0.08,-45.34,28.94,21.20
11756,-7.81,4.68,4.00,-0.10,-0.16,0.18,-45.34,28.94,21.20
11767,-7.81,4.68,4.00,-0.10,-0.16,0.18,-45.34,28.94,21.20
11778,-7.25,3.59,3.51,-0.20,-0.34,0.12,-45.12,28.16,20.08
11789,-7.25,3.59,3.51,-0.20,-0.34,0.12,-45.12,28.16,20.08
11800,-8.05,3.43,5.89,-0.55,-0.64,0.12,-45.12,28.16,20.08
11811,-8.05,3.43,5.89,-0.55,-0.64,0.12,-45.12,28.16,20.08
11822,-8.57,3.96,6.63,-0.44,-0.48,0.12,-45.12,28.16,20.08
11925,-7.42,4.07,3.79,0.31,0.63,0.04,-42.62,27.69,22.15
11936,-7.55,4.41,3.58,0.20,0.47,0.05,-42.62,27.69,22.15
11947,-7.55,4.41,3.58,0.20,0.47,0.05,-42.62,27.69,22.15
11958,-7.82,3.92,5.02,0.14,0.31,0.01,-42.62,27.69,22.15
11969,-7.82,3.92,5.02,0.14,0.31,0.01,-42.62,27.69,22.15
11980,-7.95,4.54,4.41,0.13,0.34,0.02,-42.62,27.69,22.15
11991,-7.95,4.54,4.41,0.13,0.34,0.02,-42.62,27.69,22.15
12002,-7.71,5.11,3.12,0.05,0.26,-0.06,-42.62,27.69,22.15
12013,-7.71,5.11,3.12,0.05,0.26,-0.06,-42.62,27.69,22.15
12024,-7.36,4.56,3.19,-0.13,0.02,-0.14,-44.44,27.69,20.56
12035,-7.36,4.56,3.19,-0.13,0.02,-0.14,-44.44,27.69,20.56
12046,-7.37,4.34,2.90,-0.29,-0.19,-0.08,-44.44,27.69,20.56
12057,-8.11,4.33,3.77,-0.44,-0.42,0.04,-44.44,27.69,20.56
12164,-7.50,3.59,4.20,-0.07,0.09,-0.06,-42.17,27.07,21.20
12174,-7.50,3.59,4.20,-0.07,0.09,-0.06,-42.17,27.07,21.20
12185,-7.62,4.24,3.94,0.01,0.07,0.10,-42.17,27.07,21.20
12196,-7.70,3.91,4.06,0.08,-0.05,0.14,-42.17,27.07,21.20
12207,-7.70,3.91,4.06,0.08,-0.05,0.14,-42.17,27.07,21.20
12218,-7.80,3.77,4.92,-0.06,-0.19,0.08,-42.17,27.07,21.20
12229,-7.80,3.77,4.92,-0.06,-0.19,0.08,-42.17,27.07,21.20
12240,-8.21,3.56,5.28,-0.28,-0.23,0.04,-42.17,27.07,21.20
12251,-8.21,3.56,5.28,-0.28,-0.23,0.04,-42.17,27.07,21.20
12262,-8.06,3.70,5.23,-0.18,-0.08,-0.01,-42.17,27.07,21.20
12273,-8.06,3.70,5.23,-0.18,-0.08,-0.01,-42.17,27.07,21.20
12284,-8.50,4.81,5.03,-0.09,0.08,-0.01,-44.21,28.16,22.31
12295,-8.50,4.81,5.03,-0.09,0.08,-0.01,-44.21,28.16,22.31
12306,-7.93,3.40,5.21,-0.07,0.26,-0.21,-44.21,28.16,22.31
12413,-7.20,4.87,3.34,0.25,-0.03,0.37,-42.62,26.76,21.51
12423,-7.55,3.78,4.19,0.09,-0.30,0.22,-42.62,26.76,21.51
12434,-7.55,3.78,4.19,0.09,-0.30,0.22,-42.62,26.76,21.51
12445,-8.82,3.55,6.24,-0.31,-0.45,0.13,-42.62,26.76,21.51
12456,-8.28,3.65,5.66,-0.28,-0.12,0.03,-42.62,26.76,21.51
12467,-8.28,3.65,5.66,-0.28,-0.12,0.03,-42.62,26.76,21.51
12478,-8.41,5.06,4.11,-0.19,0.11,0.03,-42.62,26.76,21.51
12489,-8.41,5.06,4.11,-0.19,0.11,0.03,-42.62,26.76,21.51
12500,-8.49,3.64,5.71,-0.07,0.15,-0.17,-42.62,26.76,21.51
12511,-8.49,3.64,5.71,-0.07,0.15,-0.17,-42.62,26.76,21.51
12522,-7.54,4.09,4.30,0.09,0.43,-0.24,-45.80,28.32,20.88
12533,-7.54,4.09,4.30,0.09,0.43,-0.24,-45.80,28.32,20.88
12544,-7.78,4.22,3.80,0.25,0.45,-0.18,-45.80,28.32,20.88
12687,-8.33,3.78,5.46,-0.42,-0.04,0.20,-45.12,27.54,20.40
12697,-8.27,4.29,4.25,-0.27,0.18,0.19,-45.12,27.54,20.40
12708,-8.27,4.29,4.25,-0.27,0.18,0.19,-45.12,27.54,20.40
12719,-8.82,4.69,5.63,-0.15,0.24,0.04,-45.12,27.54,20.40
12730,-8.82,4.69,5.63,-0.15,0.24,0.04,-45.12,27.54,20.40
12741,-7.84,4.28,3.95,-0.10,0.46,-0.22,-45.12,27.54,20.40
12752,-7.84,4.28,3.95,-0.10,0.46,-0.22,-45.12,27.54,20.40
12763,-7.91,4.99,3.25,0.01,0.45,-0.21,-45.12,27.54,20.40
12774,-7.91,4.99,3.25,0.01,0.45,-0.21,-45.12,27.54,20.40
12785,-7.41,3.24,3.73,-0.02,0.33,-0.17,-45.57,26.92,21.99
12796,-7.64,4.00,2.74,0.10,0.27,0.11,-45.57,26.92,21.99
12807,-7.64,4.00,2.74,0.10,0.27,0.11,-45.57,26.92,21.99
12818,-8.48,4.98,2.33,0.19,0.02,0.24,-45.57,26.92,21.99
12926,-7.78,3.85,4.96,-0.19,-0.19,-0.10,-43.30,27.54,22.63
12936,-7.78,3.85,4.96,-0.19,-0.19,-0.10,-43.30,27.54,22.63
12947,-7.64,3.47,4.76,-0.14,-0.13,-0.08,-43.30,27.54,22.63
12958,-7.82,3.77,5.18,0.09,-0.08,-0.06,-43.30,27.54,22.63
12969,-7.82,3.77,5.18,0.09,-0.08,-0.06,-43.30,27.54,22.63
12980,-7.69,3.54,5.32,0.27,0.04,-0.09,-43.30,27.54,22.63
12991,-7.69,3.54,5.32,0.27,0.04,-0.09,-43.30,27.54,22.63
13002,-7.82,4.16,4.99,0.52,0.25,-0.05,-43.30,27.54,22.63
13013,-7.82,4.16,4.99,0.52,0.25,-0.05,-43.30,27.54,22.63
13024,-7.95,4.45,3.28,0.48,0.33,0.00,-43.76,27.85,21.04
13035,-7.95,4.45,3.28,0.48,0.33,0.00,-43.76,27.85,21.04
13046,-8.03,4.93,3.56,0.08,0.12,0.04,-43.76,27.85,21.04
13057,-7.89,4.29,4.30,-0.01,0.04,-0.04,-43.76,27.85,21.04
13161,-7.55,3.59,4.11,-0.34,-0.29,0.19,-44.44,27.69,21.51
13171,-7.55,3.59,4.11,-0.34,-0.29,0.19,-44.44,27.69,21.51
13182,-7.73,3.91,3.99,-0.41,-0.48,0.22,-44.44,27.69,21.51
13193,-7.73,3.91,3.99,-0.41,-0.48,0.22,-44.44,27.69,21.51
13204,-8.54,3.68,5.01,-0.34,-0.56,0.18,-44.44,27.69,21.51
13215,-8.54,3.68,5.01,-0.34,-0.56,0.18,-44.44,27.69,21.51
13226,-8.23,4.19,5.50,-0.10,-0.38,0.08,-44.44,27.69,21.51
13237,-7.87,4.23,4.55,0.10,-0.18,0.04,-44.44,27.69,21.51
13248,-7.87,4.23,4.55,0.10,-0.18,0.04,-44.44,27.69,21.51
13259,-8.25,4.15,5.60,0.14,-0.15,0.01,-44.44,27.69,21.51
13270,-8.25,4.15,5.60,0.14,-0.15,0.01,-44.44,27.69,21.51
13281,-9.04,4.55,6.36,0.14,0.04,-0.12,-42.39,27.54,22.95
13292,-9.04,4.55,6.36,0.14,0.04,-0.12,-42.39,27.54,22.95
13394,-7.14,2.93,3.96,0.16,0.23,-0.01,-42.39,27.54,22.95
13404,-7.93,4.69,3.46,0.16,0.11,0.31,-44.44,27.38,20.24
13415,-7.93,4.69,3.46,0.16,0.11,0.31,-44.44,27.38,20.24
13426,-8.54,4.09,5.06,-0.03,-0.15,0.16,-44.44,27.38,20.24
13437,-8.15,3.16,5.19,-0.15,-0.09,-0.03,-44.44,27.38,20.24
13448,-8.15,3.16,5.19,-0.15,-0.09,-0.03,-44.44,27.38,20.24
13459,-8.12,4.75,4.03,-0.06,0.07,-0.02,-44.44,27.38,20.24
13470,-8.12,4.75,4.03,-0.06,0.07,-0.02,-44.44,27.38,20.24
13481,-7.93,4.21,4.02,-0.09,0.04,-0.11,-44.44,27.38,20.24
13492,-7.93,4.21,4.02,-0.09,0.04,-0.11,-44.44,27.38,20.24
13503,-7.89,3.12,4.76,-0.11,0.02,-0.09,-44.44,27.38,20.24
13514,-7.89,3.12,4.76,-0.11,0.02,-0.09,-44.44,27.38,20.24
13525,-7.67,4.42,2.96,0.02,0.17,0.20,-44.44,27.38,20.24
13629,-8.41,4.24,5.09,-0.31,-0.44,0.05,-43.76,27.54,22.63
13640,-8.21,3.68,5.46,-0.18,-0.25,0.00,-43.76,27.54,22.63
13651,-8.21,3.68,5.46,-0.18,-0.25,0.00,-43.76,27.54,22.63
13662,-8.71,4.66,5.05,-0.07,-0.03,0.04,-42.17,28.01,21.51
13673,-8.71,4.66,5.05,-0.07,-0.03,0.04,-42.17,28.01,21.51
13684,-8.72,4.16,6.02,0.08,0.19,-0.14,-42.17,28.01,21.51
13695,-8.72,4.16,6.02,0.08,0.19,-0.14,-42.17,28.01,21.51
13706,-7.81,4.13,5.10,0.16,0.53,-0.31,-42.17,28.01,21.51
13717,-7.25,3.71,2.67,0.16,0.62,-0.34,-42.17,28.01,21.51
13728,-7.25,3.71,2.67,0.16,0.62,-0.34,-42.17,28.01,21.51
13739,-7.45,3.44,4.35,0.04,0.34,-0.20,-42.17,28.01,21.51
13750,-7.45,3.44,4.35,0.04,0.34,-0.20,-42.17,28.01,21.51
13761,-7.14,3.11,3.21,0.06,0.21,-0.01,-42.17,28.01,21.51
13871,-8.50,3.60,6.10,-0.13,-0.38,0.03,-43.07,27.07,21.20
13882,-7.98,4.21,4.01,0.08,-0.05,0.03,-43.07,27.07,21.20
13893,-7.98,4.21,4.01,0.08,-0.05,0.03,-43.07,27.07,21.20
13904,-8.45,4.31,5.62,0.08,-0.03,-0.02,-43.07,27.07,21.20
13915,-8.45,4.31,5.62,0.08,-0.03,-0.02,-43.07,27.07,21.20
13926,-8.09,3.37,6.20,0.16,0.27,-0.07,-41.26,28.01,23.42
13937,-8.09,3.37,6.20,0.16,0.27,-0.07,-41.26,28.01,23.42
13948,-7.78,3.83,3.67,0.31,0.57,0.03,-41.26,28.01,23.42
13959,-7.70,4.30,3.54,0.28,0.50,0.08,-41.26,28.01,23.42
13970,-7.70,4.30,3.54,0.28,0.50,0.08,-41.26,28.01,23.42
13981,-7.79,3.89,4.02,0.23,0.37,0.04,-41.26,28.01,23.42
13992,-7.79,3.89,4.02,0.23,0.37,0.04,-41.26,28.01,23.42
14003,-7.98,4.00,4.48,0.19,0.30,0.06,-41.26,28.01,23.42
14014,-7.98,4.00,4.48,0.19,0.30,0.06,-41.26,28.01,23.42
14118,-7.82,4.81,4.03,-0.46,-0.98,-0.05,-45.12,28.16,21.04
14128,-7.82,4.81,4.03,-0.46,-0.98,-0.05,-45.12,28.16,21.04
14139,-7.65,4.29,5.14,-0.15,-0.79,0.05,-45.12,28.16,21.04
14150,-7.65,4.29,5.14,-0.15,-0.79,0.05,-45.12,28.16,21.04
14161,-7.57,4.10,5.43,-0.11,-0.50,0.05,-43.53,28.01,23.74
14172,-7.57,4.10,5.43,-0.11,-0.50,0.05,-43.53,28.01,23.74
14183,-7.52,3.57,5.78,-0.19,-0.29,-0.03,-43.53,28.01,23.74
14194,-7.52,3.57,5.78,-0.19,-0.29,-0.03,-43.53,28.01,23.74
14205,-7.60,3.31,5.62,-0.23,-0.16,-0.12,-43.53,28.01,23.74
14216,-7.60,3.31,5.62,-0.23,-0.16,-0.12,-43.53,28.01,23.74
14227,-7.79,3.17,5.44,-0.12,-0.08,-0.18,-43.53,28.01,23.74
14238,-7.74,3.05,4.98,-0.11,-0.13,-0.23,-43.53,28.01,23.74
14249,-7.74,3.05,4.98,-0.11,-0.13,-0.23,-43.53,28.01,23.74
14357,-7.64,3.57,5.31,-0.05,-0.04,-0.05,-43.07,26.76,24.70
14367,-7.87,4.25,4.66,0.05,0.07,0.03,-43.07,26.76,24.70
14378,-7.80,4.79,3.78,-0.03,0.02,0.05,-43.07,26.76,24.70
14389,-7.80,4.79,3.78,-0.03,0.02,0.05,-43.07,26.76,24.70
14400,-7.41,3.74,4.52,-0.28,-0.20,-0.01,-43.07,26.76,24.70
14411,-7.41,3.74,4.52,-0.28,-0.20,-0.01,-43.07,26.76,24.70
14422,-7.38,3.47,5.59,-0.27,-0.27,0.02,-43.30,25.36,23.90
14433,-7.38,3.47,5.59,-0.27,-0.27,0.02,-43.30,25.36,23.90
14575,-7.74,4.26,4.62,0.06,0.32,0.03,-43.30,25.98,23.90
14585,-7.37,3.94,3.90,-0.02,0.28,0.01,-43.30,25.98,23.90
14596,-7.37,3.94,3.90,-0.02,0.28,0.01,-43.30,25.98,23.90
14607,-7.47,3.90,4.98,-0.02,0.10,0.04,-43.30,25.98,23.90
14618,-7.47,3.46,5.63,0.08,0.13,0.04,-43.30,25.98,23.90
14629,-7.47,3.46,5.63,0.08,0.13,0.04,-43.30,25.98,23.90
14640,-7.65,3.32,5.23,0.24,0.30,0.07,-43.30,25.98,23.90
14651,-7.65,3.32,5.23,0.24,0.30,0.07,-43.30,25.98,23.90
14662,-7.92,4.49,3.32,0.08,0.27,0.18,-43.76,25.98,23.26
14673,-7.92,4.49,3.32,0.08,0.27,0.18,-43.76,25.98,23.26
14684,-7.86,4.44,4.19,-0.12,0.02,0.10,-43.76,25.98,23.26
14695,-7.86,4.44,4.19,-0.12,0.02,0.10,-43.76,25.98,23.26
14706,-7.77,3.55,4.80,-0.12,-0.09,0.03,-43.76,25.98,23.26
14717,-7.77,3.55,4.80,-0.12,-0.09,0.03,-43.76,25.98,23.26
14823,-8.72,3.97,6.16,0.13,0.04,-0.19,-42.62,27.07,24.06
14833,-8.72,3.97,6.16,0.13,0.04,-0.19,-42.62,27.07,24.06
14844,-8.33,3.96,7.18,0.23,0.37,-0.34,-42.62,27.07,24.06
14855,-8.33,3.96,7.18,0.23,0.37,-0.34,-42.62,27.07,24.06
14866,-7.36,4.21,3.58,0.16,0.79,-0.34,-42.62,27.07,24.06
14877,-7.36,4.21,3.58,0.16,0.79,-0.34,-42.62,27.07,24.06
14888,-7.19,3.81,2.37,0.10,0.67,-0.19,-42.62,27.07,24.06
14899,-7.28,3.13,4.20,0.05,0.31,-0.02,-42.62,27.07,24.06
14910,-7.28,3.13,4.20,0.05,0.31,-0.02,-42.62,27.07,24.06
14921,-7.61,4.40,3.50,0.13,0.20,0.26,-43.07,26.45,22.47
14932,-7.61,4.40,3.50,0.13,0.20,0.26,-43.07,26.45,22.47
14943,-8.04,3.94,4.26,0.12,-0.02,0.24,-43.07,26.45,22.47
14954,-8.04,3.94,4.26,0.12,-0.02,0.24,-43.07,26.45,22.47
15058,-7.64,3.63,3.58,0.09,0.19,0.11,-45.12,26.60,22.31
15069,-7.64,3.63,3.58,0.09,0.19,0.11,-45.12,26.60,22.31
15080,-7.94,4.24,4.22,0.14,0.09,0.19,-45.12,26.60,22.31
15091,-7.94,4.24,4.22,0.14,0.09,0.19,-45.12,26.60,22.31
15102,-7.69,3.23,4.56,0.14,0.01,0.15,-45.12,26.60,22.31
15113,-7.69,3.23,4.56,0.14,0.01,0.15,-45.12,26.60,22.31
15124,-7.69,3.68,4.22,0.01,-0.07,0.18,-45.12,26.60,22.31
15135,-7.69,3.68,4.22,0.01,-0.07,0.18,-45.12,26.60,22.31
15146,-7.50,2.92,3.47,-0.24,-0.31,0.14,-45.12,26.60,22.31
15157,-7.50,2.92,3.47,-0.24,-0.31,0.14,-45.12,26.60,22.31
15168,-8.26,4.43,4.92,-0.33,-0.52,0.20,-45.12,26.60,22.31
15179,-8.22,4.12,4.71,-0.19,-0.46,0.04,-43.07,26.76,23.74
15190,-8.22,4.12,4.71,-0.19,-0.46,0.04,-43.07,26.76,23.74
15292,-7.69,3.81,5.52,0.03,0.40,-0.30,-43.07,26.76,23.74
15303,-7.22,4.15,3.75,0.05,0.55,-0.20,-42.85,25.04,24.22
15314,-7.22,4.15,3.75,0.05,0.55,-0.20,-42.85,25.04,24.22
15325,-7.19,2.97,3.96,0.06,0.39,-0.07,-42.85,25.04,24.22
15336,-7.19,2.97,3.96,0.06,0.39,-0.07,-42.85,25.04,24.22
15347,-7.71,3.85,4.29,0.17,0.29,0.25,-42.85,25.04,24.22
15358,-7.71,3.85,4.29,0.17,0.29,0.25,-42.85,25.04,24.22
15369,-7.41,4.16,3.37,0.28,0.17,0.35,-42.85,25.04,24.22
15380,-7.68,3.72,4.31,0.23,-0.11,0.20,-42.85,25.04,24.22
15391,-7.68,3.72,4.31,0.23,-0.11,0.20,-42.85,25.04,24.22
15402,-7.56,3.27,4.12,0.02,-0.33,0.15,-42.85,25.04,24.22
15413,-7.56,3.27,4.12,0.02,-0.33,0.15,-42.85,25.04,24.22
15424,-7.78,3.30,5.10,-0.15,-0.52,0.22,-44.66,25.98,24.22
15529,-8.14,4.10,5.81,0.22,0.81,-0.28,-44.66,25.98,24.22
15539,-6.96,4.54,2.78,0.39,1.08,-0.26,-42.85,26.60,22.31
15550,-6.96,4.54,2.78,0.39,1.08,-0.26,-42.85,26.60,22.31
15561,-6.97,3.63,2.74,0.26,0.68,-0.22,-42.85,26.60,22.31
15572,-6.97,3.63,2.74,0.26,0.68,-0.22,-42.85,26.60,22.31
15583,-7.03,3.75,3.06,0.30,0.33,-0.08,-42.85,26.60,22.31
15594,-7.03,3.75,3.06,0.30,0.33,-0.08,-42.85,26.60,22.31
15605,-7.85,4.76,4.12,0.16,-0.00,-0.02,-42.85,26.60,22.31
15616,-7.85,4.76,4.12,0.16,-0.00,-0.02,-42.85,26.60,22.31
15627,-7.24,4.19,2.62,0.16,-0.16,-0.10,-42.85,26.60,22.31
15638,-7.24,4.19,2.62,0.16,-0.16,-0.10,-42.85,26.60,22.31
15649,-7.45,3.84,4.19,-0.09,-0.55,-0.06,-42.85,26.60,22.31
15660,-8.04,2.92,6.11,-0.40,-0.67,-0.05,-42.85,26.60,22.31
15671,-8.04,2.92,6.11,-0.40,-0.67,-0.05,-42.85,26.60,22.31
15776,-7.93,2.64,6.28,0.10,-0.01,-0.05,-44.89,25.82,23.11
15786,-7.76,4.26,3.69,0.25,0.34,0.24,-44.89,25.82,23.11
15797,-7.76,4.26,3.69,0.25,0.34,0.24,-44.89,25.82,23.11
15808,-7.82,4.50,3.61,0.12,0.21,0.24,-44.21,27.23,23.58
15819,-8.78,3.91,4.50,0.02,0.00,0.17,-44.21,27.23,23.58
15830,-8.78,3.91,4.50,0.02,0.00,0.17,-44.21,27.23,23.58
15841,-7.40,4.05,5.22,-0.29,-0.19,0.01,-44.21,27.23,23.58
15852,-7.40,4.05,5.22,-0.29,-0.19,0.01,-44.21,27.23,23.58
15863,-7.50,2.42,7.59,0.10,-0.08,-0.27,-44.21,27.23,23.58
15874,-7.50,2.42,7.59,0.10,-0.08,-0.27,-44.21,27.23,23.58
15885,-8.42,2.43,4.96,0.51,0.50,-0.20,-44.21,27.23,23.58
15896,-8.42,2.43,4.96,0.51,0.50,-0.20,-44.21,27.23,23.58
15907,-7.61,5.40,2.85,0.16,0.49,-0.00,-44.21,27.23,23.58
16011,-7.66,3.40,4.72,-0.16,-0.20,0.09,-45.57,26.29,23.58
16021,-8.20,3.58,4.71,-0.42,-0.28,0.10,-45.57,26.29,23.58
16032,-8.20,3.58,4.71,-0.42,-0.28,0.10,-45.57,26.29,23.58
16043,-8.12,3.75,4.77,-0.36,-0.27,0.05,-45.57,26.29,23.58
16054,-8.12,3.75,4.77,-0.36,-0.27,0.05,-45.57,26.29,23.58
16065,-8.22,4.15,5.12,-0.12,-0.21,-0.01,-46.02,27.54,22.95
16076,-8.22,4.15,5.12,-0.12,-0.21,-0.01,-46.02,27.54,22.95
16087,-7.96,3.83,4.83,-0.06,-0.11,-0.09,-46.02,27.54,22.95
16098,-7.96,3.83,4.83,-0.06,-0.11,-0.09,-46.02,27.54,22.95
16109,-8.61,4.95,5.47,-0.01,-0.00,-0.09,-46.02,27.54,22.95
16120,-8.17,3.72,6.44,0.16,0.28,-0.24,-46.02,27.54,22.95
16131,-8.17,3.72,6.44,0.16,0.28,-0.24,-46.02,27.54,22.95
16142,-7.99,4.25,3.86,0.20,0.68,-0.20,-46.02,27.54,22.95
16249,-7.55,3.89,3.90,0.05,-0.25,0.24,-44.44,26.45,23.74
16259,-7.55,3.89,3.90,0.05,-0.25,0.24,-44.44,26.45,23.74
16270,-7.98,3.20,4.59,-0.23,-0.46,0.21,-44.44,26.45,23.74
16281,-8.31,4.26,5.10,-0.31,-0.52,0.18,-44.44,26.45,23.74
16292,-8.31,4.26,5.10,-0.31,-0.52,0.18,-44.44,26.45,23.74
16303,-8.43,4.17,5.58,0.04,-0.32,0.05,-42.17,26.45,23.42
16314,-8.43,4.17,5.58,0.04,-0.32,0.05,-42.17,26.45,23.42
16325,-8.07,3.89,4.72,0.08,-0.09,-0.02,-42.17,26.45,23.42
16336,-8.07,3.89,4.72,0.08,-0.09,-0.02,-42.17,26.45,23.42
16347,-8.62,4.25,5.95,0.11,0.03,-0.06,-42.17,26.45,23.42
16358,-8.62,4.25,5.95,0.11,0.03,-0.06,-42.17,26.45,23.42
16369,-8.05,3.24,5.64,0.22,0.40,-0.10,-42.17,26.45,23.42
16380,-7.54,3.98,3.10,0.39,0.67,0.01,-42.17,26.45,23.42
16524,-8.19,3.73,3.19,-0.70,-0.96,-0.14,-44.21,26.92,21.36
16534,-8.19,3.73,3.19,-0.70,-0.96,-0.14,-44.21,26.92,21.36
16545,-6.62,4.35,3.86,-1.21,-1.31,0.10,-44.21,26.92,21.36
16556,-6.62,4.35,3.86,-1.21,-1.31,0.10,-44.21,26.92,21.36
16567,-7.14,2.82,5.65,-1.04,-1.42,0.19,-42.17,25.82,23.74
16578,-7.14,2.82,5.65,-1.04,-1.42,0.19,-42.17,25.82,23.74
16589,-8.07,3.03,10.05,-0.21,-0.95,0.16,-42.17,25.82,23.74
16600,-7.40,1.00,8.42,0.73,0.23,0.05,-42.17,25.82,23.74
16611,-7.40,1.00,8.42,0.73,0.23,0.05,-42.17,25.82,23.74
16622,-8.12,4.30,2.57,0.97,0.82,0.47,-42.17,25.82,23.74
16633,-8.12,4.30,2.57,0.97,0.82,0.47,-42.17,25.82,23.74
16644,-8.48,7.12,4.11,0.56,0.43,0.41,-42.17,25.82,23.74
16655,-8.48,7.12,4.11,0.56,0.43,0.41,-42.17,25.82,23.74
16760,-7.13,4.48,5.19,0.33,-0.68,-0.25,-41.94,27.85,23.26
16770,-7.33,3.69,4.92,0.43,-0.66,-0.41,-41.94,27.85,23.26
16781,-7.16,3.93,5.53,0.21,-0.69,-0.34,-41.94,27.85,23.26
16792,-7.16,3.93,5.53,0.21,-0.69,-0.34,-41.94,27.85,23.26
16803,-7.07,4.36,4.84,-0.06,-0.56,-0.21,-40.35,25.51,24.38
16814,-7.07,4.36,4.84,-0.06,-0.56,-0.21,-40.35,25.51,24.38
16825,-7.54,4.68,5.16,-0.21,-0.46,-0.18,-40.35,25.51,24.38
16836,-7.54,4.68,5.16,-0.21,-0.46,-0.18,-40.35,25.51,24.38
16847,-7.43,4.29,5.06,-0.32,-0.42,-0.26,-40.35,25.51,24.38
16858,-7.43,4.29,5.06,-0.32,-0.42,-0.26,-40.35,25.51,24.38
16869,-7.63,3.95,5.37,-0.23,-0.38,-0.32,-40.35,25.51,24.38
16880,-7.63,3.95,5.37,-0.23,-0.38,-0.32,-40.35,25.51,24.38
16891,-7.21,2.96,6.25,0.18,-0.19,-0.29,-40.35,25.51,24.38
16993,-7.26,3.39,5.16,-0.08,-0.02,-0.04,-42.62,27.38,22.79
17003,-7.41,3.78,5.58,0.01,0.05,0.13,-42.62,27.38,22.79
17014,-7.41,3.78,5.58,0.01,0.05,0.13,-42.62,27.38,22.79
17025,-7.50,3.70,5.01,0.07,0.08,0.17,-42.62,27.38,22.79
17036,-7.50,3.70,5.01,0.07,0.08,0.17,-42.62,27.38,22.79
17047,-7.67,4.02,5.47,-0.09,-0.00,0.08,-42.62,27.38,22.79
17058,-7.67,4.02,5.47,-0.09,-0.00,0.08,-42.62,27.38,22.79
17069,-7.83,4.15,5.47,-0.03,0.03,0.02,-42.85,26.29,22.95
17080,-7.83,4.15,5.47,-0.03,0.03,0.02,-42.85,26.29,22.95
17091,-8.03,4.82,6.35,-0.11,0.15,-0.05,-42.85,26.29,22.95
17102,-7.24,3.84,4.23,-0.05,0.38,-0.15,-42.85,26.29,22.95
17113,-7.24,3.84,4.23,-0.05,0.38,-0.15,-42.85,26.29,22.95
17124,-7.46,4.57,3.77,-0.06,0.21,-0.13,-42.85,26.29,22.95
17226,-7.28,2.42,7.38,-0.03,0.12,0.06,-40.58,26.60,24.54
17236,-7.28,2.42,7.38,-0.03,0.12,0.06,-40.58,26.60,24.54
17247,-7.42,4.88,5.49,0.20,0.67,0.18,-40.58,26.60,24.54
17258,-7.42,4.88,5.49,0.20,0.67,0.18,-40.58,26.60,24.54
17269,-7.49,3.58,4.77,0.22,0.65,-0.12,-40.58,26.60,24.54
17280,-7.49,3.58,4.77,0.22,0.65,-0.12,-40.58,26.60,24.54
17291,-7.40,4.05,4.08,0.03,0.35,-0.18,-40.58,26.60,24.54
17302,-7.47,3.45,5.27,-0.07,0.02,-0.22,-40.58,26.60,24.54
17313,-7.47,3.45,5.27,-0.07,0.02,-0.22,-40.58,26.60,24.54
17324,-7.32,2.63,5.98,-0.07,-0.01,-0.16,-43.53,25.82,23.42
17335,-7.32,2.63,5.98,-0.07,-0.01,-0.16,-43.53,25.82,23.42
17346,-7.32,3.38,6.24,0.03,0.13,-0.03,-43.53,25.82,23.42
17357,-7.32,3.38,6.24,0.03,0.13,-0.03,-43.53,25.82,23.42
17462,-7.52,3.99,4.65,-0.04,-0.09,0.03,-44.44,26.14,23.74
17472,-7.52,3.99,4.65,-0.04,-0.09,0.03,-44.44,26.14,23.74
17483,-7.28,4.14,4.63,-0.10,-0.16,0.04,-44.44,26.14,23.74
17494,-7.28,4.14,4.63,-0.10,-0.16,0.04,-44.44,26.14,23.74
17505,-7.40,3.24,5.32,-0.12,-0.23,0.03,-44.44,26.14,23.74
17516,-7.40,3.24,5.32,-0.12,-0.23,0.03,-44.44,26.14,23.74
17527,-7.45,3.49,5.38,0.03,-0.17,0.09,-44.44,26.14,23.74
17538,-7.45,3.49,5.38,0.03,-0.17,0.09,-44.44,26.14,23.74
17549,-7.71,4.15,4.98,0.16,-0.13,0.08,-44.44,26.14,23.74
17560,-7.71,4.15,4.98,0.16,-0.13,0.08,-44.44,26.14,23.74
17571,-7.85,4.29,5.21,0.12,-0.14,-0.02,-42.62,26.14,23.11
17582,-7.60,3.84,5.11,0.04,-0.11,-0.07,-42.62,26.14,23.11
17593,-7.60,3.84,5.11,0.04,-0.11,-0.07,-42.62,26.14,23.11
17698,-7.70,4.19,4.63,-0.15,0.00,0.05,-43.07,26.45,23.74
17708,-7.22,3.47,5.74,-0.21,-0.05,0.02,-43.07,26.45,23.74
17719,-7.22,3.47,5.74,-0.21,-0.05,0.02,-43.07,26.45,23.74
17730,-7.19,3.90,5.44,-0.10,0.11,0.09,-43.07,26.45,23.74
17741,-7.29,3.91,4.85,0.03,0.23,0.14,-43.07,26.45,23.74
17752,-7.29,3.91,4.85,0.03,0.23,0.14,-43.07,26.45,23.74
17763,-7.57,3.63,5.06,0.11,0.26,0.17,-43.07,26.45,23.74
17774,-7.57,3.63,5.06,0.11,0.26,0.17,-43.07,26.45,23.74
17785,-9.10,2.27,5.70,0.32,0.28,0.08,-43.07,26.45,23.74
17796,-9.10,2.27,5.70,0.32,0.28,0.08,-43.07,26.45,23.74
17807,-8.25,3.96,5.44,0.01,0.21,0.11,-43.07,26.45,23.74
17818,-8.25,3.96,5.44,0.01,0.21,0.11,-43.07,26.45,23.74
17829,-8.30,5.08,5.53,0.04,0.32,-0.03,-41.94,27.23,23.26
17840,-8.30,5.08,5.53,0.04,0.32,-0.03,-41.94,27.23,23.26
17944,-7.55,3.60,7.49,-0.95,-0.47,0.24,-42.39,25.67,23.58
17954,-7.55,3.60,7.49,-0.95,-0.47,0.24,-42.39,25.67,23.58
17965,-6.97,2.11,7.01,-0.45,0.16,0.12,-42.39,25.67,23.58
17976,-6.97,2.11,7.01,-0.45,0.16,0.12,-42.39,25.67,23.58
17987,-7.16,3.25,5.45,0.20,0.51,0.10,-42.39,25.67,23.58
17998,-7.16,3.25,5.45,0.20,0.51,0.10,-42.39,25.67,23.58
18009,-8.61,1.60,5.37,0.48,0.52,0.09,-42.39,25.67,23.58
18020,-8.61,1.60,5.37,0.48,0.52,0.09,-42.39,25.67,23.58
18031,-8.02,5.89,3.23,0.08,0.32,0.26,-42.39,25.67,23.58
18042,-7.56,3.90,4.01,0.03,0.04,0.01,-42.39,25.67,23.58
18053,-7.56,3.90,4.01,0.03,0.04,0.01,-42.39,25.67,23.58
18064,-7.45,3.24,5.09,0.01,-0.10,0.02,-41.94,26.29,23.90
18075,-7.45,3.24,5.09,0.01,-0.10,0.02,-41.94,26.29,23.90
18184,-8.19,4.61,5.52,0.35,-0.04,-0.22,-41.94,26.29,23.90
18194,-8.19,4.61,5.52,0.35,-0.04,-0.22,-41.94,26.29,23.90
18205,-7.97,4.00,6.33,0.20,0.08,-0.42,-42.62,26.45,24.38
18216,-7.97,4.00,6.33,0.20,0.08,-0.42,-42.62,26.45,24.38
18227,-7.56,4.01,6.25,0.13,0.40,-0.38,-42.62,26.45,24.38
18238,-7.56,4.01,6.25,0.13,0.40,-0.38,-42.62,26.45,24.38
18249,-6.79,2.74,3.56,0.12,0.58,-0.26,-42.62,26.45,24.38
18260,-6.79,2.74,3.56,0.12,0.58,-0.26,-42.62,26.45,24.38
18271,-7.22,3.62,4.53,0.08,0.33,0.03,-42.62,26.45,24.38
18411,-7.25,3.57,3.73,-0.10,0.27,-0.22,-42.85,26.60,23.58
18421,-7.25,3.57,3.73,-0.10,0.27,-0.22,-42.85,26.60,23.58
18432,-7.36,2.84,4.48,-0.03,0.13,-0.08,-42.85,26.60,23.58
18443,-7.52,4.08,3.61,0.12,0.10,0.27,-44.21,26.60,24.54
18454,-7.52,4.08,3.61,0.12,0.10,0.27,-44.21,26.60,24.54
18465,-7.67,4.68,3.85,0.23,-0.06,0.29,-44.21,26.60,24.54
18476,-7.67,4.68,3.85,0.23,-0.06,0.29,-44.21,26.60,24.54
18487,-7.89,3.50,5.00,0.09,-0.27,0.13,-44.21,26.60,24.54
18498,-7.89,3.50,5.00,0.09,-0.27,0.13,-44.21,26.60,24.54
18509,-8.47,3.40,6.60,-0.19,-0.27,0.04,-44.21,26.60,24.54
18520,-8.47,3.40,6.60,-0.19,-0.27,0.04,-44.21,26.60,24.54
18531,-8.14,3.47,5.17,-0.08,0.02,-0.01,-44.21,26.60,24.54
18542,-8.33,4.15,5.57,-0.04,0.18,-0.08,-44.21,26.60,24.54
18645,-7.37,3.96,3.85,0.06,-0.06,0.20,-41.94,26.29,23.26
18655,-7.37,3.96,3.85,0.06,-0.06,0.20,-41.94,26.29,23.26
18666,-7.49,3.27,4.33,-0.06,-0.32,0.14,-41.94,26.29,23.26
18677,-7.49,3.27,4.33,-0.06,-0.32,0.14,-41.94,26.29,23.26
18688,-8.04,3.13,5.35,-0.31,-0.49,0.12,-41.94,26.29,23.26
18699,-8.04,3.13,5.35,-0.31,-0.49,0.12,-41.94,26.29,23.26
18710,-8.24,4.31,5.61,-0.16,-0.41,0.10,-43.76,26.92,24.22
18721,-8.24,4.31,5.61,-0.16,-0.41,0.10,-43.76,26.92,24.22
18732,-8.12,4.81,4.68,-0.04,-0.20,0.02,-43.76,26.92,24.22
18743,-7.74,3.57,4.10,-0.15,-0.16,-0.10,-43.76,26.92,24.22
18754,-7.74,3.57,4.10,-0.15,-0.16,-0.10,-43.76,26.92,24.22
18765,-9.24,2.90,6.66,-0.23,-0.15,0.05,-43.76,26.92,24.22
18776,-9.24,2.90,6.66,-0.23,-0.15,0.05,-43.76,26.92,24.22
18880,-7.91,6.35,1.98,0.20,0.47,0.05,-41.71,25.20,25.33
18890,-7.77,3.97,4.67,0.06,0.04,-0.17,-41.71,25.20,25.33
18901,-7.77,3.97,4.67,0.06,0.04,-0.17,-41.71,25.20,25.33
18912,-7.42,2.00,5.40,0.04,0.02,-0.10,-41.71,25.20,25.33
18923,-7.55,4.52,4.32,0.01,0.15,0.28,-41.71,25.20,25.33
18934,-7.55,4.52,4.32,0.01,0.15,0.28,-41.71,25.20,25.33
18945,-7.41,4.20,3.57,-0.08,0.06,0.29,-42.39,25.98,22.95
18956,-7.41,4.20,3.57,-0.08,0.06,0.29,-42.39,25.98,22.95
18967,-7.82,4.31,5.31,-0.32,-0.16,0.21,-42.39,25.98,22.95
18978,-7.82,4.31,5.31,-0.32,-0.16,0.21,-42.39,25.98,22.95
18989,-7.73,3.11,4.67,-0.57,-0.26,0.09,-42.39,25.98,22.95
19000,-7.73,3.11,4.67,-0.57,-0.26,0.09,-42.39,25.98,22.95
19011,-8.22,3.81,5.43,-0.43,-0.30,0.04,-42.39,25.98,22.95
19115,-7.21,3.84,3.00,0.23,0.55,-0.26,-42.39,26.29,24.85
19126,-7.64,4.62,4.33,0.09,0.36,-0.13,-42.39,26.29,24.85
19137,-7.64,4.62,4.33,0.09,0.36,-0.13,-42.39,26.29,24.85
19148,-7.11,2.61,3.87,-0.01,0.28,0.01,-42.39,26.29,24.85
19159,-7.11,2.61,3.87,-0.01,0.28,0.01,-42.39,26.29,24.85
19170,-7.52,5.02,3.67,-0.09,0.17,0.34,-42.39,26.29,24.85
19181,-7.52,5.02,3.67,-0.09,0.17,0.34,-42.39,26.29,24.85
19192,-8.15,3.66,4.11,-0.17,-0.06,0.25,-42.39,26.29,24.85
19203,-7.48,4.07,5.17,-0.58,-0.29,0.21,-43.07,26.45,25.01
19214,-7.48,4.07,5.17,-0.58,-0.29,0.21,-43.07,26.45,25.01
19225,-7.32,2.58,6.06,-0.35,-0.21,0.05,-43.07,26.45,25.01
19236,-7.32,2.58,6.06,-0.35,-0.21,0.05,-43.07,26.45,25.01
19247,-8.63,1.71,5.57,0.02,-0.01,0.05,-43.07,26.45,25.01
19352,-8.09,4.44,5.27,0.18,0.31,-0.21,-42.85,25.98,24.54
19362,-8.09,4.44,5.27,0.18,0.31,-0.21,-42.85,25.98,24.54
19373,-7.48,4.54,4.26,0.31,0.47,-0.27,-42.85,25.98,24.54
19384,-7.31,3.18,3.84,0.18,0.42,-0.25,-42.85,25.98,24.54
19395,-7.31,3.18,3.84,0.18,0.42,-0.25,-42.85,25.98,24.54
19406,-7.35,3.21,3.39,0.07,0.30,0.06,-42.85,25.98,24.54
19417,-7.35,3.21,3.39,0.07,0.30,0.06,-42.85,25.98,24.54
19428,-8.36,4.40,3.43,0.10,0.15,0.35,-42.85,25.98,24.54
19439,-8.36,4.40,3.43,0.10,0.15,0.35,-42.85,25.98,24.54
19450,-7.24,4.81,3.11,-0.27,-0.28,0.34,-42.85,25.98,24.54
19461,-7.24,4.81,3.11,-0.27,-0.28,0.34,-42.85,25.98,24.54
19472,-7.96,3.64,6.89,-0.37,-0.50,0.15,-44.66,25.67,24.85
19483,-7.63,2.64,6.48,-0.07,-0.04,-0.03,-44.66,25.67,24.85
19494,-7.63,2.64,6.48,-0.07,-0.04,-0.03,-44.66,25.67,24.85
19598,-7.67,3.42,4.20,0.07,0.03,-0.10,-44.44,26.14,23.42
19608,-7.39,4.42,3.42,0.08,0.02,0.09,-44.44,26.14,23.42
19619,-7.39,4.42,3.42,0.08,0.02,0.09,-44.44,26.14,23.42
19630,-7.77,4.21,3.86,0.13,-0.13,0.12,-44.44,26.14,23.42
19641,-7.77,4.21,3.86,0.13,-0.13,0.12,-44.44,26.14,23.42
19652,-7.67,3.38,4.68,0.00,-0.34,0.05,-44.44,26.14,23.42
19663,-8.44,3.32,5.41,-0.35,-0.41,0.09,-44.44,26.14,23.42
19674,-8.44,3.32,5.41,-0.35,-0.41,0.09,-44.44,26.14,23.42
19685,-8.34,3.43,6.24,-0.36,-0.23,0.02,-44.44,26.14,23.42
19696,-8.34,3.43,6.24,-0.36,-0.23,0.02,-44.44,26.14,23.42
19707,-8.01,4.04,4.22,-0.19,0.06,0.02,-43.30,25.98,23.58
19718,-8.01,4.04,4.22,-0.19,0.06,0.02,-43.30,25.98,23.58
19729,-8.92,4.59,6.21,-0.16,0.10,-0.06,-43.30,25.98,23.58
19833,-7.55,4.46,3.03,0.24,0.07,0.32,-43.30,25.98,23.58
19843,-7.55,4.46,3.03,0.24,0.07,0.32,-43.30,25.98,23.58
19854,-7.75,4.02,4.67,0.19,-0.22,0.21,-43.30,25.98,23.58
19865,-8.25,3.46,4.76,-0.10,-0.37,0.13,-43.30,25.98,23.58
19876,-8.25,3.46,4.76,-0.10,-0.37,0.13,-43.30,25.98,23.58
19887,-8.60,3.35,6.87,-0.28,-0.28,0.05,-43.30,25.98,23.58
19898,-8.60,3.35,6.87,-0.28,-0.28,0.05,-43.30,25.98,23.58
19909,-8.54,4.25,4.67,-0.18,0.09,0.00,-43.30,25.98,23.58
19920,-8.54,4.25,4.67,-0.18,0.09,0.00,-43.30,25.98,23.58
19931,-8.76,4.76,5.73,-0.14,0.26,-0.13,-43.30,25.98,23.58
19942,-8.76,4.76,5.73,-0.14,0.26,-0.13,-43.30,25.98,23.58
19953,-7.66,4.09,3.60,-0.01,0.47,-0.27,-43.30,25.98,23.58
19964,-7.40,3.13,3.70,0.06,0.37,-0.21,-45.12,25.98,23.58
20068,-8.89,3.50,6.40,-0.25,-0.56,0.18,-45.12,25.98,23.58
20079,-8.89,3.50,6.40,-0.25,-0.56,0.18,-45.12,25.98,23.58
20090,-8.32,2.95,6.06,-0.18,-0.20,0.07,-42.17,27.07,23.42
20101,-8.32,2.95,6.06,-0.18,-0.20,0.07,-42.17,27.07,23.42
20112,-8.42,4.54,4.52,-0.01,0.08,0.10,-42.17,27.07,23.42
20123,-8.42,4.54,4.52,-0.01,0.08,0.10,-42.17,27.07,23.42
20134,-8.69,3.67,5.58,0.06,0.19,-0.04,-42.17,27.07,23.42
20145,-7.53,3.24,4.19,0.15,0.48,-0.19,-42.17,27.07,23.42
20156,-7.53,3.24,4.19,0.15,0.48,-0.19,-42.17,27.07,23.42
20167,-7.44,4.19,3.16,0.19,0.46,-0.14,-42.17,27.07,23.42
20178,-7.44,4.19,3.16,0.19,0.46,-0.14,-42.17,27.07,23.42
20189,-7.39,3.97,2.89,0.14,0.19,-0.08,-42.17,27.07,23.42
20200,-7.39,3.97,2.89,0.14,0.19,-0.08,-42.17,27.07,23.42
20304,-8.32,4.19,4.81,-0.23,0.32,0.23,-44.21,25.98,23.58
20314,-8.32,4.19,4.81,-0.23,0.32,0.23,-44.21,25.98,23.58
20325,-8.32,4.47,5.45,-0.09,0.41,0.09,-44.21,25.98,23.58
20336,-8.32,4.47,5.45,-0.09,0.41,0.09,-44.21,25.98,23.58
20352,-7.56,4.95,2.77,0.03,0.53,-0.09,-43.07,25.51,23.74
20358,-7.56,4.95,2.77,0.03,0.53,-0.09,-43.07,25.51,23.74
20369,-7.74,4.76,3.05,0.01,0.24,-0.21,-43.07,25.51,23.74
20380,-7.74,4.76,3.05,0.01,0.24,-0.21,-43.07,25.51,23.74
20391,-7.65,2.38,4.44,-0.02,0.00,-0.23,-43.07,25.51,23.74
20402,-7.65,2.38,4.44,-0.02,0.00,-0.23,-43.07,25.51,23.74
20413,-7.57,3.41,3.97,0.08,0.02,0.10,-43.07,25.51,23.74
20424,-8.42,5.32,4.54,0.10,-0.02,0.22,-43.07,25.51,23.74
20435,-8.42,5.32,4.54,0.10,-0.02,0.22,-43.07,25.51,23.74
20577,-8.16,3.66,5.38,-0.27,-0.36,0.07,-43.98,25.51,24.06
20587,-8.07,3.68,4.28,-0.37,-0.28,0.05,-42.85,25.36,23.26
20598,-8.07,3.68,4.28,-0.37,-0.28,0.05,-42.85,25.36,23.26
20609,-8.34,3.89,5.76,-0.27,-0.28,-0.00,-42.85,25.36,23.26
20620,-8.34,3.89,5.76,-0.27,-0.28,-0.00,-42.85,25.36,23.26
20631,-8.38,3.54,5.30,-0.15,-0.09,-0.05,-42.85,25.36,23.26
20642,-8.38,3.54,5.30,-0.15,-0.09,-0.05,-42.85,25.36,23.26
20653,-8.62,4.83,5.53,-0.03,0.14,-0.11,-42.85,25.36,23.26
20664,-8.18,5.43,5.32,0.07,0.41,-0.26,-42.85,25.36,23.26
20768,-7.63,4.83,4.25,-0.32,-0.80,0.15,-43.98,25.51,23.74
20778,-7.63,4.83,4.25,-0.32,-0.80,0.15,-43.98,25.51,23.74
20789,-8.01,3.25,7.43,-0.11,-0.73,-0.10,-43.98,25.51,23.74
20800,-8.01,3.25,7.43,-0.11,-0.73,-0.10,-43.98,25.51,23.74
20811,-7.57,2.93,5.84,0.14,-0.04,-0.06,-43.98,25.51,23.74
20822,-7.57,2.93,5.84,0.14,-0.04,-0.06,-43.98,25.51,23.74
20833,-7.73,3.73,5.32,0.24,0.29,0.00,-43.98,25.51,23.74
20844,-7.73,3.73,5.32,0.24,0.29,0.00,-43.98,25.51,23.74
20855,-7.86,2.97,5.69,0.32,0.42,-0.08,-44.66,25.36,23.26
20866,-7.99,3.88,3.46,0.21,0.41,-0.02,-44.66,25.36,23.26
20877,-7.99,3.88,3.46,0.21,0.41,-0.02,-44.66,25.36,23.26
20888,-8.07,3.83,4.07,-0.02,0.12,-0.00,-44.66,25.36,23.26
20899,-8.07,3.83,4.07,-0.02,0.12,-0.00,-44.66,25.36,23.26
21003,-8.18,3.66,5.43,-0.40,-0.63,0.02,-43.98,26.76,23.42
21014,-8.32,3.50,5.82,-0.35,-0.51,-0.03,-43.98,26.76,23.42
21025,-8.18,3.73,4.56,-0.16,-0.30,-0.07,-43.98,26.76,23.42
21036,-8.18,3.73,4.56,-0.16,-0.30,-0.07,-43.98,26.76,23.42
21047,-8.28,4.11,5.67,-0.07,-0.26,-0.18,-43.98,26.76,23.42
21058,-8.28,4.11,5.67,-0.07,-0.26,-0.18,-43.98,26.76,23.42
21069,-8.48,4.61,5.45,0.04,-0.04,-0.27,-43.98,26.76,23.42
21080,-8.48,4.61,5.45,0.04,-0.04,-0.27,-43.98,26.76,23.42
21091,-7.87,3.74,5.55,-0.02,0.18,-0.42,-42.62,24.27,24.38
21102,-7.87,3.74,5.55,-0.02,0.18,-0.42,-42.62,24.27,24.38
21113,-7.71,3.59,5.13,-0.12,0.43,-0.34,-42.62,24.27,24.38
21124,-7.71,3.59,5.13,-0.12,0.43,-0.34,-42.62,24.27,24.38
21135,-7.27,2.71,3.90,0.04,0.57,-0.08,-42.62,24.27,24.38
21240,-8.07,3.65,3.92,0.22,0.51,-0.02,-43.98,25.20,23.42
21250,-7.93,4.08,3.36,0.06,0.36,-0.06,-43.98,25.20,23.42
21261,-7.93,4.08,3.36,0.06,0.36,-0.06,-43.98,25.20,23.42
21272,-7.85,4.05,3.10,-0.15,0.12,-0.14,-43.98,25.20,23.42
21283,-7.85,4.05,3.10,-0.15,0.12,-0.14,-43.98,25.20,23.42
21294,-7.70,4.59,2.67,-0.32,-0.10,-0.15,-43.98,25.20,23.42
21305,-7.70,4.10,2.82,-0.47,-0.44,-0.18,-43.98,25.20,23.42
21316,-7.70,4.10,2.82,-0.47,-0.44,-0.18,-43.98,25.20,23.42
21327,-7.69,3.02,4.24,-0.78,-0.71,-0.12,-43.98,25.20,23.42
21338,-7.69,3.02,4.24,-0.78,-0.71,-0.12,-43.98,25.20,23.42
21349,-8.99,3.04,6.51,-0.58,-0.64,0.04,-45.80,23.64,24.06
21360,-8.99,3.04,6.51,-0.58,-0.64,0.04,-45.80,23.64,24.06
21371,-8.15,2.76,5.18,-0.14,-0.18,0.10,-45.80,23.64,24.06
21475,-8.44,3.59,5.44,0.07,-0.51,0.23,-43.53,25.51,25.33
21486,-8.54,3.06,6.74,-0.02,-0.34,0.05,-43.53,25.51,25.33
21497,-8.54,3.06,6.74,-0.02,-0.34,0.05,-43.53,25.51,25.33
21508,-7.95,3.75,4.64,-0.02,-0.00,0.06,-43.53,25.51,25.33
21519,-7.95,3.75,4.64,-0.02,-0.00,0.06,-43.53,25.51,25.33
21530,-8.29,3.47,5.31,-0.15,0.02,0.05,-43.53,25.51,25.33
21541,-8.29,3.47,5.31,-0.15,0.02,0.05,-43.53,25.51,25.33
21552,-8.82,4.06,7.01,-0.20,0.23,-0.04,-43.53,25.51,25.33
21563,-8.82,4.06,7.01,-0.20,0.23,-0.04,-43.53,25.51,25.33
21574,-7.79,3.91,4.44,0.02,0.65,-0.14,-43.53,25.51,25.33
21585,-7.46,4.03,3.02,0.12,0.69,-0.15,-43.53,25.51,25.33
21596,-7.46,4.03,3.02,0.12,0.69,-0.15,-43.53,25.51,25.33
21607,-7.41,4.26,2.79,0.09,0.39,-0.13,-43.76,25.04,25.17
21711,-8.40,4.42,4.57,0.00,0.11,0.03,-43.76,25.04,25.17
21722,-8.40,4.42,4.57,0.00,0.11,0.03,-43.76,25.04,25.17
21733,-8.11,4.26,4.50,0.01,0.18,-0.08,-44.89,24.58,25.33
21744,-8.11,4.26,4.50,0.01,0.18,-0.08,-44.89,24.58,25.33
21755,-7.75,3.32,3.99,0.02,0.21,-0.10,-44.89,24.58,25.33
21766,-7.88,3.34,4.14,0.01,0.13,0.05,-44.89,24.58,25.33
21777,-7.88,3.34,4.14,0.01,0.13,0.05,-44.89,24.58,25.33
21788,-7.92,4.22,3.93,0.08,0.10,0.22,-44.89,24.58,25.33
21799,-7.92,4.22,3.93,0.08,0.10,0.22,-44.89,24.58,25.33
21810,-7.98,4.23,4.16,0.12,0.00,0.18,-44.89,24.58,25.33
21821,-7.98,4.23,4.16,0.12,0.00,0.18,-44.89,24.58,25.33
21832,-7.82,2.98,4.37,0.00,-0.12,0.09,-44.89,24.58,25.33
21843,-7.82,2.98,4.37,0.00,-0.12,0.09,-44.89,24.58,25.33
21957,-8.19,4.02,4.21,-0.23,-0.26,0.15,-44.21,25.67,24.85
21959,-8.39,4.29,5.78,-0.06,0.04,-0.16,-44.21,25.67,24.85
21969,-8.10,3.84,4.97,-0.03,0.29,-0.31,-44.21,25.67,24.85
21980,-8.10,3.84,4.97,-0.03,0.29,-0.31,-44.21,25.67,24.85
21991,-8.04,4.82,4.60,-0.09,0.44,-0.33,-44.44,25.20,25.97
22002,-8.04,4.82,4.60,-0.09,0.44,-0.33,-44.44,25.20,25.97
22013,-7.27,2.59,3.36,-0.10,0.43,-0.34,-44.44,25.20,25.97
22024,-7.27,2.59,3.36,-0.10,0.43,-0.34,-44.44,25.20,25.97
22035,-7.45,2.57,3.96,0.04,0.25,-0.04,-44.44,25.20,25.97
22046,-7.52,4.42,3.48,0.20,0.14,0.26,-44.44,25.20,25.97
22057,-7.52,4.42,3.48,0.20,0.14,0.26,-44.44,25.20,25.97
22068,-8.34,3.77,4.94,0.14,-0.04,0.16,-44.44,25.20,25.97
22079,-8.34,3.77,4.94,0.14,-0.04,0.16,-44.44,25.20,25.97
22090,-8.38,3.01,5.52,-0.02,-0.03,-0.02,-44.44,25.20,25.97
22197,-8.00,4.02,4.00,0.17,-0.02,0.21,-44.44,24.89,24.70
22207,-7.99,3.91,4.05,0.24,-0.13,0.14,-44.44,24.89,24.70
22218,-7.99,3.91,4.05,0.24,-0.13,0.14,-44.44,24.89,24.70
22229,-7.61,3.58,3.95,0.17,-0.29,0.06,-44.66,23.80,25.17
22240,-7.61,3.58,3.95,0.17,-0.29,0.06,-44.66,23.80,25.17
22251,-8.51,3.14,4.83,-0.06,-0.44,0.11,-44.66,23.80,25.17
22262,-8.51,3.14,4.83,-0.06,-0.44,0.11,-44.66,23.80,25.17
22273,-8.57,3.39,6.48,-0.15,-0.30,0.06,-44.66,23.80,25.17
22284,-8.57,3.39,6.48,-0.15,-0.30,0.06,-44.66,23.80,25.17
22295,-8.44,3.69,4.65,0.00,0.02,0.06,-44.66,23.80,25.17
22306,-8.79,4.47,6.27,0.10,0.22,-0.01,-44.66,23.80,25.17
22317,-8.79,4.47,6.27,0.10,0.22,-0.01,-44.66,23.80,25.17
22328,-7.66,3.66,3.41,0.21,0.51,-0.14,-44.66,23.80,25.17
22432,-8.26,3.99,5.78,-0.37,-0.52,0.14,-42.85,25.04,24.54
22442,-8.26,3.99,5.78,-0.37,-0.52,0.14,-42.85,25.04,24.54
22453,-8.63,2.33,6.86,-0.46,-0.25,0.13,-42.85,25.04,24.54
22464,-8.63,2.33,6.86,-0.46,-0.25,0.13,-42.85,25.04,24.54
22475,-8.42,3.15,5.10,-0.33,0.14,0.18,-42.85,25.04,24.54
22486,-8.87,4.38,6.13,-0.18,0.36,0.15,-43.98,24.58,26.29
22497,-8.87,4.38,6.13,-0.18,0.36,0.15,-43.98,24.58,26.29
22508,-7.75,4.13,2.84,0.06,0.68,-0.04,-43.98,24.58,26.29
22519,-7.75,4.13,2.84,0.06,0.68,-0.04,-43.98,24.58,26.29
22530,-7.77,4.36,2.60,-0.01,0.38,-0.16,-43.98,24.58,26.29
22541,-7.77,4.36,2.60,-0.01,0.38,-0.16,-43.98,24.58,26.29
22552,-7.85,2.19,4.33,-0.16,0.09,-0.13,-43.98,24.58,26.29
22563,-7.85,2.19,4.33,-0.16,0.09,-0.13,-43.98,24.58,26.29
22704,-7.69,3.86,3.08,-0.12,-0.02,0.07,-44.21,23.80,26.44
22715,-7.84,3.61,4.02,-0.29,-0.28,0.04,-44.21,23.80,26.44
22726,-8.09,3.75,4.67,-0.34,-0.44,0.02,-43.76,23.80,26.44
22737,-8.09,3.75,4.67,-0.34,-0.44,0.02,-43.76,24.11,25.81
22748,-8.32,3.50,5.56,-0.24,-0.38,-0.04,-43.76,24.11,25.81
22759,-8.32,3.50,5.56,-0.24,-0.38,-0.04,-43.76,24.11,25.81
22770,-8.20,4.03,4.45,-0.02,-0.19,-0.03,-43.76,24.11,25.81
22781,-8.20,4.03,4.45,-0.02,-0.19,-0.03,-43.76,24.11,25.81
22798,-8.33,3.66,5.60,0.01,-0.18,-0.11,-43.76,24.11,25.81
22803,-8.33,3.66,5.60,0.01,-0.18,-0.11,-43.76,24.11,25.81
22814,-8.69,3.84,5.97,0.05,-0.02,-0.21,-43.76,24.11,25.81
22825,-8.69,3.84,5.97,0.05,-0.02,-0.21,-43.76,24.11,25.81
22836,-8.53,3.95,6.04,0.05,0.22,-0.35,-43.76,24.11,25.81
22940,-7.75,3.96,3.48,0.18,-0.05,0.30,-44.44,24.89,26.60
22950,-7.64,3.45,3.70,0.04,-0.36,0.19,-44.44,24.89,26.60
22961,-7.64,3.45,3.70,0.04,-0.36,0.19,-44.44,24.89,26.60
22972,-7.32,3.23,3.92,-0.21,-0.65,0.19,-44.44,24.89,26.60
22983,-7.32,3.23,3.92,-0.21,-0.65,0.19,-44.44,24.89,26.60
22994,-8.05,2.83,6.10,-0.53,-0.87,0.21,-42.62,23.33,26.29
23005,-8.05,2.83,6.10,-0.53,-0.87,0.21,-42.62,23.33,26.29
23016,-9.03,3.84,6.68,-0.70,-0.71,0.11,-42.62,23.33,26.29
23027,-8.11,2.58,5.91,-0.23,-0.24,-0.00,-42.62,23.33,26.29
23038,-8.11,2.58,5.91,-0.23,-0.24,-0.00,-42.62,23.33,26.29
23049,-8.61,3.95,5.48,0.02,0.02,0.11,-42.62,23.33,26.29
23060,-8.61,3.95,5.48,0.02,0.02,0.11,-42.62,23.33,26.29
23071,-8.88,3.66,8.35,0.10,0.31,-0.08,-42.62,23.33,26.29
23175,-7.38,3.23,2.66,0.04,0.05,0.18,-45.57,23.80,26.13
23185,-7.38,3.23,2.66,0.04,0.05,0.18,-45.57,23.80,26.13
23196,-8.00,5.21,3.96,0.15,-0.24,0.31,-45.57,23.80,26.13
23207,-8.67,2.77,5.84,-0.15,-0.40,-0.01,-45.57,23.80,26.13
23218,-8.67,2.77,5.84,-0.15,-0.40,-0.01,-45.57,23.80,26.13
23229,-8.28,2.76,5.78,-0.19,-0.13,-0.05,-44.89,23.95,26.60
23240,-8.28,2.76,5.78,-0.19,-0.13,-0.05,-44.89,23.95,26.60
23251,-8.28,4.35,4.60,-0.11,0.11,-0.00,-44.89,23.95,26.60
23262,-8.28,4.35,4.60,-0.11,0.11,-0.00,-44.89,23.95,26.60
23273,-7.90,3.58,4.06,-0.05,0.14,-0.10,-44.89,23.95,26.60
23284,-7.90,3.58,4.06,-0.05,0.14,-0.10,-44.89,23.95,26.60
23295,-8.04,3.38,4.58,0.01,0.09,-0.08,-44.89,23.95,26.60
23306,-8.04,3.38,4.58,0.01,0.09,-0.08,-44.89,23.95,26.60
23410,-8.57,3.33,5.87,-0.26,-0.36,0.02,-44.21,24.11,26.44
23420,-8.57,3.33,5.87,-0.26,-0.36,0.02,-44.21,24.11,26.44
23431,-8.35,3.54,5.57,-0.19,-0.12,-0.04,-44.21,24.11,26.44
23442,-8.35,3.54,5.57,-0.19,-0.12,-0.04,-44.21,24.11,26.44
23453,-8.57,4.84,5.49,-0.22,0.07,-0.12,-44.21,24.11,26.44
23464,-8.57,4.84,5.49,-0.22,0.07,-0.12,-44.21,24.11,26.44
23475,-8.46,4.34,5.34,-0.01,0.31,-0.30,-44.21,24.11,26.44
23486,-8.46,4.34,5.34,-0.01,0.31,-0.30,-44.21,24.11,26.44
23497,-7.54,4.30,3.18,0.23,0.50,-0.40,-44.21,22.86,27.40
23508,-7.95,3.90,4.54,0.15,0.32,-0.37,-44.21,22.86,27.40
23519,-7.95,3.90,4.54,0.15,0.32,-0.37,-44.21,22.86,27.40
23530,-7.06,2.27,2.04,0.17,0.34,0.00,-44.21,22.86,27.40
23541,-7.06,2.27,2.04,0.17,0.34,0.00,-44.21,22.86,27.40
23645,-7.96,2.97,5.38,0.27,0.28,-0.01,-43.07,23.64,27.24
23655,-8.83,1.42,5.67,0.48,0.36,-0.14,-43.07,23.64,27.24
23666,-8.83,1.42,5.67,0.48,0.36,-0.14,-43.07,23.64,27.24
23677,-8.56,3.96,4.19,0.38,0.38,-0.00,-43.07,23.64,27.24
23688,-7.99,4.91,2.72,0.17,0.25,-0.03,-43.07,23.64,27.24
23699,-7.99,4.91,2.72,0.17,0.25,-0.03,-43.07,23.64,27.24
23710,-7.97,3.22,4.43,0.02,-0.03,-0.17,-43.07,23.64,27.24
23721,-7.97,3.22,4.43,0.02,-0.03,-0.17,-43.07,23.64,27.24
23732,-7.58,3.39,4.02,0.03,-0.02,0.03,-43.07,23.64,27.24
23743,-7.58,3.39,4.02,0.03,-0.02,0.03,-43.07,23.64,27.24
23754,-7.80,3.95,3.73,0.08,-0.08,0.17,-44.89,23.33,25.33
23765,-7.80,3.95,3.73,0.08,-0.08,0.17,-44.89,23.33,25.33
23776,-7.43,3.51,3.92,0.02,-0.28,0.13,-44.89,23.33,25.33
23880,-8.30,3.42,5.69,0.07,-0.19,-0.09,-43.30,23.17,26.76
23890,-9.00,3.22,6.77,0.01,0.02,-0.17,-43.30,23.17,26.76
23901,-9.00,3.22,6.77,0.01,0.02,-0.17,-43.30,23.17,26.76
23912,-8.91,2.93,7.33,-0.05,0.51,-0.27,-43.30,23.17,26.76
23923,-8.91,2.93,7.33,-0.05,0.51,-0.27,-43.30,23.17,26.76
23934,-7.93,3.95,5.26,0.04,1.12,-0.27,-43.30,23.17,26.76
23945,-7.93,3.95,5.26,0.04,1.12,-0.27,-43.30,23.17,26.76
23956,-7.44,3.62,2.71,0.48,1.27,-0.21,-43.30,23.17,26.76
23967,-7.44,3.62,2.71,0.48,1.27,-0.21,-43.30,23.17,26.76
23978,-7.70,2.91,4.07,0.67,0.90,-0.14,-43.30,23.17,26.76
23989,-8.05,3.01,5.71,0.74,0.80,0.02,-44.66,25.04,24.85
24000,-8.05,3.01,5.71,0.74,0.80,0.02,-44.66,25.04,24.85
24011,-7.89,4.12,2.95,0.60,0.91,0.08,-44.66,25.04,24.85
24022,-7.89,4.12,2.95,0.60,0.91,0.08,-44.66,25.04,24.85
24128,-9.04,3.97,6.73,-0.61,-0.74,0.13,-45.80,24.27,25.01
24138,-9.04,3.97,6.73,-0.61,-0.74,0.13,-45.80,24.27,25.01
24149,-8.21,2.21,4.88,-0.12,-0.21,0.08,-45.80,24.27,25.01
24160,-8.21,2.21,4.88,-0.12,-0.21,0.08,-45.80,24.27,25.01
24171,-8.46,3.38,4.38,-0.01,-0.08,0.18,-45.80,24.27,25.01
24182,-8.46,3.38,4.38,-0.01,-0.08,0.18,-45.80,24.27,25.01
24193,-8.40,3.43,4.68,-0.00,-0.06,0.19,-45.80,24.27,25.01
24204,-8.40,3.43,4.68,-0.00,-0.06,0.19,-45.80,24.27,25.01
24215,-8.51,3.90,4.70,-0.03,-0.00,0.13,-45.80,24.27,25.01
24226,-8.51,3.90,4.70,-0.03,-0.00,0.13,-45.80,24.27,25.01
24237,-8.48,3.58,5.66,0.06,0.10,-0.02,-45.80,24.27,25.01
24248,-7.98,3.65,4.14,0.21,0.30,-0.06,-43.30,22.55,26.76
24259,-7.98,3.65,4.14,0.21,0.30,-0.06,-43.30,22.55,26.76
24401,-8.68,4.01,5.16,0.02,-0.53,0.03,-44.44,23.64,26.29
24411,-8.33,4.70,4.85,0.24,-0.29,-0.09,-44.44,23.64,26.29
24422,-8.33,4.70,4.85,0.24,-0.29,-0.09,-44.44,23.64,26.29
24433,-8.09,4.25,4.62,0.10,-0.24,-0.31,-44.44,23.64,26.29
24444,-8.09,4.25,4.62,0.10,-0.24,-0.31,-44.44,23.64,26.29
24455,-8.85,4.15,6.13,0.04,-0.20,-0.43,-44.44,23.64,26.29
24466,-8.85,4.15,6.13,0.04,-0.20,-0.43,-44.44,23.64,26.29
24477,-8.52,2.18,5.38,0.08,0.11,-0.52,-44.44,23.64,26.29
24488,-7.30,2.55,4.07,-0.05,0.35,-0.05,-44.21,22.86,26.13
24499,-7.30,2.55,4.07,-0.05,0.35,-0.05,-44.21,22.86,26.13
24510,-7.49,4.47,4.40,0.01,0.43,0.35,-44.21,22.86,26.13
24521,-7.49,4.47,4.40,0.01,0.43,0.35,-44.21,22.86,26.13
24532,-7.93,2.41,5.73,0.30,0.43,0.16,-44.21,22.86,26.13
24637,-7.82,3.58,3.85,-0.15,-0.30,0.01,-44.44,22.71,24.38
24647,-7.82,3.58,3.85,-0.15,-0.30,0.01,-44.44,22.71,24.38
24658,-8.03,4.03,4.10,-0.37,-0.48,0.01,-44.44,22.71,24.38
24669,-8.01,3.46,4.76,-0.69,-0.57,-0.03,-44.44,22.71,24.38
24680,-8.01,3.46,4.76,-0.69,-0.57,-0.03,-44.44,22.71,24.38
24691,-8.29,2.83,5.57,-0.46,-0.44,0.04,-44.44,22.71,24.38
24702,-8.29,2.83,5.57,-0.46,-0.44,0.04,-44.44,22.71,24.38
24713,-7.54,3.14,4.88,-0.19,-0.21,0.17,-44.44,22.71,24.38
24729,-7.54,3.14,4.88,-0.19,-0.21,0.17,-44.44,22.71,24.38
24735,-8.32,4.36,4.73,0.02,-0.12,0.32,-44.44,22.71,24.38
24746,-8.32,4.36,4.73,0.02,-0.12,0.32,-44.44,22.71,24.38
24757,-9.16,4.01,4.44,-0.10,-0.07,0.33,-43.53,23.02,27.56
24768,-7.77,3.85,4.67,-0.44,-0.24,0.12,-43.53,23.02,27.56
24872,-7.79,3.76,3.91,0.26,0.32,0.06,-43.76,22.86,26.76
24883,-7.79,3.76,3.91,0.26,0.32,0.06,-43.76,22.86,26.76
24894,-8.24,3.30,4.75,0.05,0.18,0.08,-43.76,22.86,26.76
24905,-8.24,3.30,4.75,0.05,0.18,0.08,-43.76,22.86,26.76
24916,-7.92,3.21,4.50,0.01,0.11,0.08,-43.76,22.86,26.76
24927,-7.92,3.21,4.50,0.01,0.11,0.08,-43.76,22.86,26.76
24938,-8.03,3.33,4.38,-0.01,0.04,0.11,-43.76,22.86,26.76
24949,-8.04,3.94,4.16,-0.14,-0.07,0.13,-43.76,22.86,26.76
24960,-8.04,3.94,4.16,-0.14,-0.07,0.13,-43.76,22.86,26.76
24971,-8.06,3.37,4.61,-0.25,-0.19,0.05,-43.76,22.86,26.76
24982,-8.06,3.37,4.61,-0.25,-0.19,0.05,-43.76,22.86,26.76
24993,-8.28,3.41,5.26,-0.19,-0.20,-0.00,-43.76,22.86,26.76
25004,-8.28,3.41,5.26,-0.19,-0.20,-0.00,-43.76,22.86,26.76
25108,-7.20,3.85,2.95,0.02,0.78,-0.27,-43.53,23.02,26.60
25118,-7.15,2.85,3.32,-0.04,0.49,-0.10,-43.53,23.02,26.60
25129,-7.44,2.86,3.81,-0.04,0.21,0.21,-43.76,22.86,26.76
25140,-7.44,2.86,3.81,-0.04,0.21,0.21,-43.76,22.86,26.76
25151,-7.75,4.18,3.55,0.11,0.03,0.43,-43.76,22.86,26.76
25162,-7.75,4.18,3.55,0.11,0.03,0.43,-43.76,22.86,26.76
25173,-8.39,3.78,4.81,0.05,-0.25,0.19,-43.76,22.86,26.76
25184,-8.39,3.78,4.81,0.05,-0.25,0.19,-43.76,22.86,26.76
25195,-8.63,2.56,6.37,-0.23,-0.27,-0.05,-43.76,22.86,26.76
25206,-8.63,2.56,6.37,-0.23,-0.27,-0.05,-43.76,22.86,26.76
25217,-8.30,3.76,4.75,-0.20,0.02,-0.03,-43.76,22.86,26.76
25228,-8.30,3.76,4.75,-0.20,0.02,-0.03,-43.76,22.86,26.76
25239,-8.17,4.03,4.89,-0.21,0.12,-0.10,-43.76,22.86,26.76
25343,-8.01,3.25,4.92,-0.08,-0.30,0.10,-44.66,23.49,25.81
25353,-8.25,2.74,4.40,-0.34,-0.37,0.06,-44.66,23.49,25.81
25364,-8.25,2.74,4.40,-0.34,-0.37,0.06,-44.66,23.49,25.81
25375,-8.37,3.27,4.58,-0.37,-0.39,0.06,-44.66,23.49,25.81
25386,-8.37,3.27,4.58,-0.37,-0.39,0.06,-44.66,23.49,25.81
25397,-8.41,3.18,5.60,-0.14,-0.30,0.01,-42.39,21.62,28.67
25408,-8.41,3.18,5.60,-0.14,-0.30,0.01,-42.39,21.62,28.67
25419,-8.19,3.19,5.55,-0.00,-0.12,0.01,-42.39,21.62,28.67
25430,-9.06,4.81,6.75,0.03,0.08,-0.02,-42.39,21.62,28.67
25441,-9.06,4.81,6.75,0.03,0.08,-0.02,-42.39,21.62,28.67
25452,-8.05,3.70,5.16,0.08,0.47,-0.26,-42.39,21.62,28.67
25463,-8.05,3.70,5.16,0.08,0.47,-0.26,-42.39,21.62,28.67
25474,-8.07,4.73,3.49,0.08,0.60,-0.26,-42.39,21.62,28.67
25577,-9.27,2.73,2.97,0.28,0.05,0.22,-43.53,22.08,27.56
25588,-9.27,2.73,2.97,0.28,0.05,0.22,-43.53,22.08,27.56
25599,-8.25,4.78,3.62,-0.43,-0.46,0.34,-43.53,22.08,27.56
25610,-7.39,2.32,6.51,-0.65,-0.62,0.13,-43.53,22.08,27.56
25621,-7.39,2.32,6.51,-0.65,-0.62,0.13,-43.53,22.08,27.56
25632,-6.93,1.24,7.02,-0.24,-0.18,0.02,-43.30,22.86,27.72
25643,-6.93,1.24,7.02,-0.24,-0.18,0.02,-43.30,22.86,27.72
25654,-7.14,2.44,6.29,0.41,0.29,0.02,-43.30,22.86,27.72
25665,-7.14,2.44,6.29,0.41,0.29,0.02,-43.30,22.86,27.72
25676,-7.33,3.47,5.47,0.95,0.71,0.10,-43.30,22.86,27.72
25687,-7.33,3.47,5.47,0.95,0.71,0.10,-43.30,22.86,27.72
25698,-8.72,1.92,4.11,0.84,0.98,0.30,-43.30,22.86,27.72
25709,-8.47,6.34,2.59,-0.23,0.82,0.62,-43.30,22.86,27.72
25720,-8.47,6.34,2.59,-0.23,0.82,0.62,-43.30,22.86,27.72
25826,-9.81,4.87,0.14,-0.20,-1.02,-0.28,-42.85,23.49,24.54
25836,-7.31,4.27,0.60,-0.72,-2.22,-0.11,-42.85,23.49,24.54
25847,-7.31,4.27,0.60,-0.72,-2.22,-0.11,-42.85,23.49,24.54
25858,-5.51,1.15,1.56,-1.22,-2.90,0.09,-42.85,23.49,24.54
25869,-5.51,1.15,1.56,-1.22,-2.90,0.09,-42.85,23.49,24.54
25880,-8.10,2.64,2.44,-4.11,-3.57,0.14,-42.85,23.49,24.54
25891,-14.17,-1.87,31.28,-3.70,-3.49,-0.00,-35.36,17.09,32.97
25902,-14.17,-1.87,31.28,-3.70,-3.49,-0.00,-35.36,17.09,32.97
25913,-10.77,-0.48,14.46,-3.65,0.69,0.69,-35.36,17.09,32.97
25924,-10.77,-0.48,14.46,-3.65,0.69,0.69,-35.36,17.09,32.97
25935,-7.23,2.67,15.39,-11.98,1.82,0.16,-35.36,17.09,32.97
25946,-7.23,2.67,15.39,-11.98,1.82,0.16,-35.36,17.09,32.97
26087,-0.90,-4.21,13.03,-5.31,7.39,2.94,-56.91,-6.75,27.08
26098,2.97,1.23,-0.38,-8.51,8.83,4.72,-56.91,-6.75,27.08
26109,2.97,1.23,-0.38,-8.51,8.83,4.72,-56.91,-6.75,27.08
26120,3.64,3.65,-5.28,-3.94,8.64,6.14,-56.91,-6.75,27.08
26131,4.34,-0.34,-6.75,4.41,9.00,5.73,-66.89,2.91,-12.36
26142,4.34,-0.34,-6.75,4.41,9.00,5.73,-66.89,2.91,-12.36
26153,2.52,2.34,-21.96,1.88,7.64,4.83,-66.89,2.91,-12.36
26164,2.52,2.34,-21.96,1.88,7.64,4.83,-66.89,2.91,-12.36
26175,-2.77,11.69,-19.73,-0.55,3.04,4.30,-66.89,2.91,-12.36
26186,-2.77,11.69,-19.73,-0.55,3.04,4.30,-66.89,2.91,-12.36
26197,-5.11,9.78,-7.83,2.33,0.37,2.55,-66.89,2.91,-12.36
26208,-5.11,9.78,-7.83,2.33,0.37,2.55,-66.89,2.91,-12.36
26219,-4.48,3.39,-5.62,2.70,0.20,1.11,-66.89,2.91,-12.36
26325,-4.17,5.20,-9.57,0.36,0.90,1.52,-58.50,8.99,-22.38
26335,-4.47,0.23,-5.71,0.46,0.65,1.20,-58.50,8.99,-22.38
26346,-4.47,0.23,-5.71,0.46,0.65,1.20,-58.50,8.99,-22.38
26357,-5.08,4.76,-9.43,-1.29,0.90,1.52,-58.50,8.99,-22.38
26368,-5.08,4.76,-9.43,-1.29,0.90,1.52,-58.50,8.99,-22.38
26379,-5.65,5.44,-10.25,-0.82,1.02,1.07,-58.50,8.99,-22.38
26390,-4.46,4.10,-9.92,0.06,1.00,0.54,-51.01,13.51,-26.04
26401,-4.46,4.10,-9.92,0.06,1.00,0.54,-51.01,13.51,-26.04
26412,-3.63,2.56,-7.33,-0.19,0.68,0.60,-51.01,13.51,-26.04
26423,-3.63,2.56,-7.33,-0.19,0.68,0.60,-51.01,13.51,-26.04
26434,-4.35,4.82,-7.51,-1.52,0.66,1.11,-51.01,13.51,-26.04
26445,-4.35,4.82,-7.51,-1.52,0.66,1.11,-51.01,13.51,-26.04
26456,-4.76,7.36,-9.84,-1.93,1.01,1.21,-51.01,13.51,-26.04
26560,-2.41,4.83,-8.85,-1.48,0.94,0.84,-48.29,16.94,-27.63
26570,-3.09,6.19,-11.31,-0.52,1.15,0.72,-48.29,16.94,-27.63
26581,-3.09,6.19,-11.31,-0.52,1.15,0.72,-48.29,16.94,-27.63
26592,-3.55,5.81,-11.38,-0.05,0.75,0.51,-48.29,16.94,-27.63
26603,-3.55,5.81,-11.38,-0.05,0.75,0.51,-48.29,16.94,-27.63
26614,-2.98,5.92,-10.49,-0.79,0.19,0.43,-48.29,16.94,-27.63
26625,-2.98,5.92,-10.49,-0.79,0.19,0.43,-48.29,16.94,-27.63
26636,-2.06,3.91,-7.99,-0.56,0.03,0.28,-48.29,16.94,-27.63
26647,-2.06,3.91,-7.99,-0.56,0.03,0.28,-48.29,16.94,-27.63
26658,-1.36,4.07,-7.57,-0.54,0.23,0.35,-43.76,20.06,-25.08
26669,-1.36,4.07,-7.57,-0.54,0.23,0.35,-43.76,20.06,-25.08
26680,-1.45,5.16,-7.67,-0.32,0.48,0.52,-43.76,20.06,-25.08
26691,-2.38,5.56,-9.20,-0.59,0.59,0.57,-43.76,20.06,-25.08
26795,-0.92,5.62,-7.48,-0.41,0.17,0.41,-40.58,24.42,-25.08
26805,-0.92,5.62,-7.48,-0.41,0.17,0.41,-40.58,24.42,-25.08
26816,-1.32,5.92,-7.70,-0.56,0.18,0.50,-40.58,24.42,-25.08
26827,-1.32,5.92,-7.70,-0.56,0.18,0.50,-40.58,24.42,-25.08
26838,-0.85,5.75,-8.34,-0.69,0.24,0.45,-40.58,24.42,-25.08
26849,-0.85,5.75,-8.34,-0.69,0.24,0.45,-40.58,24.42,-25.08
26860,-0.49,5.83,-8.17,-0.61,0.31,0.49,-40.58,24.42,-25.08
26871,-0.69,7.09,-9.21,-0.59,0.34,0.54,-40.58,24.42,-25.08
26882,-0.69,7.09,-9.21,-0.59,0.34,0.54,-40.58,24.42,-25.08
26893,-0.70,7.09,-8.98,-0.30,0.22,0.42,-38.54,25.82,-23.97
26904,-0.70,7.09,-8.98,-0.30,0.22,0.42,-38.54,25.82,-23.97
26915,-0.35,6.09,-8.03,0.32,0.01,0.28,-38.54,25.82,-23.97
26926,-0.35,6.09,-8.03,0.32,0.01,0.28,-38.54,25.82,-23.97
27030,0.27,6.40,-9.35,0.16,-0.07,0.14,-35.59,27.23,-23.49
27041,0.57,5.76,-5.94,0.98,-0.29,0.18,-35.59,27.23,-23.49
27052,0.20,7.32,-9.13,0.88,0.16,0.22,-35.59,27.23,-23.49
27063,0.20,7.32,-9.13,0.88,0.16,0.22,-35.59,27.23,-23.49
27074,0.33,7.38,-8.87,1.78,0.22,-0.13,-35.59,27.23,-23.49
27085,0.33,7.38,-8.87,1.78,0.22,-0.13,-35.59,27.23,-23.49
27096,-0.17,5.08,-8.37,2.54,0.22,-0.45,-35.59,27.23,-23.49
27107,-0.17,5.08,-8.37,2.54,0.22,-0.45,-35.59,27.23,-23.49
27118,0.28,3.86,-9.70,1.79,0.12,-0.43,-35.59,27.23,-23.49
27129,0.28,3.86,-9.70,1.79,0.12,-0.43,-35.59,27.23,-23.49
27140,0.08,4.18,-9.06,1.51,-0.09,-0.18,-35.59,27.23,-23.49
27151,0.01,4.47,-9.25,1.12,-0.12,-0.05,-37.18,20.84,-28.11
27162,0.01,4.47,-9.25,1.12,-0.12,-0.05,-37.18,20.84,-28.11
27266,-0.05,10.20,-11.62,-4.67,-1.05,-0.32,-37.18,20.84,-28.11
27277,-1.28,4.80,-6.49,-1.73,-1.31,-0.55,-37.86,26.29,-23.17
27288,-1.28,4.80,-6.49,-1.73,-1.31,-0.55,-37.86,26.29,-23.17
27299,-0.98,7.30,-7.12,-0.87,-0.42,-0.04,-37.86,26.29,-23.17
27310,-0.98,7.30,-7.12,-0.87,-0.42,-0.04,-37.86,26.29,-23.17
27321,-1.11,7.20,-7.19,1.07,0.24,0.44,-37.86,26.29,-23.17
27332,0.26,6.16,-8.51,0.96,0.59,0.51,-37.86,26.29,-23.17
27343,0.26,6.16,-8.51,0.96,0.59,0.51,-37.86,26.29,-23.17
27354,-0.32,5.78,-8.83,-0.04,-0.19,-0.15,-37.86,26.29,-23.17
27365,-0.32,5.78,-8.83,-0.04,-0.19,-0.15,-37.86,26.29,-23.17
27376,-0.94,7.08,-7.36,-0.79,-0.39,-0.30,-37.86,26.29,-23.17
27387,-0.94,7.08,-7.36,-0.79,-0.39,-0.30,-37.86,26.29,-23.17
27493,-0.33,6.18,-8.26,-0.02,-0.03,-0.04,-36.50,26.60,-22.22
27503,-0.33,6.18,-8.26,-0.02,-0.03,-0.04,-36.50,26.60,-22.22
27514,-0.82,6.75,-7.60,-0.29,-0.17,-0.14,-36.50,26.60,-22.22
27525,-0.82,6.75,-7.60,-0.29,-0.17,-0.14,-36.50,26.60,-22.22
27536,-0.40,6.29,-8.16,0.18,0.10,0.06,-38.54,27.38,-20.79
27547,-0.40,6.29,-8.16,0.18,0.10,0.06,-38.54,27.38,-20.79
27558,-0.43,6.22,-8.19,-0.03,-0.02,-0.03,-38.54,27.38,-20.79
27569,-0.43,6.22,-8.19,-0.03,-0.02,-0.03,-38.54,27.38,-20.79
27580,-0.59,6.45,-7.95,-0.08,-0.04,-0.04,-38.54,27.38,-20.79
27591,-0.41,6.27,-8.16,0.05,0.03,0.01,-38.54,27.38,-20.79
27602,-0.41,6.27,-8.16,0.05,0.03,0.01,-38.54,27.38,-20.79
27613,-0.55,6.43,-7.98,-0.05,-0.02,-0.03,-38.54,27.38,-20.79
27624,-0.55,6.43,-7.98,-0.05,-0.02,-0.03,-38.54,27.38,-20.79
27725,-0.49,6.38,-8.04,0.00,0.00,-0.01,-38.54,26.45,-22.06
27736,-0.51,6.38,-8.06,-0.00,0.00,-0.01,-38.54,26.45,-22.06
27747,-0.51,6.38,-8.06,-0.00,0.00,-0.01,-38.54,26.45,-22.06
27758,-0.50,6.39,-8.05,0.00,0.00,-0.01,-38.54,26.45,-22.06
27769,-0.50,6.39,-8.05,0.00,0.00,-0.01,-38.54,26.45,-22.06
27780,-0.50,6.38,-8.08,-0.00,0.00,-0.01,-38.31,27.23,-22.22
27791,-0.51,6.38,-8.06,-0.00,-0.00,-0.01,-38.31,27.23,-22.22
27802,-0.51,6.38,-8.06,-0.00,-0.00,-0.01,-38.31,27.23,-22.22
27813,-0.49,6.37,-8.06,0.00,0.00,-0.01,-38.31,27.23,-22.22
27824,-0.49,6.37,-8.06,0.00,0.00,-0.01,-38.31,27.23,-22.22
27835,-0.51,6.38,-8.05,-0.00,0.00,-0.01,-38.31,27.23,-22.22
27846,-0.51,6.38,-8.05,-0.00,0.00,-0.01,-38.31,27.23,-22.22
27857,-0.51,6.38,-8.05,-0.00,-0.00,-0.01,-38.31,27.23,-22.22
27963,-0.49,6.38,-8.05,-0.00,0.00,-0.01,-35.82,28.01,-23.02
27973,-0.50,6.37,-8.06,-0.00,-0.00,-0.01,-35.82,28.01,-23.02
27984,-0.50,6.37,-8.06,-0.00,-0.00,-0.01,-35.82,28.01,-23.02
27995,-0.53,6.88,-8.54,-0.00,-0.00,-0.01,-35.82,28.01,-23.02
28006,-0.53,6.88,-8.54,-0.00,-0.00,-0.01,-35.82,28.01,-23.02
28017,-0.59,6.82,-8.55,-0.00,-0.00,-0.01,-35.82,28.01,-23.02
28028,-0.59,6.82,-8.55,-0.00,-0.00,-0.01,-35.82,28.01,-23.02
28039,-0.54,6.86,-8.46,0.00,0.00,-0.01,-38.99,28.01,-22.70
28180,-0.49,6.45,-8.17,-0.00,-0.00,-0.01,-38.77,26.29,-22.22
28191,-0.49,6.45,-8.17,-0.00,-0.00,-0.01,-38.77,26.29,-22.22
28202,-0.50,6.45,-8.13,0.00,0.00,-0.01,-38.77,26.29,-22.22
28213,-0.53,6.44,-8.09,-0.00,0.00,-0.01,-38.77,26.29,-22.22
28224,-0.53,6.44,-8.09,-0.00,0.00,-0.01,-38.77,26.29,-22.22
28235,-0.50,6.41,-8.07,0.00,0.00,-0.01,-38.77,26.29,-22.22
28246,-0.50,6.41,-8.07,0.00,0.00,-0.01,-38.77,26.29,-22.22
28257,-0.48,6.39,-8.08,0.00,0.00,-0.01,-38.77,26.29,-22.22
28268,-0.48,6.39,-8.08,0.00,0.00,-0.01,-38.77,26.29,-22.22
28279,-0.49,6.40,-8.08,-0.00,-0.00,-0.01,-37.63,26.45,-23.97
28290,-0.49,6.40,-8.08,-0.00,-0.00,-0.01,-37.63,26.45,-23.97
28301,-0.52,6.42,-8.07,-0.00,0.00,-0.01,-37.63,26.45,-23.97
28312,-0.52,6.41,-8.03,-0.00,0.00,-0.01,-37.63,26.45,-23.97
28416,-0.51,6.38,-8.05,-0.00,-0.00,-0.01,-38.99,25.82,-23.97
28426,-0.51,6.38,-8.05,-0.00,-0.00,-0.01,-38.99,25.82,-23.97
28437,-0.50,6.37,-8.06,-0.00,-0.00,-0.01,-38.99,25.82,-23.97
28448,-0.50,6.37,-8.06,-0.00,-0.00,-0.01,-38.99,25.82,-23.97
28459,-0.46,6.36,-8.05,0.00,0.00,-0.01,-38.99,25.82,-23.97
28470,-0.46,6.36,-8.05,0.00,0.00,-0.01,-38.99,25.82,-23.97
28481,-0.49,6.38,-8.03,-0.00,-0.00,-0.01,-38.99,25.82,-23.97
28492,-0.50,6.40,-8.03,0.00,0.00,-0.01,-38.99,25.82,-23.97
28503,-0.50,6.40,-8.03,0.00,0.00,-0.01,-38.99,25.82,-23.97
28514,-0.49,6.35,-8.10,-0.01,-0.01,-0.01,-38.99,25.82,-23.97
28525,-0.49,6.35,-8.10,-0.01,-0.01,-0.01,-38.99,25.82,-23.97
28536,-0.52,6.41,-8.03,-0.10,-0.04,-0.04,-36.50,27.54,-22.22
28641,-1.01,6.72,-8.03,1.22,0.45,0.30,-36.50,27.54,-22.22
28651,-1.01,6.72,-8.03,1.22,0.45,0.30,-36.50,27.54,-22.22
28662,-1.82,7.05,-7.37,-0.40,-0.06,-0.23,-36.95,26.29,-22.22
28673,0.28,5.81,-8.90,-1.40,-0.37,-0.52,-36.95,26.29,-22.22
28684,0.28,5.81,-8.90,-1.40,-0.37,-0.52,-36.95,26.29,-22.22
28695,0.32,6.23,-8.27,0.34,0.06,0.12,-36.95,26.29,-22.22
28706,0.32,6.23,-8.27,0.34,0.06,0.12,-36.95,26.29,-22.22
28717,-0.63,6.04,-8.39,0.63,-0.15,0.59,-36.95,26.29,-22.22
28728,-0.63,6.04,-8.39,0.63,-0.15,0.59,-36.95,26.29,-22.22
28832,-1.31,7.77,-7.03,0.22,-1.11,1.48,-35.14,28.47,-20.95
28842,-0.84,7.01,-7.54,-0.01,-0.34,0.41,-35.14,28.47,-20.95
28853,0.92,6.08,-8.44,-0.09,0.24,-0.36,-35.14,28.47,-20.95
28864,0.92,6.08,-8.44,-0.09,0.24,-0.36,-35.14,28.47,-20.95
28875,0.38,5.49,-8.83,-0.01,0.27,-0.38,-35.14,28.47,-20.95
28886,0.38,5.49,-8.83,-0.01,0.27,-0.38,-35.14,28.47,-20.95
28897,-1.40,6.35,-7.83,0.12,-0.25,0.39,-35.14,28.47,-20.95
28908,-1.40,6.35,-7.83,0.12,-0.25,0.39,-35.14,28.47,-20.95
28919,-1.12,7.08,-7.51,0.15,-0.59,0.88,-36.04,29.41,-21.27
28930,-1.12,7.08,-7.51,0.15,-0.59,0.88,-36.04,29.41,-21.27
28941,-0.86,7.27,-7.19,-0.08,-0.62,0.58,-36.04,29.41,-21.27
28952,-0.86,7.27,-7.19,-0.08,-0.62,0.58,-36.04,29.41,-21.27
29056,-0.34,6.17,-8.26,0.05,0.12,-0.11,-34.91,29.25,-20.47
29066,-0.34,6.17,-8.26,0.05,0.12,-0.11,-34.91,29.25,-20.47
29077,-0.42,6.25,-8.18,0.00,0.06,-0.07,-34.91,29.25,-20.47
29088,-0.42,6.25,-8.18,0.00,0.06,-0.07,-34.91,29.25,-20.47
29099,-0.51,6.36,-8.06,-0.01,0.01,-0.02,-34.91,29.25,-20.47
29110,-0.51,6.36,-8.06,-0.01,0.01,-0.02,-34.91,29.25,-20.47
29121,-0.51,6.41,-8.02,0.03,0.05,-0.05,-34.91,29.25,-20.47
29132,-0.51,6.41,-8.02,0.03,0.05,-0.05,-34.91,29.25,-20.47
29143,-0.40,6.21,-8.18,0.02,0.07,-0.08,-34.91,29.25,-20.47
29154,-0.44,6.30,-8.11,0.00,0.03,-0.03,-34.91,29.25,-20.47
29165,-0.44,6.30,-8.11,0.00,0.03,-0.03,-34.91,29.25,-20.47
29176,-0.47,6.29,-8.09,-0.01,0.01,-0.01,-34.46,29.57,-20.15
29187,-0.47,6.29,-8.09,-0.01,0.01,-0.01,-34.46,29.57,-20.15
29293,-0.47,6.14,-8.21,-0.03,0.05,-0.00,-35.59,28.79,-21.27
29303,-0.47,6.14,-8.21,-0.03,0.05,-0.00,-35.59,28.79,-21.27
29314,-0.40,6.12,-8.24,-0.03,0.12,0.06,-35.59,28.79,-21.27
29325,-0.40,6.12,-8.24,-0.03,0.12,0.06,-35.59,28.79,-21.27
29336,-0.37,6.50,-8.00,0.01,0.03,0.10,-35.59,28.79,-21.27
29347,-0.37,6.50,-8.00,0.01,0.03,0.10,-35.59,28.79,-21.27
29358,-0.51,6.40,-7.91,0.04,-0.08,0.04,-35.59,28.79,-21.27
29369,-0.51,6.40,-7.91,0.04,-0.08,0.04,-35.59,28.79,-21.27
29380,-0.51,6.32,-8.09,0.06,-0.05,0.01,-35.59,28.79,-21.27
29391,-0.51,6.32,-8.09,0.06,-0.05,0.01,-35.59,28.79,-21.27
29402,-0.56,5.90,-8.46,0.09,0.04,-0.05,-35.59,28.79,-21.27
29413,-0.40,6.47,-7.97,0.12,0.12,-0.09,-34.23,28.79,-19.99
29424,-0.40,6.47,-7.97,0.12,0.12,-0.09,-34.23,28.79,-19.99
29530,-0.55,6.22,-8.17,0.07,0.04,-0.12,-34.23,28.79,-19.99
29541,-0.56,6.22,-8.20,0.07,0.13,-0.12,-35.82,27.69,-19.52
29552,-0.56,6.22,-8.20,0.07,0.13,-0.12,-35.82,27.69,-19.52
29563,-0.49,6.27,-8.15,0.13,0.13,-0.19,-35.82,27.69,-19.52
29574,-0.26,6.08,-8.30,0.07,0.09,-0.16,-35.82,27.69,-19.52
29585,-0.26,6.08,-8.30,0.07,0.09,-0.16,-35.82,27.69,-19.52
29596,-0.43,6.18,-8.21,0.00,-0.01,-0.03,-35.82,27.69,-19.52
29607,-0.43,6.18,-8.21,0.00,-0.01,-0.03,-35.82,27.69,-19.52
29618,-0.01,6.13,-8.35,-0.06,-0.13,0.09,-35.82,27.69,-19.52
29629,-0.01,6.13,-8.35,-0.06,-0.13,0.09,-35.82,27.69,-19.52
29640,-0.53,6.26,-8.27,-0.15,-0.47,0.37,-35.82,27.69,-19.52
29651,-0.53,6.26,-8.27,-0.15,-0.47,0.37,-35.82,27.69,-19.52
