time,ax,ay,az,gx,gy,gz,mx,my,mz
401,-0.21,6.86,-7.88,-0.04,0.34,-0.58,-38.54,24.89,-23.33
411,-0.21,6.86,-7.88,-0.04,0.34,-0.58,-38.54,24.89,-23.33
422,-1.17,5.54,-6.93,0.43,0.62,-0.51,-38.54,24.89,-23.33
433,-1.17,5.54,-6.93,0.43,0.62,-0.51,-38.54,24.89,-23.33
445,-0.14,7.56,-7.62,-0.67,0.81,-1.24,-38.54,24.89,-23.33
455,-0.14,7.56,-7.62,-0.67,0.81,-1.24,-38.54,24.89,-23.33
582,-0.50,7.12,-8.03,-0.67,0.84,-1.73,-38.54,24.89,-23.33
584,-0.26,6.23,-7.95,-1.16,-0.23,0.33,-38.54,24.89,-23.33
594,-0.26,6.23,-7.95,-1.16,-0.23,0.33,-38.54,24.89,-23.33
605,-0.57,7.63,-7.58,-1.07,-0.31,0.27,-38.54,24.89,-23.33
616,-0.57,7.63,-7.58,-1.07,-0.31,0.27,-38.54,24.89,-23.33
627,-0.81,7.12,-7.43,-0.33,-0.15,0.02,-38.54,24.89,-23.33
638,-0.69,6.87,-7.85,0.02,0.05,-0.10,-38.54,24.89,-23.33
649,-0.69,6.87,-7.85,0.02,0.05,-0.10,-38.54,24.89,-23.33
660,-0.67,6.74,-7.99,0.27,0.05,-0.09,-39.90,24.89,-23.33
671,-0.67,6.74,-7.99,0.27,0.05,-0.09,-39.90,24.89,-23.33
682,-0.73,7.03,-8.00,0.59,0.00,-0.06,-39.90,24.89,-23.33
693,-0.73,7.03,-8.00,0.59,0.00,-0.06,-39.90,24.89,-23.33
704,-0.77,6.16,-7.77,0.97,0.04,-0.07,-39.90,24.89,-23.33
715,-0.77,6.16,-7.77,0.97,0.04,-0.07,-39.90,24.89,-23.33
726,-0.83,6.13,-7.74,0.82,0.15,-0.02,-39.90,24.89,-23.33
737,-0.19,5.18,-8.67,0.50,0.27,0.04,-39.90,24.89,-23.33
748,-0.19,5.18,-8.67,0.50,0.27,0.04,-39.90,24.89,-23.33
759,-0.49,5.64,-8.16,-0.34,-0.00,0.12,-39.90,24.89,-23.33
865,-0.36,6.33,-8.20,0.14,0.09,0.06,-38.54,23.33,-24.92
875,-0.36,6.33,-8.20,0.14,0.09,0.06,-38.54,23.33,-24.92
886,-0.49,6.40,-8.10,-0.05,-0.03,-0.04,-38.54,23.33,-24.92
897,-0.53,6.40,-8.00,-0.05,-0.03,-0.03,-38.54,24.58,-24.92
908,-0.53,6.40,-8.00,-0.05,-0.03,-0.03,-38.54,24.58,-24.92
919,-0.48,6.39,-8.08,0.01,0.01,-0.00,-38.54,24.58,-24.92
930,-0.48,6.39,-8.08,0.01,0.01,-0.00,-38.54,24.58,-24.92
941,-0.52,6.40,-8.03,-0.02,-0.01,-0.02,-38.54,24.58,-24.92
952,-0.52,6.40,-8.03,-0.02,-0.01,-0.02,-38.54,24.58,-24.92
963,-0.47,6.37,-8.07,0.01,0.01,-0.00,-38.54,24.58,-24.92
974,-0.47,6.37,-8.07,0.01,0.01,-0.00,-38.54,24.58,-24.92
985,-0.50,6.39,-8.06,-0.01,-0.00,-0.01,-38.54,24.58,-24.92
996,-0.50,6.39,-8.06,-0.01,-0.00,-0.01,-38.54,24.58,-24.92
1097,-0.49,6.40,-8.06,-0.00,0.00,-0.01,-38.31,23.80,-25.08
1108,-0.49,6.40,-8.06,-0.00,0.00,-0.01,-38.31,23.80,-25.08
1119,-0.50,6.39,-8.04,-0.00,0.00,-0.01,-38.31,23.80,-25.08
1130,-0.50,6.39,-8.04,-0.00,0.00,-0.01,-38.31,23.80,-25.08
1141,-0.49,6.40,-8.05,-0.00,-0.00,-0.01,-38.31,23.80,-25.08
1152,-0.49,6.40,-8.05,-0.00,-0.00,-0.01,-38.31,23.80,-25.08
1163,-0.47,6.40,-8.08,-0.00,0.00,-0.01,-38.54,23.95,-24.92
1174,-0.47,6.40,-8.08,-0.00,0.00,-0.01,-38.54,23.95,-24.92
1185,-0.50,6.39,-8.06,-0.00,-0.00,-0.01,-38.54,23.95,-24.92
1196,-0.50,6.39,-8.06,-0.00,-0.00,-0.01,-38.54,23.95,-24.92
1207,-0.49,6.39,-8.05,0.00,0.00,-0.01,-38.54,23.95,-24.92
1218,-0.48,6.41,-8.07,-0.00,0.00,-0.01,-38.54,23.95,-24.92
1229,-0.48,6.41,-8.07,-0.00,0.00,-0.01,-38.54,23.95,-24.92
1240,-0.49,6.39,-8.05,-0.00,0.00,-0.01,-38.54,23.95,-24.92
1251,-0.49,6.39,-8.05,-0.00,0.00,-0.01,-38.54,23.95,-24.92
1262,-0.49,6.39,-8.05,-0.00,0.00,-0.01,-38.54,23.95,-24.92
1273,-0.49,6.39,-8.05,-0.00,0.00,-0.01,-38.54,23.95,-24.92
1376,-0.49,6.40,-8.05,-0.00,0.00,-0.01,-39.67,24.11,-25.40
1386,-0.49,6.38,-8.04,0.00,0.00,-0.01,-39.67,24.11,-25.40
1397,-0.49,6.38,-8.04,0.00,0.00,-0.01,-39.67,24.11,-25.40
1408,-0.50,6.37,-8.04,-0.00,0.00,-0.01,-39.67,24.11,-25.40
1419,-0.48,6.40,-8.06,-0.00,0.00,-0.01,-39.45,23.33,-24.92
1430,-0.48,6.40,-8.06,-0.00,0.00,-0.01,-39.45,23.33,-24.92
1441,-0.50,6.38,-8.02,-0.00,-0.00,-0.01,-39.45,23.33,-24.92
1452,-0.50,6.38,-8.02,-0.00,-0.00,-0.01,-39.45,23.33,-24.92
1463,-0.49,6.39,-8.08,-0.00,0.00,-0.01,-39.45,23.33,-24.92
1474,-0.49,6.39,-8.08,-0.00,0.00,-0.01,-39.45,23.33,-24.92
1485,-0.49,6.39,-8.06,-0.00,-0.00,-0.01,-39.45,23.33,-24.92
1496,-0.49,6.39,-8.06,-0.00,-0.00,-0.01,-39.45,23.33,-24.92
1507,-0.49,6.40,-8.06,0.00,-0.00,-0.01,-39.45,23.33,-24.92
1609,-0.48,6.41,-8.03,-0.00,0.00,-0.01,-38.54,25.20,-23.97
1619,-0.52,6.39,-8.04,-0.00,-0.00,-0.01,-38.54,25.20,-23.97
1630,-0.52,6.39,-8.04,-0.00,-0.00,-0.01,-38.54,25.20,-23.97
1641,-0.53,6.40,-8.06,0.00,0.00,-0.01,-38.54,25.20,-23.97
1652,-0.53,6.40,-8.06,0.00,0.00,-0.01,-38.54,25.20,-23.97
1663,-0.50,6.37,-8.09,0.00,0.00,-0.01,-38.54,23.02,-24.61
1674,-0.50,6.37,-8.09,0.00,0.00,-0.01,-38.54,23.02,-24.61
1685,-0.44,6.40,-8.08,-0.00,0.00,-0.01,-38.54,23.02,-24.61
1696,-0.44,6.40,-8.08,-0.00,0.00,-0.01,-38.54,23.02,-24.61
1707,-0.47,6.41,-8.01,-0.00,-0.00,-0.01,-38.54,23.02,-24.61
1718,-0.49,6.39,-8.04,0.00,0.00,-0.01,-38.54,23.02,-24.61
1729,-0.49,6.39,-8.04,0.00,0.00,-0.01,-38.54,23.02,-24.61
1740,-0.50,6.39,-8.06,0.00,0.00,-0.01,-38.54,23.02,-24.61
1751,-0.50,6.39,-8.06,0.00,0.00,-0.01,-38.54,23.02,-24.61
1762,-0.50,6.38,-8.07,0.00,0.00,-0.01,-38.54,23.02,-24.61
1773,-0.50,6.38,-8.07,0.00,0.00,-0.01,-38.54,23.02,-24.61
1784,-0.47,6.40,-8.06,0.00,-0.00,-0.01,-38.54,23.02,-24.61
1887,-0.46,6.37,-8.04,0.00,0.00,-0.01,-38.08,24.27,-24.92
1897,-0.46,6.37,-8.04,0.00,0.00,-0.01,-38.08,24.27,-24.92
1908,-0.47,6.38,-8.06,-0.00,0.00,-0.01,-38.08,24.27,-24.92
1919,-0.51,6.40,-8.07,-0.00,0.00,-0.01,-39.22,24.42,-23.81
1930,-0.51,6.40,-8.07,-0.00,0.00,-0.01,-39.22,24.42,-23.81
1941,-0.49,6.40,-8.07,0.00,0.00,-0.01,-39.22,24.42,-23.81
1952,-0.49,6.40,-8.07,0.00,0.00,-0.01,-39.22,24.42,-23.81
1963,-0.48,6.37,-8.06,0.00,0.00,-0.01,-39.22,24.42,-23.81
1974,-0.48,6.37,-8.06,0.00,0.00,-0.01,-39.22,24.42,-23.81
1985,-0.47,6.39,-8.06,0.00,0.00,-0.01,-39.22,24.42,-23.81
1996,-0.47,6.39,-8.06,0.00,0.00,-0.01,-39.22,24.42,-23.81
2007,-0.48,6.40,-8.04,-0.00,-0.00,-0.01,-39.22,24.42,-23.81
2018,-0.49,6.41,-8.04,0.00,0.00,-0.01,-39.22,24.42,-23.81
2157,-0.51,6.39,-8.08,0.00,0.00,-0.01,-38.99,23.33,-23.97
2168,-0.47,6.38,-8.10,0.00,0.00,-0.01,-37.18,22.71,-25.24
2179,-0.47,6.39,-8.09,-0.00,0.00,-0.01,-37.18,22.71,-25.24
2190,-0.47,6.39,-8.09,-0.00,0.00,-0.01,-37.18,22.71,-25.24
2201,-0.49,6.43,-8.04,-0.00,-0.00,-0.01,-37.18,22.71,-25.24
2212,-0.49,6.43,-8.04,-0.00,-0.00,-0.01,-37.18,22.71,-25.24
2223,-0.50,6.41,-8.07,-0.00,0.00,-0.01,-37.18,22.71,-25.24
2234,-0.50,6.41,-8.07,-0.00,0.00,-0.01,-37.18,22.71,-25.24
2245,-0.49,6.39,-8.06,0.00,0.00,-0.01,-37.18,22.71,-25.24
2256,-0.49,6.39,-8.06,0.00,0.00,-0.01,-37.18,22.71,-25.24
2267,-0.47,6.39,-8.07,0.00,0.00,-0.01,-37.18,22.71,-25.24
2278,-0.46,6.39,-8.05,0.00,0.00,-0.01,-37.18,22.71,-25.24
2289,-0.46,6.39,-8.05,0.00,0.00,-0.01,-37.18,22.71,-25.24
2391,-0.48,6.40,-8.06,0.00,-0.00,-0.01,-38.99,23.64,-25.24
2401,-0.50,6.41,-8.04,-0.00,-0.00,-0.01,-38.99,23.64,-25.24
2412,-0.50,6.41,-8.04,-0.00,-0.00,-0.01,-38.99,23.64,-25.24
2423,-0.50,6.38,-8.09,0.00,0.00,-0.01,-38.08,24.27,-26.20
2434,-0.50,6.38,-8.09,0.00,0.00,-0.01,-38.08,24.27,-26.20
2445,-0.49,6.37,-8.09,0.00,0.00,-0.01,-38.08,24.27,-26.20
2456,-0.49,6.37,-8.09,0.00,0.00,-0.01,-38.08,24.27,-26.20
2467,-0.46,6.38,-8.09,0.00,0.00,-0.01,-38.08,24.27,-26.20
2478,-0.46,6.38,-8.09,0.00,0.00,-0.01,-38.08,24.27,-26.20
2489,-0.47,6.40,-8.03,0.00,0.00,-0.01,-38.08,24.27,-26.20
2500,-0.50,6.40,-8.05,-0.00,0.00,-0.01,-38.08,24.27,-26.20
2511,-0.50,6.40,-8.05,-0.00,0.00,-0.01,-38.08,24.27,-26.20
2522,-0.49,6.41,-8.05,0.00,0.00,-0.01,-38.08,24.27,-26.20
2533,-0.49,6.41,-8.05,0.00,0.00,-0.01,-38.08,24.27,-26.20
2544,-0.47,6.37,-8.05,0.00,0.00,-0.01,-37.86,23.80,-25.72
2555,-0.47,6.37,-8.05,0.00,0.00,-0.01,-37.86,23.80,-25.72
2566,-0.46,6.39,-8.10,0.00,0.00,-0.01,-37.86,23.80,-25.72
2668,-0.47,6.37,-8.04,-0.00,0.00,-0.01,-37.86,23.80,-25.72
2678,-0.47,6.37,-8.04,-0.00,0.00,-0.01,-37.86,23.80,-25.72
2689,-0.48,6.40,-8.07,-0.00,-0.00,-0.01,-37.86,23.17,-25.40
2700,-0.49,6.41,-8.06,0.00,0.00,-0.01,-37.86,23.17,-25.40
2711,-0.49,6.41,-8.06,0.00,0.00,-0.01,-37.86,23.17,-25.40
2722,-0.49,6.39,-8.06,0.00,0.00,-0.01,-37.86,23.17,-25.40
2733,-0.49,6.39,-8.06,0.00,0.00,-0.01,-37.86,23.17,-25.40
2744,-0.48,6.38,-8.07,0.00,0.00,-0.01,-37.86,23.17,-25.40
2755,-0.48,6.38,-8.07,0.00,0.00,-0.01,-37.86,23.17,-25.40
2766,-0.49,5.79,-7.48,-0.01,-0.00,-0.01,-37.86,23.17,-25.40
2777,-0.49,5.79,-7.48,-0.01,-0.00,-0.01,-37.86,23.17,-25.40
2788,-0.50,5.90,-7.18,-0.00,0.02,-0.02,-37.86,23.17,-25.40
2799,-0.68,6.12,-7.33,-0.00,0.01,-0.03,-38.31,21.93,-24.77
2900,-0.48,6.25,-7.84,-0.00,-0.00,-0.01,-38.31,21.93,-24.77
2911,-0.48,6.25,-7.84,-0.00,-0.00,-0.01,-38.31,21.93,-24.77
2922,-0.47,6.24,-7.88,0.00,0.00,-0.01,-38.08,24.58,-24.92
2933,-0.47,6.24,-7.88,0.00,0.00,-0.01,-38.08,24.58,-24.92
2944,-0.45,6.24,-7.95,0.00,0.00,-0.01,-38.08,24.58,-24.92
2955,-0.45,6.24,-7.95,0.00,0.00,-0.01,-38.08,24.58,-24.92
2966,-0.47,6.30,-7.98,-0.00,0.00,-0.01,-38.08,24.58,-24.92
2977,-0.47,6.30,-7.98,-0.00,0.00,-0.01,-38.08,24.58,-24.92
2988,-0.52,6.37,-7.94,-0.00,0.00,-0.01,-38.08,24.58,-24.92
2999,-0.51,6.35,-7.99,0.00,0.00,-0.01,-38.08,24.58,-24.92
3010,-0.51,6.35,-7.99,0.00,0.00,-0.01,-38.08,24.58,-24.92
3021,-0.44,6.35,-8.04,0.00,0.00,-0.01,-38.08,24.58,-24.92
3032,-0.44,6.35,-8.04,0.00,0.00,-0.01,-38.08,24.58,-24.92
3043,-0.45,6.34,-8.07,0.00,0.00,-0.01,-38.08,24.58,-24.92
3054,-0.45,6.34,-8.07,0.00,0.00,-0.01,-38.08,24.58,-24.92
3065,-0.50,6.39,-8.06,-0.00,0.00,-0.01,-38.77,23.80,-23.81
3076,-0.50,6.39,-8.06,-0.00,0.00,-0.01,-38.77,23.80,-23.81
3178,-0.48,6.37,-8.07,-0.00,-0.00,-0.01,-38.77,23.80,-23.81
3188,-0.51,6.43,-8.05,-0.01,-0.00,-0.01,-38.99,23.95,-24.92
3199,-0.53,6.45,-8.02,-0.00,-0.00,-0.01,-38.99,23.95,-24.92
3210,-0.53,6.45,-8.02,-0.00,-0.00,-0.01,-38.99,23.95,-24.92
3221,-0.46,6.39,-8.08,0.00,0.00,-0.01,-38.99,23.95,-24.92
3232,-0.46,6.39,-8.08,0.00,0.00,-0.01,-38.99,23.95,-24.92
3243,-0.44,6.34,-8.10,0.00,0.00,-0.01,-38.99,23.95,-24.92
3254,-0.44,6.34,-8.10,0.00,0.00,-0.01,-38.99,23.95,-24.92
3265,-0.50,6.38,-8.09,-0.00,-0.00,-0.01,-38.99,23.95,-24.92
3276,-0.50,6.38,-8.09,-0.00,-0.00,-0.01,-38.99,23.95,-24.92
3287,-0.53,6.42,-8.05,-0.00,-0.00,-0.01,-38.99,23.95,-24.92
3298,-0.53,6.42,-8.05,-0.00,-0.00,-0.01,-38.99,23.95,-24.92
3309,-0.48,6.43,-8.06,-0.00,0.00,-0.01,-37.63,24.27,-25.56
3410,-0.48,6.40,-8.06,0.00,0.00,-0.01,-37.63,24.27,-25.56
3421,-0.47,6.39,-8.03,-0.00,-0.00,-0.01,-37.63,24.27,-25.56
3432,-0.47,6.39,-8.03,-0.00,-0.00,-0.01,-37.63,24.27,-25.56
3443,-0.47,6.39,-8.08,0.00,0.00,-0.01,-40.13,24.11,-25.08
3454,-0.47,6.39,-8.08,0.00,0.00,-0.01,-40.13,24.11,-25.08
3465,-0.51,6.39,-8.05,-0.01,-0.00,-0.01,-40.13,24.11,-25.08
3476,-0.51,6.39,-8.05,-0.01,-0.00,-0.01,-40.13,24.11,-25.08
3487,-0.51,6.38,-8.07,0.00,0.00,-0.01,-40.13,24.11,-25.08
3498,-0.51,6.38,-8.07,0.00,0.00,-0.01,-40.13,24.11,-25.08
3509,-0.46,6.40,-8.06,-0.00,-0.00,-0.01,-40.13,24.11,-25.08
3520,-0.46,6.39,-8.06,0.00,0.00,-0.01,-40.13,24.11,-25.08
3531,-0.46,6.39,-8.06,0.00,0.00,-0.01,-40.13,24.11,-25.08
3542,-0.50,6.37,-8.07,0.00,0.00,-0.01,-40.13,24.11,-25.08
3553,-0.50,6.37,-8.07,0.00,0.00,-0.01,-40.13,24.11,-25.08
3564,-0.50,6.37,-8.07,-0.00,0.00,-0.01,-39.45,23.33,-24.92
3575,-0.50,6.37,-8.07,-0.00,0.00,-0.01,-39.45,23.33,-24.92
3586,-0.47,6.40,-8.06,0.00,0.00,-0.01,-39.45,23.33,-24.92
3687,-0.49,6.39,-8.06,-0.00,0.00,-0.01,-37.18,25.20,-24.61
3698,-0.49,6.39,-8.06,-0.00,0.00,-0.01,-37.18,25.20,-24.61
3709,-0.45,6.40,-8.09,0.00,0.00,-0.01,-37.18,25.20,-24.61
3720,-0.46,6.39,-8.06,-0.00,0.00,-0.01,-37.18,25.20,-24.61
3731,-0.46,6.39,-8.06,-0.00,0.00,-0.01,-37.18,25.20,-24.61
3742,-0.51,6.39,-8.07,-0.00,0.00,-0.01,-37.18,25.20,-24.61
3753,-0.51,6.39,-8.07,-0.00,0.00,-0.01,-37.18,25.20,-24.61
3764,-0.52,6.39,-8.06,-0.00,0.00,-0.01,-37.18,25.20,-24.61
3775,-0.52,6.39,-8.06,-0.00,0.00,-0.01,-37.18,25.20,-24.61
3786,-0.48,6.39,-8.10,0.00,0.00,-0.01,-37.18,25.20,-24.61
3797,-0.48,6.39,-8.10,0.00,0.00,-0.01,-37.18,25.20,-24.61
3808,-0.46,6.38,-8.09,0.00,0.00,-0.01,-39.22,23.17,-23.81
3819,-0.46,6.38,-8.09,0.00,0.00,-0.01,-39.22,23.17,-23.81
3922,-0.48,6.39,-8.03,-0.00,0.00,-0.01,-39.22,23.17,-23.81
3933,-0.48,6.39,-8.03,-0.00,0.00,-0.01,-39.22,23.17,-23.81
3944,-0.51,6.40,-8.07,-0.00,0.00,-0.01,-38.77,22.86,-25.72
3955,-0.51,6.40,-8.07,-0.00,0.00,-0.01,-38.77,22.86,-25.72
3966,-0.50,6.38,-8.08,0.00,0.00,-0.01,-38.77,22.86,-25.72
3977,-0.50,6.38,-8.08,0.00,0.00,-0.01,-38.77,22.86,-25.72
3988,-0.46,6.38,-8.06,0.00,0.00,-0.01,-38.77,22.86,-25.72
3999,-0.46,6.38,-8.06,0.00,0.00,-0.01,-38.77,22.86,-25.72
4010,-0.48,6.40,-8.08,0.00,0.00,-0.01,-38.77,22.86,-25.72
4021,-0.49,6.39,-8.06,-0.00,0.00,-0.01,-38.77,22.86,-25.72
4032,-0.49,6.39,-8.06,-0.00,0.00,-0.01,-38.77,22.86,-25.72
4043,-0.50,6.38,-8.06,-0.00,0.00,-0.01,-38.77,22.86,-25.72
4054,-0.50,6.38,-8.06,-0.00,0.00,-0.01,-38.77,22.86,-25.72
4065,-0.50,6.37,-8.07,0.00,0.00,-0.01,-39.90,23.02,-24.61
4076,-0.50,6.37,-8.07,0.00,0.00,-0.01,-39.90,23.02,-24.61
4087,-0.47,6.39,-8.07,0.00,0.00,-0.01,-39.90,23.02,-24.61
4098,-0.47,6.39,-8.07,0.00,0.00,-0.01,-39.90,23.02,-24.61
4238,-0.49,6.40,-8.06,-0.00,-0.00,-0.01,-38.54,24.58,-24.29
4248,-0.49,6.39,-8.06,0.00,-0.00,-0.01,-38.54,24.58,-24.29
4259,-0.49,6.39,-8.06,0.00,-0.00,-0.01,-38.54,24.58,-24.29
4270,-0.48,6.38,-8.07,0.00,0.00,-0.01,-38.54,24.58,-24.29
4281,-0.46,6.39,-8.08,0.00,0.00,-0.01,-38.54,24.58,-24.29
4292,-0.46,6.39,-8.08,0.00,0.00,-0.01,-38.54,24.58,-24.29
4303,-0.48,6.39,-8.07,-0.00,0.00,-0.01,-38.54,24.58,-24.29
4314,-0.48,6.39,-8.07,-0.00,0.00,-0.01,-38.54,24.58,-24.29
4325,-0.49,6.40,-8.07,-0.00,0.00,-0.01,-38.77,23.80,-23.81
4427,-0.49,6.38,-8.06,-0.00,0.00,-0.01,-38.77,23.80,-23.81
4437,-0.49,6.38,-8.06,-0.00,0.00,-0.01,-38.77,23.80,-23.81
4448,-0.49,6.38,-8.07,0.00,0.00,-0.01,-38.31,22.86,-24.77
4459,-0.49,6.38,-8.07,0.00,0.00,-0.01,-38.31,22.86,-24.77
4470,-0.47,6.38,-8.07,0.00,0.00,-0.01,-38.31,22.86,-24.77
4481,-0.48,6.38,-8.06,0.00,0.00,-0.01,-38.31,22.86,-24.77
4492,-0.48,6.38,-8.06,0.00,0.00,-0.01,-38.31,22.86,-24.77
4503,-0.48,6.39,-8.07,0.00,0.00,-0.01,-38.31,22.86,-24.77
4514,-0.48,6.39,-8.07,0.00,0.00,-0.01,-38.31,22.86,-24.77
4525,-0.49,6.39,-8.05,0.00,0.00,-0.01,-38.31,22.86,-24.77
4536,-0.49,6.39,-8.05,0.00,0.00,-0.01,-38.31,22.86,-24.77
4547,-0.48,6.37,-8.05,0.00,0.00,-0.01,-38.31,22.86,-24.77
4558,-0.48,6.37,-8.05,0.00,0.00,-0.01,-38.31,22.86,-24.77
4569,-0.47,6.38,-8.06,-0.00,0.00,-0.01,-38.99,23.33,-24.92
4580,-0.47,6.38,-8.06,-0.00,0.00,-0.01,-38.99,23.33,-24.92
4591,-0.46,6.39,-8.03,-0.00,0.00,-0.01,-38.99,23.33,-24.92
4602,-0.48,6.38,-8.05,0.00,-0.00,-0.01,-38.99,23.33,-24.92
4704,-0.49,6.39,-8.06,0.00,0.00,-0.01,-39.22,23.17,-23.49
4714,-0.49,6.39,-8.06,0.00,0.00,-0.01,-39.22,23.17,-23.49
4725,-0.47,6.38,-8.08,-0.00,0.00,-0.01,-39.22,23.17,-23.49
4736,-0.47,6.38,-8.08,-0.00,0.00,-0.01,-39.22,23.17,-23.49
4747,-0.48,6.39,-8.04,0.00,-0.00,-0.01,-39.22,23.17,-23.49
4758,-0.48,6.39,-8.04,0.00,-0.00,-0.01,-39.22,23.17,-23.49
4769,-0.48,6.40,-8.06,0.00,-0.00,-0.01,-39.22,23.17,-23.49
4780,-0.48,6.40,-8.06,0.00,-0.00,-0.01,-39.22,23.17,-23.49
4791,-0.48,6.39,-8.05,0.00,0.00,-0.01,-39.22,23.17,-23.49
4802,-0.48,6.37,-8.06,-0.00,-0.00,-0.01,-39.22,23.17,-23.49
4813,-0.48,6.37,-8.06,-0.00,-0.00,-0.01,-39.22,23.17,-23.49
4824,-0.47,6.39,-8.07,-0.00,0.00,-0.01,-40.35,24.27,-25.24
4835,-0.47,6.39,-8.07,-0.00,0.00,-0.01,-40.35,24.27,-25.24
4937,-0.48,6.38,-8.06,-0.00,0.00,-0.01,-40.35,24.27,-25.24
4947,-0.48,6.39,-8.08,-0.00,0.00,-0.01,-37.86,25.04,-24.13
4958,-0.48,6.39,-8.08,-0.00,0.00,-0.01,-37.86,25.04,-24.13
4969,-0.47,6.39,-8.08,0.00,0.00,-0.01,-37.86,25.04,-24.13
4980,-0.47,6.39,-8.08,0.00,0.00,-0.01,-37.86,25.04,-24.13
4991,-0.49,6.37,-8.06,0.00,0.00,-0.01,-37.86,25.04,-24.13
5002,-0.48,6.38,-8.06,-0.00,0.00,-0.01,-37.86,25.04,-24.13
5013,-0.48,6.38,-8.06,-0.00,0.00,-0.01,-37.86,25.04,-24.13
5024,-0.49,6.39,-8.07,0.00,0.00,-0.01,-37.86,25.04,-24.13
5035,-0.49,6.39,-8.07,0.00,0.00,-0.01,-37.86,25.04,-24.13
5046,-0.48,6.39,-8.06,0.00,0.00,-0.01,-37.86,25.04,-24.13
5057,-0.48,6.39,-8.06,0.00,0.00,-0.01,-37.86,25.04,-24.13
5068,-0.47,6.39,-8.05,0.00,0.00,-0.01,-37.86,25.04,-24.13
5079,-0.47,6.39,-8.05,0.00,0.00,-0.01,-37.86,25.04,-24.13
5090,-0.48,6.37,-8.08,-0.00,0.00,-0.01,-38.31,23.49,-24.45
5101,-0.49,6.39,-8.08,-0.00,-0.00,-0.01,-38.31,23.49,-24.45
5112,-0.49,6.39,-8.08,-0.00,-0.00,-0.01,-38.31,23.49,-24.45
5213,-0.47,6.39,-8.06,0.00,0.00,-0.01,-39.45,24.58,-23.97
5223,-0.48,6.38,-8.09,-0.00,0.00,-0.01,-39.45,24.58,-23.97
5234,-0.48,6.38,-8.09,-0.00,0.00,-0.01,-39.45,24.58,-23.97
5245,-0.48,6.39,-8.07,-0.00,-0.00,-0.01,-39.45,24.58,-23.97
5256,-0.48,6.39,-8.07,-0.00,-0.00,-0.01,-39.45,24.58,-23.97
5267,-0.49,6.39,-8.05,-0.00,0.00,-0.01,-39.45,24.58,-23.97
5278,-0.49,6.39,-8.05,-0.00,0.00,-0.01,-39.45,24.58,-23.97
5289,-0.47,6.38,-8.06,0.00,0.00,-0.01,-39.45,24.58,-23.97
5305,-0.47,6.38,-8.06,0.00,0.00,-0.01,-39.45,24.58,-23.97
5311,-0.47,6.36,-8.07,0.00,0.00,-0.01,-39.45,24.58,-23.97
5322,-0.47,6.38,-8.07,-0.00,0.00,-0.01,-39.67,23.17,-23.81
5333,-0.47,6.38,-8.07,-0.00,0.00,-0.01,-39.67,23.17,-23.81
5344,-0.48,6.40,-8.06,-0.00,0.00,-0.01,-39.67,23.17,-23.81
5446,-0.47,6.39,-8.08,0.00,-0.00,-0.01,-38.08,23.64,-24.29
5456,-0.47,6.39,-8.08,0.00,-0.00,-0.01,-38.08,23.64,-24.29
5467,-0.49,6.40,-8.08,0.00,0.00,-0.01,-38.08,23.64,-24.29
5478,-0.49,6.40,-8.08,0.00,0.00,-0.01,-38.08,23.64,-24.29
5489,-0.47,6.38,-8.07,0.00,0.00,-0.01,-38.08,23.64,-24.29
5500,-0.47,6.38,-8.07,0.00,0.00,-0.01,-38.08,23.64,-24.29
5511,-0.47,6.38,-8.06,-0.00,0.00,-0.01,-38.08,23.64,-24.29
5522,-0.47,6.40,-8.06,-0.00,-0.00,-0.01,-38.08,23.64,-24.29
5533,-0.47,6.40,-8.06,-0.00,-0.00,-0.01,-38.08,23.64,-24.29
5544,-0.47,6.38,-8.05,0.00,0.00,-0.01,-38.08,23.64,-24.29
5555,-0.47,6.38,-8.05,0.00,0.00,-0.01,-38.08,23.64,-24.29
5566,-0.47,6.37,-8.06,0.00,0.00,-0.01,-38.08,23.64,-24.29
5577,-0.47,6.37,-8.06,0.00,0.00,-0.01,-38.08,23.64,-24.29
5588,-0.47,6.36,-8.08,0.00,0.00,-0.01,-37.40,23.49,-24.45
5599,-0.47,6.36,-8.08,0.00,0.00,-0.01,-37.40,23.49,-24.45
5610,-0.47,6.38,-8.08,0.00,0.00,-0.01,-37.40,23.49,-24.45
5621,-0.47,6.38,-8.08,0.00,0.00,-0.01,-37.40,23.49,-24.45
5723,-0.48,6.40,-8.06,-0.00,-0.00,-0.01,-38.08,23.95,-24.92
5733,-0.48,6.40,-8.06,-0.00,-0.00,-0.01,-38.08,23.95,-24.92
5744,-0.49,6.39,-8.06,-0.00,0.00,-0.01,-38.08,23.95,-24.92
5755,-0.49,6.39,-8.06,-0.00,0.00,-0.01,-38.08,23.95,-24.92
5766,-0.50,6.39,-8.06,0.00,0.00,-0.01,-38.08,23.95,-24.92
5777,-0.50,6.39,-8.06,0.00,0.00,-0.01,-38.08,23.95,-24.92
5788,-0.48,6.37,-8.08,0.00,0.00,-0.01,-38.08,23.95,-24.92
5799,-0.48,6.37,-8.08,0.00,0.00,-0.01,-38.08,23.95,-24.92
5810,-0.47,6.37,-8.09,0.00,0.00,-0.01,-38.08,23.95,-24.92
5821,-0.47,6.37,-8.09,0.00,0.00,-0.01,-38.08,23.95,-24.92
5832,-0.49,6.40,-8.04,-0.00,-0.00,-0.01,-37.40,23.17,-25.40
5843,-0.48,6.38,-8.06,0.00,0.00,-0.01,-37.40,23.17,-25.40
5854,-0.48,6.38,-8.06,0.00,0.00,-0.01,-37.40,23.17,-25.40
5958,-0.49,6.39,-8.05,0.00,0.00,-0.01,-37.40,23.17,-25.40
5968,-0.49,6.38,-8.08,-0.00,-0.00,-0.01,-38.77,24.42,-25.40
5979,-0.49,6.38,-8.08,-0.00,-0.00,-0.01,-38.77,24.42,-25.40
5990,-0.46,6.37,-8.06,0.00,0.00,-0.01,-38.77,24.42,-25.40
6001,-0.46,6.37,-8.06,0.00,0.00,-0.01,-38.77,24.42,-25.40
6012,-0.48,6.38,-8.07,-0.00,0.00,-0.01,-38.77,24.42,-25.40
6023,-0.47,6.39,-8.06,-0.00,0.00,-0.01,-38.77,24.42,-25.40
6034,-0.47,6.39,-8.06,-0.00,0.00,-0.01,-38.77,24.42,-25.40
6045,-0.47,6.40,-8.05,0.00,0.00,-0.01,-38.77,24.42,-25.40
6056,-0.47,6.40,-8.05,0.00,0.00,-0.01,-38.77,24.42,-25.40
6067,-0.48,6.38,-8.07,0.00,0.00,-0.01,-38.77,24.42,-25.40
6078,-0.48,6.38,-8.07,0.00,0.00,-0.01,-38.77,24.42,-25.40
6089,-0.47,6.37,-8.11,0.00,0.00,-0.01,-39.22,23.49,-25.08
6100,-0.47,6.37,-8.11,0.00,0.00,-0.01,-39.22,23.49,-25.08
6111,-0.48,6.36,-8.10,-0.00,0.00,-0.01,-39.22,23.49,-25.08
6122,-0.47,6.38,-8.07,-0.00,0.00,-0.01,-39.22,23.49,-25.08
6133,-0.47,6.38,-8.07,-0.00,0.00,-0.01,-39.22,23.49,-25.08
6270,-0.47,6.36,-8.06,0.00,-0.00,-0.01,-38.31,23.80,-25.40
6280,-0.47,6.36,-8.06,0.00,-0.00,-0.01,-38.31,23.80,-25.40
6291,-0.48,6.37,-8.07,0.00,0.00,-0.01,-38.31,23.80,-25.40
6302,-0.47,6.37,-8.08,0.00,0.00,-0.01,-38.31,23.80,-25.40
6313,-0.47,6.37,-8.08,0.00,0.00,-0.01,-38.31,23.80,-25.40
6324,-0.47,6.39,-8.04,-0.00,0.00,-0.01,-38.31,23.80,-25.40
6335,-0.47,6.39,-8.04,-0.00,0.00,-0.01,-38.31,23.80,-25.40
6346,-0.48,6.39,-8.08,-0.00,-0.00,-0.01,-37.63,23.64,-23.97
6357,-0.48,6.39,-8.08,-0.00,-0.00,-0.01,-37.63,23.64,-23.97
6368,-0.47,6.38,-8.07,-0.00,0.00,-0.01,-37.63,23.64,-23.97
6379,-0.47,6.38,-8.07,-0.00,0.00,-0.01,-37.63,23.64,-23.97
6390,-0.47,6.37,-8.10,0.00,0.00,-0.01,-37.63,23.64,-23.97
6401,-0.47,6.37,-8.10,0.00,0.00,-0.01,-37.63,23.64,-23.97
6504,-0.46,6.39,-8.07,-0.00,0.00,-0.01,-37.40,23.80,-25.72
6514,-0.46,6.39,-8.07,-0.00,0.00,-0.01,-37.40,23.80,-25.72
6525,-0.48,6.38,-8.03,-0.00,0.00,-0.01,-37.40,23.80,-25.72
6536,-0.48,6.38,-8.03,-0.00,0.00,-0.01,-37.40,23.80,-25.72
6547,-0.48,6.39,-8.05,-0.00,-0.00,-0.01,-37.40,23.80,-25.72
6558,-0.48,6.39,-8.05,-0.00,-0.00,-0.01,-37.40,23.80,-25.72
6569,-0.48,6.38,-8.05,-0.00,-0.00,-0.01,-37.40,23.80,-25.72
6580,-0.48,6.38,-8.05,-0.00,-0.00,-0.01,-37.40,23.80,-25.72
6591,-0.46,6.36,-8.10,0.00,0.00,-0.01,-39.45,23.33,-24.61
6602,-0.46,6.36,-8.10,0.00,0.00,-0.01,-39.45,23.33,-24.61
6613,-0.47,6.37,-8.07,-0.00,-0.00,-0.01,-39.45,23.33,-24.61
6624,-0.47,6.39,-8.06,-0.00,-0.00,-0.01,-39.45,23.33,-24.61
6635,-0.47,6.39,-8.06,-0.00,-0.00,-0.01,-39.45,23.33,-24.61
6646,-0.47,6.39,-8.07,-0.00,0.00,-0.01,-39.45,23.33,-24.61
6657,-0.47,6.39,-8.07,-0.00,0.00,-0.01,-39.45,23.33,-24.61
6668,-0.49,6.37,-8.07,0.00,0.00,-0.01,-39.45,23.33,-24.61
6679,-0.49,6.37,-8.07,0.00,0.00,-0.01,-39.45,23.33,-24.61
6781,-0.48,6.37,-8.07,0.00,0.00,-0.01,-39.45,23.33,-24.61
6791,-0.47,6.38,-8.07,0.00,0.00,-0.01,-39.45,23.33,-24.61
6802,-0.47,6.38,-8.07,0.00,0.00,-0.01,-39.45,23.33,-24.61
6813,-0.48,6.36,-8.07,0.00,0.00,-0.01,-39.45,23.33,-24.61
6824,-0.48,6.38,-8.05,0.00,0.00,-0.01,-39.45,23.33,-24.61
6835,-0.48,6.38,-8.05,0.00,0.00,-0.01,-39.45,23.33,-24.61
6846,-0.48,6.36,-8.10,0.00,0.00,-0.01,-38.54,23.33,-24.61
6857,-0.48,6.36,-8.10,0.00,0.00,-0.01,-38.54,23.33,-24.61
6868,-0.48,6.38,-8.06,0.00,-0.00,-0.01,-38.54,23.33,-24.61
6879,-0.48,6.38,-8.06,0.00,-0.00,-0.01,-38.54,23.33,-24.61
6890,-0.46,6.35,-8.08,-0.00,-0.00,-0.01,-38.54,23.33,-24.61
6901,-0.46,6.35,-8.08,-0.00,-0.00,-0.01,-38.54,23.33,-24.61
6912,-0.46,6.37,-8.06,-0.00,0.00,-0.01,-38.54,23.33,-24.61
7014,-0.48,6.38,-8.08,-0.00,0.00,-0.01,-38.54,24.27,-26.83
7024,-0.48,6.39,-8.04,-0.00,0.00,-0.01,-38.54,24.27,-26.83
7035,-0.48,6.39,-8.04,-0.00,0.00,-0.01,-38.54,24.27,-26.83
7046,-0.48,6.38,-8.06,-0.00,0.00,-0.01,-38.54,24.27,-26.83
7057,-0.48,6.38,-8.06,-0.00,0.00,-0.01,-38.54,24.27,-26.83
7068,-0.47,6.39,-8.07,0.00,0.00,-0.01,-38.54,24.27,-26.83
7079,-0.47,6.39,-8.07,0.00,0.00,-0.01,-38.54,24.27,-26.83
7090,-0.46,6.38,-8.10,0.00,0.00,-0.01,-38.54,24.27,-24.29
7101,-0.46,6.38,-8.10,0.00,0.00,-0.01,-38.54,24.27,-24.29
7112,-0.48,6.38,-8.10,-0.00,-0.00,-0.01,-38.54,24.27,-24.29
7123,-0.48,6.40,-8.07,0.00,-0.00,-0.01,-38.54,24.27,-24.29
7134,-0.48,6.40,-8.07,0.00,-0.00,-0.01,-38.54,24.27,-24.29
7145,-0.47,6.38,-8.06,-0.00,0.00,-0.01,-38.54,24.27,-24.29
7156,-0.47,6.38,-8.06,-0.00,0.00,-0.01,-38.54,24.27,-24.29
7167,-0.48,6.39,-8.07,0.00,0.00,-0.01,-38.54,24.27,-24.29
7178,-0.48,6.39,-8.07,0.00,0.00,-0.01,-38.54,24.27,-24.29
7189,-0.47,6.37,-8.07,0.00,0.00,-0.01,-38.54,24.27,-24.29
7293,-0.48,6.36,-8.07,-0.00,0.00,-0.01,-40.35,23.95,-24.92
7304,-0.47,6.38,-8.07,-0.00,0.00,-0.01,-40.35,23.95,-24.92
7315,-0.47,6.38,-8.07,-0.00,0.00,-0.01,-40.35,23.95,-24.92
7326,-0.47,6.37,-8.04,-0.00,0.00,-0.01,-40.35,23.95,-24.92
7337,-0.47,6.37,-8.04,-0.00,0.00,-0.01,-40.35,23.95,-24.92
7348,-0.46,6.38,-8.09,0.00,0.00,-0.01,-38.08,24.58,-25.24
7359,-0.46,6.38,-8.09,0.00,0.00,-0.01,-38.08,24.58,-25.24
7370,-0.45,6.37,-8.10,-0.00,0.00,-0.01,-38.08,24.58,-25.24
7381,-0.45,6.37,-8.10,-0.00,0.00,-0.01,-38.08,24.58,-25.24
7392,-0.46,6.37,-8.05,-0.00,0.00,-0.01,-38.08,24.58,-25.24
7403,-0.49,6.39,-8.06,-0.00,0.00,-0.01,-38.08,24.58,-25.24
7414,-0.49,6.39,-8.06,-0.00,0.00,-0.01,-38.08,24.58,-25.24
7425,-0.48,6.39,-8.05,-0.00,0.00,-0.01,-38.08,24.58,-25.24
7526,-0.46,6.37,-8.08,-0.00,-0.00,-0.01,-38.77,24.42,-24.45
7536,-0.46,6.37,-8.08,-0.00,-0.00,-0.01,-38.77,24.42,-24.45
7547,-0.46,6.35,-8.08,-0.00,0.00,-0.01,-38.77,24.42,-24.45
7558,-0.46,6.35,-8.08,-0.00,0.00,-0.01,-38.77,24.42,-24.45
7569,-0.47,6.36,-8.09,0.00,0.00,-0.01,-38.77,24.42,-24.45
7580,-0.47,6.36,-8.09,0.00,0.00,-0.01,-38.77,24.42,-24.45
7591,-0.46,6.39,-8.07,-0.00,0.00,-0.01,-38.77,24.42,-24.45
7602,-0.46,6.39,-8.07,-0.00,0.00,-0.01,-38.77,24.42,-24.45
7613,-0.49,6.37,-8.10,-0.00,0.00,-0.01,-37.86,23.49,-25.08
7624,-0.48,6.37,-8.06,-0.00,-0.00,-0.01,-37.86,23.49,-25.08
7635,-0.48,6.37,-8.06,-0.00,-0.00,-0.01,-37.86,23.49,-25.08
7646,-0.47,6.38,-8.05,0.00,0.00,-0.01,-37.86,23.49,-25.08
7657,-0.47,6.38,-8.05,0.00,0.00,-0.01,-37.86,23.49,-25.08
7668,-0.49,6.38,-8.08,-0.00,0.00,-0.01,-37.86,23.49,-25.08
7679,-0.49,6.38,-8.08,-0.00,0.00,-0.01,-37.86,23.49,-25.08
7690,-0.48,6.38,-8.06,-0.00,0.00,-0.01,-37.86,23.49,-25.08
7701,-0.48,6.38,-8.06,-0.00,0.00,-0.01,-37.86,23.49,-25.08
7805,-0.47,6.39,-8.06,-0.00,0.00,-0.01,-37.63,23.95,-24.61
7815,-0.47,6.39,-8.06,-0.00,0.00,-0.01,-37.63,23.95,-24.61
7826,-0.46,6.38,-8.07,0.00,0.00,-0.01,-37.63,23.95,-24.61
7837,-0.46,6.38,-8.07,0.00,0.00,-0.01,-37.63,23.95,-24.61
7848,-0.47,6.36,-8.10,-0.00,0.00,-0.01,-39.67,24.11,-26.36
7859,-0.47,6.36,-8.10,-0.00,0.00,-0.01,-39.67,24.11,-26.36
7870,-0.47,6.37,-8.10,-0.00,0.00,-0.01,-39.67,24.11,-26.36
7881,-0.47,6.37,-8.10,-0.00,0.00,-0.01,-39.67,24.11,-26.36
7897,-0.48,6.38,-8.07,-0.00,0.00,-0.01,-39.67,24.11,-26.36
7903,-0.48,6.38,-8.07,-0.00,0.00,-0.01,-39.67,24.11,-26.36
7914,-0.47,6.39,-8.07,-0.00,-0.00,-0.01,-39.67,24.11,-26.36
7925,-0.46,6.36,-8.09,0.00,0.00,-0.01,-39.67,24.11,-26.36
7936,-0.46,6.36,-8.09,0.00,0.00,-0.01,-39.67,24.11,-26.36
8082,-0.48,6.37,-8.08,-0.00,0.00,-0.01,-37.86,23.80,-24.45
8093,-0.47,6.38,-8.08,-0.00,0.00,-0.01,-37.86,23.80,-24.45
8104,-0.49,6.39,-8.06,-0.00,-0.00,-0.01,-37.86,24.42,-24.45
8115,-0.49,6.39,-8.06,-0.00,-0.00,-0.01,-37.86,24.42,-24.45
8126,-0.47,6.38,-8.09,0.00,0.00,-0.01,-37.86,24.42,-24.45
8137,-0.47,6.38,-8.09,0.00,0.00,-0.01,-37.86,24.42,-24.45
8148,-0.47,6.36,-8.08,0.00,0.00,-0.01,-37.86,24.42,-24.45
8159,-0.47,6.36,-8.08,0.00,0.00,-0.01,-37.86,24.42,-24.45
8261,-0.47,6.38,-8.10,-0.00,-0.00,-0.01,-38.77,25.67,-23.49
8272,-0.47,6.37,-8.07,0.00,0.00,-0.01,-38.77,25.67,-23.49
8283,-0.47,6.37,-8.07,0.00,0.00,-0.01,-38.77,25.67,-23.49
8294,-0.48,6.39,-8.05,-0.00,-0.00,-0.01,-38.77,25.67,-23.49
8305,-0.47,6.39,-8.06,0.00,0.00,-0.01,-38.77,25.67,-23.49
8316,-0.47,6.39,-8.06,0.00,0.00,-0.01,-38.77,25.67,-23.49
8327,-0.46,6.38,-8.08,-0.00,0.00,-0.01,-38.77,25.67,-23.49
8338,-0.46,6.38,-8.08,-0.00,0.00,-0.01,-38.77,25.67,-23.49
8349,-0.47,6.36,-8.10,0.00,0.00,-0.01,-38.99,23.02,-25.24
8360,-0.47,6.36,-8.10,0.00,0.00,-0.01,-38.99,23.02,-25.24
8371,-0.47,6.38,-8.12,-0.00,0.00,-0.01,-38.99,23.02,-25.24
8382,-0.47,6.38,-8.12,-0.00,0.00,-0.01,-38.99,23.02,-25.24
8393,-0.47,6.39,-8.08,-0.00,0.00,-0.01,-38.99,23.02,-25.24
8495,-0.46,6.40,-8.09,-0.00,0.00,-0.01,-39.90,24.27,-24.61
8505,-0.47,6.39,-8.09,0.00,0.00,-0.01,-39.90,24.27,-24.61
8516,-0.47,6.39,-8.09,0.00,0.00,-0.01,-39.90,24.27,-24.61
8527,-0.48,6.37,-8.07,-0.00,0.00,-0.01,-39.90,24.27,-24.61
8538,-0.48,6.37,-8.07,-0.00,0.00,-0.01,-39.90,24.27,-24.61
8549,-0.47,6.36,-8.08,0.00,0.00,-0.01,-39.90,24.27,-24.61
8560,-0.47,6.36,-8.08,0.00,0.00,-0.01,-39.90,24.27,-24.61
8571,-0.48,6.36,-8.08,-0.00,-0.00,-0.01,-39.90,24.27,-24.61
8582,-0.48,6.36,-8.08,-0.00,-0.00,-0.01,-39.90,24.27,-24.61
8593,-0.48,6.39,-8.06,-0.00,0.00,-0.01,-39.90,24.27,-24.61
8604,-0.48,6.39,-8.06,-0.00,0.00,-0.01,-39.90,24.27,-24.61
8615,-0.46,6.39,-8.06,-0.00,0.00,-0.01,-40.13,23.80,-24.77
8626,-0.46,6.38,-8.06,0.00,-0.00,-0.01,-40.13,23.80,-24.77
8637,-0.46,6.38,-8.06,0.00,-0.00,-0.01,-40.13,23.80,-24.77
8648,-0.48,6.36,-8.08,-0.00,-0.00,-0.01,-40.13,23.80,-24.77
8659,-0.48,6.36,-8.08,-0.00,-0.00,-0.01,-40.13,23.80,-24.77
8670,-0.49,6.38,-8.07,-0.00,-0.00,-0.01,-40.13,23.80,-24.77
8772,-0.48,6.39,-8.06,-0.00,-0.00,-0.01,-39.45,23.95,-24.92
8782,-0.48,6.39,-8.06,-0.00,-0.00,-0.01,-39.45,23.95,-24.92
8793,-0.48,6.39,-8.07,-0.00,-0.00,-0.01,-39.45,23.95,-24.92
8804,-0.48,6.39,-8.07,-0.00,-0.00,-0.01,-39.45,23.95,-24.92
8815,-0.46,6.37,-8.05,-0.00,0.00,-0.01,-39.45,23.95,-24.92
8826,-0.46,6.38,-8.07,0.00,0.00,-0.01,-39.45,23.95,-24.92
8837,-0.46,6.38,-8.07,0.00,0.00,-0.01,-39.45,23.95,-24.92
8848,-0.47,6.38,-8.07,-0.00,-0.00,-0.01,-39.45,23.95,-24.92
8859,-0.47,6.38,-8.07,-0.00,-0.00,-0.01,-39.45,23.95,-24.92
8870,-0.48,6.38,-8.07,-0.00,-0.00,-0.01,-38.99,23.33,-23.97
8881,-0.48,6.38,-8.07,-0.00,-0.00,-0.01,-38.99,23.33,-23.97
8892,-0.48,6.39,-8.08,0.00,0.00,-0.01,-38.99,23.33,-23.97
8903,-0.48,6.39,-8.08,0.00,0.00,-0.01,-38.99,23.33,-23.97
9007,-0.46,6.38,-8.09,0.00,0.00,-0.01,-39.45,24.27,-24.61
9017,-0.46,6.38,-8.09,0.00,0.00,-0.01,-39.45,24.27,-24.61
9028,-0.48,6.38,-8.06,0.00,0.00,-0.01,-39.45,24.27,-24.61
9039,-0.48,6.38,-8.06,0.00,0.00,-0.01,-39.45,24.27,-24.61
9050,-0.46,6.39,-8.06,-0.00,-0.00,-0.01,-39.45,24.27,-24.61
9061,-0.46,6.39,-8.06,-0.00,-0.00,-0.01,-39.45,24.27,-24.61
9072,-0.47,6.38,-8.06,-0.00,0.00,-0.01,-39.45,24.27,-24.61
9083,-0.47,6.38,-8.06,-0.00,0.00,-0.01,-39.45,24.27,-24.61
9094,-0.47,6.38,-8.05,-0.00,0.00,-0.01,-39.45,24.27,-24.61
9105,-0.46,6.38,-8.12,-0.00,0.00,-0.01,-38.54,24.89,-24.29
9116,-0.46,6.38,-8.12,-0.00,0.00,-0.01,-38.54,24.89,-24.29
9127,-0.47,6.37,-8.08,-0.00,0.00,-0.01,-38.54,24.89,-24.29
9138,-0.47,6.37,-8.08,-0.00,0.00,-0.01,-38.54,24.89,-24.29
9149,-0.48,6.38,-8.08,-0.00,0.00,-0.01,-38.54,24.89,-24.29
9160,-0.48,6.38,-8.08,-0.00,0.00,-0.01,-38.54,24.89,-24.29
9171,-0.48,6.39,-8.05,0.00,0.00,-0.01,-38.54,24.89,-24.29
9182,-0.48,6.39,-8.05,0.00,0.00,-0.01,-38.54,24.89,-24.29
9288,-0.46,6.39,-8.06,-0.00,0.00,-0.01,-37.86,23.49,-26.04
9298,-0.46,6.39,-8.06,-0.00,0.00,-0.01,-37.86,23.49,-26.04
9309,-0.45,6.38,-8.08,-0.00,0.00,-0.01,-37.86,23.49,-26.04
9320,-0.45,6.38,-8.08,-0.00,0.00,-0.01,-37.86,23.49,-26.04
9331,-0.48,6.38,-8.06,-0.00,-0.00,-0.01,-37.86,23.49,-26.04
9342,-0.48,6.38,-8.06,-0.00,-0.00,-0.01,-37.86,23.49,-26.04
9353,-0.49,6.39,-8.08,-0.00,0.00,-0.01,-37.86,23.49,-26.04
9364,-0.49,6.39,-8.08,-0.00,0.00,-0.01,-37.86,23.49,-26.04
9375,-0.47,6.39,-8.09,-0.00,0.00,-0.01,-38.31,23.17,-23.49
9386,-0.46,6.38,-8.08,0.00,0.00,-0.01,-38.31,23.17,-23.49
9397,-0.46,6.38,-8.08,0.00,0.00,-0.01,-38.31,23.17,-23.49
9408,-0.47,6.37,-8.08,0.00,0.00,-0.01,-38.31,23.17,-23.49
9419,-0.47,6.37,-8.08,0.00,0.00,-0.01,-38.31,23.17,-23.49
9522,-0.46,6.35,-8.10,-0.00,0.00,-0.01,-37.63,23.33,-24.61
9532,-0.48,6.38,-8.05,-0.00,-0.00,-0.01,-37.63,23.33,-24.61
9543,-0.48,6.38,-8.05,-0.00,-0.00,-0.01,-37.63,23.33,-24.61
9554,-0.48,6.39,-8.08,-0.00,-0.00,-0.01,-37.63,23.33,-24.61
9565,-0.48,6.39,-8.08,-0.00,-0.00,-0.01,-37.63,23.33,-24.61
9576,-0.48,6.37,-8.07,0.00,0.00,-0.01,-37.63,23.33,-24.61
9587,-0.44,6.36,-8.07,0.00,0.00,-0.01,-37.63,23.33,-24.61
9598,-0.44,6.36,-8.07,0.00,0.00,-0.01,-37.63,23.33,-24.61
9614,-0.48,6.38,-8.09,0.00,-0.00,-0.01,-38.54,23.95,-24.92
9620,-0.48,6.38,-8.09,0.00,-0.00,-0.01,-38.54,23.95,-24.92
9631,-0.48,6.39,-8.08,-0.00,0.00,-0.01,-38.54,23.95,-24.92
9642,-0.48,6.39,-8.08,-0.00,0.00,-0.01,-38.54,23.95,-24.92
9653,-0.48,6.38,-8.07,-0.00,0.00,-0.01,-38.54,23.95,-24.92
9664,-0.48,6.38,-8.07,-0.00,0.00,-0.01,-38.54,23.95,-24.92
9675,-0.46,6.36,-8.09,0.00,0.00,-0.01,-38.54,23.95,-24.92
9686,-0.45,6.37,-8.08,0.00,0.00,-0.01,-38.54,23.95,-24.92
9697,-0.45,6.37,-8.08,0.00,0.00,-0.01,-38.54,23.95,-24.92
9814,-0.48,6.38,-8.06,-0.00,-0.00,-0.01,-38.99,24.27,-24.92
9825,-0.48,6.38,-8.06,-0.00,-0.00,-0.01,-38.99,24.27,-24.92
9836,-0.48,6.39,-8.06,-0.00,0.00,-0.01,-38.99,24.27,-24.92
9847,-0.46,6.38,-8.05,0.00,0.00,-0.01,-38.99,24.27,-24.92
9858,-0.46,6.38,-8.05,0.00,0.00,-0.01,-38.99,24.27,-24.92
9869,-0.45,6.38,-8.10,-0.00,0.00,-0.01,-38.77,23.80,-24.77
9880,-0.45,6.38,-8.10,-0.00,0.00,-0.01,-38.77,23.80,-24.77
9891,-0.46,6.38,-8.08,0.00,-0.00,-0.01,-38.77,23.80,-24.77
9902,-0.46,6.38,-8.08,0.00,-0.00,-0.01,-38.77,23.80,-24.77
9913,-0.48,6.37,-8.06,-0.00,0.00,-0.01,-38.77,23.80,-24.77
9924,-0.48,6.37,-8.06,-0.00,0.00,-0.01,-38.77,23.80,-24.77
9935,-0.48,6.36,-8.07,-0.00,0.00,-0.01,-38.77,23.80,-24.77
9946,-0.45,6.37,-8.06,-0.00,0.00,-0.01,-38.77,23.80,-24.77
10073,-0.46,6.37,-8.09,0.00,0.00,-0.01,-39.22,23.80,-25.72
10083,-0.46,6.37,-8.09,0.00,0.00,-0.01,-39.22,23.80,-25.72
10094,-0.48,6.37,-8.06,-0.00,-0.00,-0.01,-39.22,23.80,-25.72
10105,-0.48,6.37,-8.06,-0.00,-0.00,-0.01,-39.22,23.80,-25.72
10116,-0.49,6.38,-8.04,-0.00,0.00,-0.01,-39.22,23.80,-25.72
10127,-0.47,6.38,-8.09,0.00,0.00,-0.01,-36.27,23.95,-25.56
10138,-0.47,6.38,-8.09,0.00,0.00,-0.01,-36.27,23.95,-25.56
10149,-0.46,6.37,-8.08,0.00,0.00,-0.01,-36.27,23.95,-25.56
10160,-0.46,6.37,-8.08,0.00,0.00,-0.01,-36.27,23.95,-25.56
10171,-0.45,6.34,-8.09,0.00,0.00,-0.01,-36.27,23.95,-25.56
10182,-0.45,6.34,-8.09,0.00,0.00,-0.01,-36.27,23.95,-25.56
10193,-0.49,6.35,-8.09,-0.00,0.00,-0.01,-36.27,23.95,-25.56
10204,-0.49,6.35,-8.09,-0.00,0.00,-0.01,-36.27,23.95,-25.56
10215,-0.49,6.39,-8.07,-0.00,0.00,-0.01,-36.27,23.95,-25.56
10226,-0.47,6.38,-8.07,0.00,0.00,-0.01,-36.27,23.95,-25.56
10237,-0.47,6.38,-8.07,0.00,0.00,-0.01,-36.27,23.95,-25.56
10248,-0.50,6.40,-8.07,0.01,0.02,-0.00,-39.22,23.17,-25.08
10350,0.69,8.27,-12.40,1.53,-0.10,0.35,-39.22,23.17,-25.08
10361,0.69,8.27,-12.40,1.53,-0.10,0.35,-39.22,23.17,-25.08
10372,0.75,6.76,-11.53,5.42,-0.33,0.57,-38.99,20.52,-27.79
10383,0.75,6.76,-11.53,5.42,-0.33,0.57,-38.99,20.52,-27.79
10394,-1.34,6.04,-11.56,9.82,-0.31,1.18,-38.99,20.52,-27.79
10405,-1.34,6.04,-11.56,9.82,-0.31,1.18,-38.99,20.52,-27.79
10416,-1.18,5.53,-6.23,15.48,0.54,2.02,-38.99,20.52,-27.79
10427,0.00,4.12,-7.73,13.95,1.85,0.79,-38.99,20.52,-27.79
10438,0.00,4.12,-7.73,13.95,1.85,0.79,-38.99,20.52,-27.79
10449,2.06,4.60,-18.33,7.92,1.96,-1.88,-38.99,20.52,-27.79
10460,2.06,4.60,-18.33,7.92,1.96,-1.88,-38.99,20.52,-27.79
10471,4.40,-6.46,-16.95,11.06,0.50,-3.12,-38.99,20.52,-27.79
10482,4.40,-6.46,-16.95,11.06,0.50,-3.12,-38.99,20.52,-27.79
10582,4.80,-3.44,-7.82,-1.94,-7.01,3.63,-29.01,-28.42,-22.38
10592,5.59,-3.72,-9.17,-2.20,-8.03,2.80,-29.01,-28.42,-22.38
10603,5.59,-3.72,-9.17,-2.20,-8.03,2.80,-29.01,-28.42,-22.38
10614,5.18,-7.34,-8.07,1.52,-8.67,2.18,-29.01,-28.42,-22.38
10625,5.18,-7.34,-8.07,1.52,-8.67,2.18,-29.01,-28.42,-22.38
10636,5.75,-10.50,-0.66,5.39,-8.65,2.75,-54.64,-28.27,6.41
10647,5.78,-7.86,2.27,3.56,-8.22,4.38,-54.64,-28.27,6.41
10658,5.78,-7.86,2.27,3.56,-8.22,4.38,-54.64,-28.27,6.41
10669,8.31,-5.10,0.30,0.84,-8.26,5.73,-54.64,-28.27,6.41
10680,8.31,-5.10,0.30,0.84,-8.26,5.73,-54.64,-28.27,6.41
10691,7.42,-2.36,1.46,4.39,-8.39,7.46,-54.64,-28.27,6.41
10702,7.42,-2.36,1.46,4.39,-8.39,7.46,-54.64,-28.27,6.41
10713,3.58,3.29,2.87,10.94,-7.31,9.91,-54.64,-28.27,6.41
10724,3.58,3.29,2.87,10.94,-7.31,9.91,-54.64,-28.27,6.41
10735,3.65,2.54,9.16,15.91,-4.44,11.62,-54.64,-28.27,6.41
10746,3.65,2.54,9.16,15.91,-4.44,11.62,-54.64,-28.27,6.41
10757,5.29,0.96,10.31,8.76,-2.26,11.90,-42.17,23.33,31.69
10861,-4.01,-1.65,10.53,-6.25,0.58,0.20,-42.17,23.33,31.69
10871,-4.03,-1.08,6.60,-1.61,1.53,2.03,-29.47,14.91,41.55
10882,-4.03,-1.08,6.60,-1.61,1.53,2.03,-29.47,14.91,41.55
10893,-2.49,0.37,6.63,-1.54,1.55,3.66,-29.47,14.91,41.55
10904,-2.49,0.37,6.63,-1.54,1.55,3.66,-29.47,14.91,41.55
10915,-1.65,0.47,6.98,-0.82,1.42,5.73,-29.47,14.91,41.55
10926,-1.65,0.47,6.98,-0.82,1.42,5.73,-29.47,14.91,41.55
10937,-2.63,1.72,7.54,1.18,1.82,8.34,-29.47,14.91,41.55
10948,-1.63,10.31,6.83,1.73,2.29,9.74,-29.47,14.91,41.55
10959,-1.63,10.31,6.83,1.73,2.29,9.74,-29.47,14.91,41.55
10970,-5.00,16.43,5.39,3.06,2.23,8.03,-29.47,14.91,41.55
10981,-5.00,16.43,5.39,3.06,2.23,8.03,-29.47,14.91,41.55
10992,-3.13,9.13,2.60,3.43,1.39,3.91,-29.47,14.91,41.55
11093,-1.55,8.08,6.86,-3.83,1.10,3.44,-19.26,29.72,34.71
11104,-1.55,8.08,6.86,-3.83,1.10,3.44,-19.26,29.72,34.71
11115,-1.05,7.20,3.63,-3.55,1.21,3.11,-19.26,29.72,34.71
11126,-1.05,7.20,3.63,-3.55,1.21,3.11,-19.26,29.72,34.71
11137,-1.11,7.31,2.71,-1.94,0.78,2.87,-5.42,22.08,44.73
11148,0.68,7.19,4.15,0.45,0.25,2.91,-5.42,22.08,44.73
11159,0.68,7.19,4.15,0.45,0.25,2.91,-5.42,22.08,44.73
11170,2.32,9.82,8.28,1.01,-0.31,3.45,-5.42,22.08,44.73
11181,2.32,9.82,8.28,1.01,-0.31,3.45,-5.42,22.08,44.73
11192,1.43,11.37,8.65,0.15,-0.08,3.60,-5.42,22.08,44.73
11203,1.43,11.37,8.65,0.15,-0.08,3.60,-5.42,22.08,44.73
11214,1.41,11.22,6.94,-1.05,0.59,2.89,-5.42,22.08,44.73
11225,1.41,11.22,6.94,-1.05,0.59,2.89,-5.42,22.08,44.73
11236,1.27,10.36,4.61,-1.12,0.84,2.02,-5.42,22.08,44.73
11247,0.85,9.63,5.84,-0.15,0.56,1.30,2.51,14.13,45.21
11258,0.85,9.63,5.84,-0.15,0.56,1.30,2.51,14.13,45.21
11269,0.47,8.19,5.78,-0.10,0.33,0.53,2.51,14.13,45.21
11280,0.47,8.19,5.78,-0.10,0.33,0.53,2.51,14.13,45.21
11383,-1.35,8.45,5.78,0.52,0.39,0.29,2.51,14.13,45.21
11393,0.28,8.36,8.89,1.17,0.17,-0.16,1.15,14.13,44.89
11404,0.28,8.36,8.89,1.17,0.17,-0.16,1.15,14.13,44.89
11415,0.44,8.15,8.19,0.47,0.31,-0.67,1.15,14.13,44.89
11426,0.44,8.15,8.19,0.47,0.31,-0.67,1.15,14.13,44.89
11437,-0.51,8.02,6.45,-0.26,0.57,-1.04,1.15,14.13,44.89
11448,1.09,7.64,5.73,-0.90,0.64,-1.41,1.15,14.13,44.89
11459,1.09,7.64,5.73,-0.90,0.64,-1.41,1.15,14.13,44.89
11470,1.63,5.93,5.57,-0.85,0.36,-1.27,1.15,14.13,44.89
11481,1.63,5.93,5.57,-0.85,0.36,-1.27,1.15,14.13,44.89
11492,1.69,6.81,4.83,-0.63,0.08,-0.83,1.15,14.13,44.89
11503,1.69,6.81,4.83,-0.63,0.08,-0.83,1.15,14.13,44.89
11514,2.07,7.40,7.06,-0.13,-0.03,-0.50,-5.88,13.98,46.32
11525,2.07,7.40,7.06,-0.13,-0.03,-0.50,-5.88,13.98,46.32
11669,-0.85,6.16,6.64,-1.30,-0.17,-1.23,-5.42,9.30,47.60
11680,-0.85,6.16,6.64,-1.30,-0.17,-1.23,-5.42,9.30,47.60
11691,-0.38,5.63,6.52,-0.06,-0.19,-1.43,-5.42,9.30,47.60
11702,-0.38,5.63,6.52,-0.06,-0.19,-1.43,-5.42,9.30,47.60
11713,-0.13,4.08,9.26,0.36,-0.38,-1.42,-5.42,9.30,47.60
11724,-0.13,4.08,9.26,0.36,-0.38,-1.42,-5.42,9.30,47.60
11735,0.81,5.33,8.45,-0.03,-0.11,-0.92,-5.42,9.30,47.60
11746,0.81,5.33,8.45,-0.03,-0.11,-0.92,-5.42,9.30,47.60
11757,0.91,6.63,7.28,-0.23,-0.07,-0.67,-5.88,8.37,46.96
11768,-0.17,5.29,8.44,-0.05,-0.32,-0.75,-5.88,8.37,46.96
11779,-0.17,5.29,8.44,-0.05,-0.32,-0.75,-5.88,8.37,46.96
11790,-0.48,5.40,8.17,-0.20,-0.33,-0.77,-5.88,8.37,46.96
11801,-0.48,5.40,8.17,-0.20,-0.33,-0.77,-5.88,8.37,46.96
11904,-1.58,5.08,8.32,0.03,-0.31,-0.71,-4.74,9.77,46.48
11915,-1.87,5.16,7.77,0.24,0.18,-0.62,-4.74,9.77,46.48
11926,-1.87,5.16,7.77,0.24,0.18,-0.62,-4.74,9.77,46.48
11937,-1.77,5.06,7.14,0.36,0.32,-0.45,-4.74,9.77,46.48
11948,-1.95,5.32,8.20,0.45,0.09,-0.16,-4.74,9.77,46.48
11959,-1.95,5.32,8.20,0.45,0.09,-0.16,-4.74,9.77,46.48
11970,-2.07,5.67,7.23,0.45,0.08,0.06,-4.74,9.77,46.48
11981,-2.07,5.67,7.23,0.45,0.08,0.06,-4.74,9.77,46.48
11992,-1.86,5.73,7.83,0.45,-0.04,0.09,-4.74,9.77,46.48
12003,-1.86,5.73,7.83,0.45,-0.04,0.09,-4.74,9.77,46.48
12014,-1.79,5.94,7.75,0.38,-0.02,0.09,-6.10,11.33,46.80
12025,-1.79,5.94,7.75,0.38,-0.02,0.09,-6.10,11.33,46.80
12036,-1.57,5.78,7.53,0.27,-0.02,0.07,-6.10,11.33,46.80
12047,-1.57,5.78,7.53,0.27,-0.02,0.07,-6.10,11.33,46.80
12149,-1.15,5.30,7.61,0.27,-0.05,0.08,-4.06,11.48,46.01
12159,-1.15,5.30,7.61,0.27,-0.05,0.08,-4.06,11.48,46.01
12170,-0.82,5.12,7.03,0.24,-0.03,0.28,-4.06,11.48,46.01
12181,-0.82,5.12,7.03,0.24,-0.03,0.28,-4.06,11.48,46.01
12192,-0.64,5.42,7.03,0.31,-0.13,0.63,-4.06,11.48,46.01
12203,-0.64,5.42,7.03,0.31,-0.13,0.63,-4.06,11.48,46.01
12214,0.42,6.15,6.70,0.39,-0.35,1.07,-4.06,11.48,46.01
12225,0.42,6.15,6.70,0.39,-0.35,1.07,-4.06,11.48,46.01
12236,0.93,6.69,9.62,1.10,-0.42,1.73,-4.06,11.48,46.01
12247,0.93,6.69,9.62,1.10,-0.42,1.73,-4.06,11.48,46.01
12258,1.85,7.80,12.86,1.91,0.10,2.51,-4.06,11.48,46.01
12269,2.63,10.68,13.37,1.16,0.83,2.90,-2.02,13.51,44.26
12280,2.63,10.68,13.37,1.16,0.83,2.90,-2.02,13.51,44.26
12291,1.91,12.42,10.89,-0.91,1.50,2.40,-2.02,13.51,44.26
12302,1.91,12.42,10.89,-0.91,1.50,2.40,-2.02,13.51,44.26
12313,-0.72,10.87,10.00,-2.11,1.76,1.32,-2.02,13.51,44.26
12324,-0.72,10.87,10.00,-2.11,1.76,1.32,-2.02,13.51,44.26
12335,-3.47,8.41,12.00,-3.00,1.98,0.31,-2.02,13.51,44.26
12439,-4.01,1.43,3.95,-7.57,8.67,-7.40,-18.13,-2.55,46.01
12450,-1.93,-4.04,-0.42,-6.14,9.47,-7.81,-18.13,-2.55,46.01
12461,-1.93,-4.04,-0.42,-6.14,9.47,-7.81,-18.13,-2.55,46.01
12472,0.33,-5.94,-6.97,-6.25,8.64,-7.01,-18.13,-2.55,46.01
12483,0.33,-5.94,-6.97,-6.25,8.64,-7.01,-18.13,-2.55,46.01
12494,-0.98,-7.08,-8.25,-4.99,6.23,-4.87,-18.13,-2.55,46.01
12505,-0.98,-7.08,-8.25,-4.99,6.23,-4.87,-18.13,-2.55,46.01
12516,-0.80,-5.66,-4.16,-3.67,3.78,-2.98,-38.77,-34.19,16.27
12527,-0.80,-5.66,-4.16,-3.67,3.78,-2.98,-38.77,-34.19,16.27
12538,-0.42,-1.98,-1.23,-2.55,3.39,-2.18,-38.77,-34.19,16.27
12549,-3.23,0.63,-5.16,-0.54,4.50,-2.54,-38.77,-34.19,16.27
12560,-3.23,0.63,-5.16,-0.54,4.50,-2.54,-38.77,-34.19,16.27
12661,-6.22,-0.77,1.35,2.23,3.90,0.10,-34.23,-33.25,23.58
12672,-7.28,1.50,0.05,5.69,4.07,-0.41,-34.23,-33.25,23.58
12683,-7.28,1.50,0.05,5.69,4.07,-0.41,-34.23,-33.25,23.58
12694,-9.30,0.75,1.53,10.88,3.45,-1.46,-34.23,-33.25,23.58
12705,-9.30,0.75,1.53,10.88,3.45,-1.46,-34.23,-33.25,23.58
12716,-9.22,-6.24,8.18,12.23,2.33,-2.30,-34.23,-33.25,23.58
12727,-9.22,-6.24,8.18,12.23,2.33,-2.30,-34.23,-33.25,23.58
12738,-8.99,-8.31,8.27,8.24,1.46,-1.62,-34.23,-33.25,23.58
12749,-9.10,-2.00,2.65,4.55,1.10,-0.57,-34.23,-33.25,23.58
12760,-9.10,-2.00,2.65,4.55,1.10,-0.57,-34.23,-33.25,23.58
12771,-9.31,-0.95,1.50,5.80,0.51,-0.43,-39.67,-8.00,39.17
12782,-9.31,-0.95,1.50,5.80,0.51,-0.43,-39.67,-8.00,39.17
12793,-8.03,-2.42,3.27,7.80,-0.59,-0.21,-39.67,-8.00,39.17
12804,-8.03,-2.42,3.27,7.80,-0.59,-0.21,-39.67,-8.00,39.17
12815,-8.00,-1.21,7.50,9.39,-1.50,0.78,-39.67,-8.00,39.17
12826,-8.00,-1.21,7.50,9.39,-1.50,0.78,-39.67,-8.00,39.17
12837,-9.28,0.85,11.20,8.16,-1.19,1.55,-39.67,-8.00,39.17
12848,-9.28,0.85,11.20,8.16,-1.19,1.55,-39.67,-8.00,39.17
12950,-5.90,3.04,5.79,2.86,-0.32,-0.58,-35.14,20.06,33.12
12960,-5.90,3.04,5.79,2.86,-0.32,-0.58,-35.14,20.06,33.12
12971,-8.60,4.89,8.81,2.10,-0.26,-0.42,-35.14,20.06,33.12
12982,-8.60,4.89,8.81,2.10,-0.26,-0.42,-35.14,20.06,33.12
12993,-11.40,11.05,9.06,0.75,-0.29,0.05,-35.14,20.06,33.12
13004,-11.40,11.05,9.06,0.75,-0.29,0.05,-35.14,20.06,33.12
13015,-5.60,7.37,6.82,-1.64,-0.92,-0.61,-35.14,30.97,20.40
13026,-5.60,7.37,6.82,-1.64,-0.92,-0.61,-35.14,30.97,20.40
13037,-1.72,4.40,4.90,-5.35,-1.15,-1.72,-35.14,30.97,20.40
13048,-1.72,4.40,4.90,-5.35,-1.15,-1.72,-35.14,30.97,20.40
13059,-5.18,3.08,6.32,-9.16,-0.84,-2.35,-35.14,30.97,20.40
13070,-6.40,0.90,9.49,-9.91,-0.32,-1.77,-35.14,30.97,20.40
13172,-8.68,-1.19,8.41,-0.82,0.30,-0.15,-37.63,14.29,36.15
13182,-8.68,-1.19,8.41,-0.82,0.30,-0.15,-37.63,14.29,36.15
13193,-8.95,0.23,7.88,-2.38,0.01,-0.02,-37.63,14.29,36.15
13204,-8.95,0.23,7.88,-2.38,0.01,-0.02,-37.63,14.29,36.15
13215,-10.37,0.12,11.35,-3.98,-0.12,-0.03,-37.63,14.29,36.15
13226,-10.37,0.12,11.35,-3.98,-0.12,-0.03,-37.63,14.29,36.15
13237,-4.53,0.80,10.11,-5.83,0.78,-0.35,-37.63,14.29,36.15
13248,-4.53,0.80,10.11,-5.83,0.78,-0.35,-37.63,14.29,36.15
13259,-3.51,-4.30,0.56,-5.22,1.67,-0.92,-37.63,14.29,36.15
13270,-2.09,-5.38,0.09,-2.99,0.71,-0.09,-40.35,-2.23,38.05
13281,-2.09,-5.38,0.09,-2.99,0.71,-0.09,-40.35,-2.23,38.05
13292,-6.02,-2.39,4.80,-0.89,-0.82,0.79,-40.35,-2.23,38.05
13303,-6.02,-2.39,4.80,-0.89,-0.82,0.79,-40.35,-2.23,38.05
13314,-5.57,-3.72,6.26,0.22,-1.23,0.89,-40.35,-2.23,38.05
13325,-5.57,-3.72,6.26,0.22,-1.23,0.89,-40.35,-2.23,38.05
13336,-7.10,-1.28,6.35,1.09,-1.06,0.93,-40.35,-2.23,38.05
13347,-7.10,-1.28,6.35,1.09,-1.06,0.93,-40.35,-2.23,38.05
13358,-6.17,-0.43,7.71,1.07,-0.93,0.57,-40.35,-2.23,38.05
13461,-5.84,-2.08,9.48,2.62,0.30,-0.40,-38.99,6.81,38.05
13471,-6.46,1.23,7.78,0.46,0.47,-0.16,-38.99,6.81,38.05
13482,-6.46,1.23,7.78,0.46,0.47,-0.16,-38.99,6.81,38.05
13493,-7.42,3.01,7.21,-0.01,0.48,-0.40,-38.99,6.81,38.05
13504,-7.42,3.01,7.21,-0.01,0.48,-0.40,-38.99,6.81,38.05
13515,-5.81,0.75,8.46,-0.68,0.36,-0.77,-38.99,6.81,38.05
13526,-5.81,0.75,8.46,-0.68,0.36,-0.77,-38.99,6.81,38.05
13537,-5.61,-0.82,8.13,-1.45,0.62,-0.68,-41.71,14.60,35.19
13548,-5.61,-0.82,8.13,-1.45,0.62,-0.68,-41.71,14.60,35.19
13559,-5.15,-2.16,6.76,-2.52,0.90,-0.30,-41.71,14.60,35.19
13570,-6.62,-1.32,4.71,-1.62,0.85,-0.01,-41.71,14.60,35.19
13581,-6.62,-1.32,4.71,-1.62,0.85,-0.01,-41.71,14.60,35.19
13592,-8.12,-0.79,4.82,1.18,0.55,0.18,-41.71,14.60,35.19
13735,-7.47,0.27,7.78,1.71,-0.60,0.34,-45.57,12.26,34.08
13745,-7.47,0.27,7.78,1.71,-0.60,0.34,-45.57,12.26,34.08
13756,-7.19,0.87,7.34,1.26,-0.47,0.27,-45.57,12.26,34.08
13767,-7.19,0.87,7.34,1.26,-0.47,0.27,-45.57,12.26,34.08
13778,-7.23,0.47,7.92,0.74,-0.35,0.17,-42.39,14.44,34.71
13789,-7.23,0.47,7.92,0.74,-0.35,0.17,-42.39,14.44,34.71
13800,-7.33,-0.45,9.41,0.07,-0.03,0.00,-42.39,14.44,34.71
13811,-6.99,-1.27,8.53,-0.43,0.48,-0.08,-42.39,14.44,34.71
13822,-6.99,-1.27,8.53,-0.43,0.48,-0.08,-42.39,14.44,34.71
13833,-6.31,-1.87,6.40,-0.67,0.79,-0.01,-42.39,14.44,34.71
13844,-6.31,-1.87,6.40,-0.67,0.79,-0.01,-42.39,14.44,34.71
13855,-6.18,-0.27,6.23,-0.99,0.76,0.35,-42.39,14.44,34.71
13866,-6.18,-0.27,6.23,-0.99,0.76,0.35,-42.39,14.44,34.71
13970,-7.69,2.65,6.48,-1.18,0.16,0.39,-43.98,12.42,34.24
13981,-7.69,2.65,6.48,-1.18,0.16,0.39,-43.98,12.42,34.24
13992,-7.88,-0.95,7.19,-1.39,0.27,-0.21,-43.98,12.42,34.24
14003,-7.88,-0.95,7.19,-1.39,0.27,-0.21,-43.98,12.42,34.24
14014,-7.77,-3.54,4.98,-1.51,0.42,-0.23,-43.98,12.42,34.24
14025,-7.77,-3.54,4.98,-1.51,0.42,-0.23,-43.98,12.42,34.24
14036,-7.48,-4.91,4.18,-1.03,0.31,0.18,-46.48,7.27,36.31
14047,-7.48,-4.91,4.18,-1.03,0.31,0.18,-46.48,7.27,36.31
14058,-8.09,-4.07,5.20,-0.45,0.22,0.56,-46.48,7.27,36.31
14069,-8.09,-4.07,5.20,-0.45,0.22,0.56,-46.48,7.27,36.31
14080,-8.20,-2.15,5.22,-0.21,0.32,0.76,-46.48,7.27,36.31
14091,-8.18,1.24,4.65,-0.07,0.34,0.82,-46.48,7.27,36.31
14102,-8.18,1.24,4.65,-0.07,0.34,0.82,-46.48,7.27,36.31
14113,-8.39,3.81,4.98,0.12,0.15,0.61,-46.48,7.27,36.31
14124,-8.39,3.81,4.98,0.12,0.15,0.61,-46.48,7.27,36.31
14135,-8.03,2.11,7.81,-0.20,-0.04,-0.06,-46.48,7.27,36.31
14146,-8.03,2.11,7.81,-0.20,-0.04,-0.06,-46.48,7.27,36.31
14250,-8.48,-0.16,4.67,-0.28,0.09,0.36,-47.84,6.03,35.67
14261,-8.48,-0.16,4.67,-0.28,0.09,0.36,-47.84,6.03,35.67
14272,-8.44,1.04,5.13,-0.01,-0.01,0.24,-47.61,5.56,36.78
14283,-8.44,1.04,5.13,-0.01,-0.01,0.24,-47.61,5.56,36.78
14294,-7.83,-0.66,5.53,-0.13,-0.09,-0.20,-47.61,5.56,36.78
14305,-7.83,-0.66,5.53,-0.13,-0.09,-0.20,-47.61,5.56,36.78
14316,-7.71,-2.60,5.60,-0.07,-0.10,-0.27,-47.61,5.56,36.78
14327,-7.71,-2.60,5.60,-0.07,-0.10,-0.27,-47.61,5.56,36.78
14338,-8.04,-1.38,5.90,0.20,-0.07,0.01,-47.61,5.56,36.78
14349,-8.04,-1.38,5.90,0.20,-0.07,0.01,-47.61,5.56,36.78
14360,-8.05,-0.93,6.01,0.13,-0.00,0.04,-47.61,5.56,36.78
14371,-8.12,-1.03,6.31,-0.16,0.08,-0.04,-47.61,5.56,36.78
14382,-8.12,-1.03,6.31,-0.16,0.08,-0.04,-47.61,5.56,36.78
14484,-8.00,-1.31,5.42,0.15,0.04,-0.00,-47.16,5.56,36.46
14494,-8.10,-1.02,5.79,0.24,0.06,0.01,-47.16,5.56,36.46
14505,-8.10,-1.02,5.79,0.24,0.06,0.01,-47.16,5.56,36.46
14516,-7.95,-1.32,5.88,0.03,0.10,-0.03,-47.16,5.56,36.46
14527,-7.95,-1.32,5.88,0.03,0.10,-0.03,-47.16,5.56,36.46
14538,-7.46,-1.88,5.44,0.01,0.18,0.01,-46.25,4.94,34.24
14549,-7.46,-1.88,5.44,0.01,0.18,0.01,-46.25,4.94,34.24
14560,-8.87,-1.77,3.81,0.21,0.23,0.16,-46.25,4.94,34.24
14571,-8.47,-0.21,5.93,0.13,-0.01,0.24,-46.25,4.94,34.24
14582,-8.47,-0.21,5.93,0.13,-0.01,0.24,-46.25,4.94,34.24
14593,-8.23,-0.16,5.68,-0.15,-0.02,0.08,-46.25,4.94,34.24
14604,-8.23,-0.16,5.68,-0.15,-0.02,0.08,-46.25,4.94,34.24
14615,-8.11,-1.33,5.56,-0.30,0.01,-0.09,-46.25,4.94,34.24
14626,-8.11,-1.33,5.56,-0.30,0.01,-0.09,-46.25,4.94,34.24
14637,-8.03,-2.39,6.06,-0.18,0.05,-0.02,-46.25,4.94,34.24
14648,-8.03,-2.39,6.06,-0.18,0.05,-0.02,-46.25,4.94,34.24
14659,-8.02,-1.21,5.78,0.06,0.14,0.33,-46.02,5.40,35.99
14670,-8.02,-1.21,5.78,0.06,0.14,0.33,-46.02,5.40,35.99
14772,-7.99,-0.87,4.81,-0.20,-0.16,0.32,-46.02,5.40,35.99
14782,-7.99,-0.87,4.81,-0.20,-0.16,0.32,-46.02,5.40,35.99
14793,-7.90,-0.43,5.81,-0.16,-0.24,0.29,-47.38,6.03,35.67
14804,-7.90,-0.43,5.81,-0.16,-0.24,0.29,-47.38,6.03,35.67
14815,-8.22,-1.05,5.45,-0.13,-0.17,0.16,-47.38,6.03,35.67
14826,-8.22,-1.05,5.45,-0.13,-0.17,0.16,-47.38,6.03,35.67
14837,-8.24,-1.53,4.89,-0.24,-0.18,-0.05,-47.38,6.03,35.67
14848,-8.24,-1.53,4.89,-0.24,-0.18,-0.05,-47.38,6.03,35.67
14859,-7.76,-1.74,4.97,-0.37,-0.22,-0.11,-47.38,6.03,35.67
14870,-7.76,-1.74,4.97,-0.37,-0.22,-0.11,-47.38,6.03,35.67
14881,-8.13,-2.16,5.07,-0.64,-0.40,-0.04,-47.38,6.03,35.67
14892,-9.00,-1.19,5.38,-0.69,-0.46,0.09,-47.38,6.03,35.67
14903,-9.00,-1.19,5.38,-0.69,-0.46,0.09,-47.38,6.03,35.67
15005,-7.93,-2.00,6.26,0.14,-0.31,-0.26,-43.30,4.78,36.94
15015,-7.89,-1.53,6.51,0.24,-0.18,-0.17,-43.30,4.78,36.94
15026,-7.89,-1.53,6.51,0.24,-0.18,-0.17,-43.30,4.78,36.94
15037,-8.17,-0.92,7.18,0.20,-0.01,-0.12,-43.53,4.62,36.78
15048,-8.17,-0.92,7.18,0.20,-0.01,-0.12,-43.53,4.62,36.78
15059,-7.84,-1.84,5.48,0.04,0.16,-0.18,-43.53,4.62,36.78
15070,-7.84,-1.84,5.48,0.04,0.16,-0.18,-43.53,4.62,36.78
15081,-8.09,-2.13,5.47,0.03,0.17,-0.12,-43.53,4.62,36.78
15092,-7.96,-1.31,5.06,0.15,0.17,0.05,-43.53,4.62,36.78
15103,-7.96,-1.31,5.06,0.15,0.17,0.05,-43.53,4.62,36.78
15114,-7.94,-1.24,6.17,0.30,0.12,0.11,-43.53,4.62,36.78
15125,-7.94,-1.24,6.17,0.30,0.12,0.11,-43.53,4.62,36.78
15136,-7.70,-1.08,5.91,0.30,0.18,0.14,-43.53,4.62,36.78
15147,-7.70,-1.08,5.91,0.30,0.18,0.14,-43.53,4.62,36.78
15158,-8.01,-1.16,6.26,0.27,0.20,0.11,-43.53,4.62,36.78
15169,-8.01,-1.16,6.26,0.27,0.20,0.11,-43.53,4.62,36.78
15180,-7.73,-0.88,5.91,0.25,0.26,0.12,-44.44,5.56,36.15
15191,-7.98,-1.19,5.73,0.23,0.32,0.11,-44.44,5.56,36.15
15295,-7.75,-0.14,5.14,-0.23,0.33,0.08,-48.06,5.87,36.46
15305,-7.75,-0.14,5.14,-0.23,0.33,0.08,-48.06,5.87,36.46
15316,-8.44,-1.20,5.40,0.05,0.25,0.09,-48.06,5.87,36.46
15327,-8.44,-1.20,5.40,0.05,0.25,0.09,-48.06,5.87,36.46
15338,-7.85,-0.87,5.31,0.25,0.20,0.20,-48.06,5.87,36.46
15349,-7.85,-0.87,5.31,0.25,0.20,0.20,-48.06,5.87,36.46
15360,-7.71,-0.64,5.48,0.12,0.12,0.21,-48.06,5.87,36.46
15371,-7.80,0.01,5.72,-0.05,0.01,0.23,-48.06,5.87,36.46
15382,-7.80,0.01,5.72,-0.05,0.01,0.23,-48.06,5.87,36.46
15393,-7.68,-0.29,5.30,-0.22,-0.06,0.20,-48.06,5.87,36.46
15404,-7.68,-0.29,5.30,-0.22,-0.06,0.20,-48.06,5.87,36.46
15415,-8.23,-1.13,5.49,-0.31,-0.14,0.15,-46.02,6.34,34.40
15426,-8.23,-1.13,5.49,-0.31,-0.14,0.15,-46.02,6.34,34.40
15530,-7.32,-1.78,5.31,-0.68,-0.69,-0.31,-46.02,6.34,34.40
15540,-8.36,-2.01,4.97,-0.62,-0.63,-0.34,-44.44,3.69,36.78
15551,-8.36,-2.01,4.97,-0.62,-0.63,-0.34,-44.44,3.69,36.78
15562,-9.86,-0.86,4.25,-0.54,-0.58,-0.36,-44.44,3.69,36.78
15573,-8.32,-1.82,5.35,0.01,-0.42,-0.43,-44.44,3.69,36.78
15584,-8.32,-1.82,5.35,0.01,-0.42,-0.43,-44.44,3.69,36.78
15595,-8.01,-2.94,5.84,0.12,-0.32,-0.31,-44.44,3.69,36.78
15606,-8.01,-2.94,5.84,0.12,-0.32,-0.31,-44.44,3.69,36.78
15617,-8.50,-2.22,6.87,0.13,-0.23,-0.08,-44.44,3.69,36.78
15628,-8.50,-2.22,6.87,0.13,-0.23,-0.08,-44.44,3.69,36.78
15639,-8.25,-2.30,7.11,0.03,0.06,-0.00,-44.44,3.69,36.78
15650,-8.25,-2.30,7.11,0.03,0.06,-0.00,-44.44,3.69,36.78
15661,-8.21,-1.23,6.21,-0.10,0.34,0.07,-44.44,3.69,36.78
15801,-7.58,-0.28,5.22,0.21,0.40,0.32,-48.74,4.16,36.31
15811,-7.58,-0.28,5.22,0.21,0.40,0.32,-48.74,4.16,36.31
15822,-7.64,-0.45,6.48,0.23,0.21,0.27,-48.74,4.16,36.31
15833,-7.67,0.45,5.16,0.35,0.20,0.27,-48.74,4.16,36.31
15849,-7.67,0.45,5.16,0.35,0.20,0.27,-48.74,4.16,36.31
15855,-7.60,0.14,5.24,0.22,0.08,0.13,-48.74,4.16,36.31
15866,-7.60,0.14,5.24,0.22,0.08,0.13,-48.74,4.16,36.31
15877,-7.25,-1.37,4.87,-0.03,-0.06,0.09,-48.74,4.16,36.31
15888,-7.25,-1.37,4.87,-0.03,-0.06,0.09,-48.74,4.16,36.31
15899,-7.30,-0.68,5.30,-0.26,-0.24,0.25,-48.74,4.16,36.31
15910,-7.30,-0.68,5.30,-0.26,-0.24,0.25,-48.74,4.16,36.31
15921,-7.54,-0.68,5.59,-0.48,-0.38,0.13,-45.12,4.78,35.03
15932,-8.40,-1.46,5.80,-0.63,-0.46,-0.04,-45.12,4.78,35.03
16035,-9.09,-2.46,6.01,-0.00,-0.63,-0.37,-45.12,4.78,35.03
16045,-9.09,-2.46,6.01,-0.00,-0.63,-0.37,-45.12,4.78,35.03
16056,-8.37,-2.65,6.01,0.14,-0.34,-0.30,-43.53,2.13,37.42
16067,-8.37,-2.65,6.01,0.14,-0.34,-0.30,-43.53,2.13,37.42
16078,-7.95,-1.09,5.12,0.20,-0.16,-0.11,-43.53,2.13,37.42
16089,-7.95,-1.09,5.12,0.20,-0.16,-0.11,-43.53,2.13,37.42
16100,-8.16,-1.37,6.28,0.17,-0.16,-0.18,-43.53,2.13,37.42
16111,-8.16,-1.37,6.28,0.17,-0.16,-0.18,-43.53,2.13,37.42
16122,-8.01,-2.67,6.55,0.20,-0.03,-0.20,-43.53,2.13,37.42
16133,-8.01,-1.93,6.58,0.19,0.17,-0.06,-43.53,2.13,37.42
16144,-8.01,-1.93,6.58,0.19,0.17,-0.06,-43.53,2.13,37.42
16155,-8.27,-2.12,6.22,0.08,0.40,-0.04,-43.53,2.13,37.42
16166,-8.27,-2.12,6.22,0.08,0.40,-0.04,-43.53,2.13,37.42
16177,-7.96,-0.84,7.31,0.01,0.52,0.15,-41.49,4.16,37.58
16188,-7.96,-0.84,7.31,0.01,0.52,0.15,-41.49,4.16,37.58
16199,-7.76,-1.07,5.43,-0.15,0.65,0.16,-41.49,4.16,37.58
16210,-7.76,-1.07,5.43,-0.15,0.65,0.16,-41.49,4.16,37.58
16221,-8.09,-1.89,5.35,-0.01,0.55,0.21,-41.49,4.16,37.58
16323,-7.82,-1.43,6.51,0.17,0.12,0.12,-45.57,4.78,36.62
16333,-8.14,-0.67,5.75,0.13,0.06,0.24,-45.57,4.78,36.62
16344,-8.14,-0.67,5.75,0.13,0.06,0.24,-45.57,4.78,36.62
16355,-7.65,-0.09,4.92,-0.02,-0.04,0.17,-45.57,4.78,36.62
16366,-7.65,-0.09,4.92,-0.02,-0.04,0.17,-45.57,4.78,36.62
16377,-7.61,-1.02,5.11,-0.19,-0.23,0.03,-45.57,4.78,36.62
16388,-7.61,-1.02,5.11,-0.19,-0.23,0.03,-45.57,4.78,36.62
16399,-7.25,-1.49,5.38,-0.27,-0.32,0.04,-45.57,4.78,36.62
16410,-7.25,-1.49,5.38,-0.27,-0.32,0.04,-45.57,4.78,36.62
16421,-7.67,-0.69,5.59,-0.41,-0.43,0.05,-45.57,4.78,36.62
16432,-7.42,-0.28,4.47,-0.63,-0.60,-0.14,-45.57,4.78,36.62
16443,-7.42,-0.28,4.47,-0.63,-0.60,-0.14,-43.53,4.00,35.51
16454,-9.24,-2.07,6.03,-0.48,-0.75,-0.43,-43.53,4.00,35.51
16556,-8.17,-3.62,5.78,-0.08,-0.52,-0.36,-40.58,0.73,37.26
16566,-8.17,-3.62,5.78,-0.08,-0.52,-0.36,-40.58,0.73,37.26
16577,-8.59,-1.70,7.69,0.28,-0.29,-0.01,-40.58,0.73,37.26
16588,-8.59,-1.70,7.69,0.28,-0.29,-0.01,-40.58,0.73,37.26
16599,-8.11,-1.16,6.78,0.22,0.09,-0.05,-40.58,0.73,37.26
16610,-8.11,-1.16,6.78,0.22,0.09,-0.05,-40.58,0.73,37.26
16621,-8.02,-1.94,6.56,-0.05,0.34,-0.08,-40.58,0.73,37.26
16632,-8.02,-1.94,6.56,-0.05,0.34,-0.08,-40.58,0.73,37.26
16643,-7.83,-2.13,4.77,-0.34,0.52,0.01,-40.58,0.73,37.26
16654,-8.07,-2.51,5.26,-0.26,0.48,0.13,-40.58,0.73,37.26
16665,-8.07,-2.51,5.26,-0.26,0.48,0.13,-40.58,0.73,37.26
16676,-8.22,-1.64,5.49,-0.03,0.51,0.28,-43.98,2.75,36.78
16687,-8.22,-1.64,5.49,-0.03,0.51,0.28,-43.98,2.75,36.78
16698,-8.39,-0.55,6.04,0.14,0.55,0.39,-43.98,2.75,36.78
16709,-8.39,-0.55,6.04,0.14,0.55,0.39,-43.98,2.75,36.78
16720,-7.79,0.01,5.47,0.09,0.54,0.39,-43.98,2.75,36.78
16731,-7.79,0.01,5.47,0.09,0.54,0.39,-43.98,2.75,36.78
16844,-8.77,0.78,3.85,0.10,0.49,0.32,-43.98,2.75,36.78
16846,-7.08,-0.79,5.83,-0.14,-0.21,0.26,-45.12,2.60,37.26
16856,-7.72,-0.81,5.68,-0.25,-0.29,0.13,-45.12,2.60,37.26
16867,-7.72,-0.81,5.68,-0.25,-0.29,0.13,-45.12,2.60,37.26
16878,-7.76,-1.75,5.28,-0.30,-0.30,-0.08,-45.12,2.60,37.26
16889,-7.76,-1.75,5.28,-0.30,-0.30,-0.08,-45.12,2.60,37.26
16900,-7.49,-1.63,5.35,-0.34,-0.38,-0.08,-45.12,2.60,37.26
16911,-7.49,-1.63,5.35,-0.34,-0.38,-0.08,-45.12,2.60,37.26
16922,-7.74,-0.98,5.09,-0.40,-0.52,-0.13,-45.12,2.60,37.26
16933,-8.21,-1.87,4.89,-0.38,-0.62,-0.33,-43.98,2.75,36.15
16944,-8.21,-1.87,4.89,-0.38,-0.62,-0.33,-43.98,2.75,36.15
16955,-7.57,-2.67,5.78,-0.20,-0.58,-0.45,-43.98,2.75,36.15
16966,-7.57,-2.67,5.78,-0.20,-0.58,-0.45,-43.98,2.75,36.15
17068,-8.45,-2.19,6.20,0.13,-0.21,-0.19,-39.90,0.57,37.74
17078,-8.11,-1.71,7.00,0.07,0.04,-0.10,-39.90,0.57,37.74
17089,-8.11,-1.71,7.00,0.07,0.04,-0.10,-39.90,0.57,37.74
17100,-8.04,-2.25,6.92,-0.24,0.31,-0.10,-39.90,0.57,37.74
17111,-8.04,-2.25,6.92,-0.24,0.31,-0.10,-39.90,0.57,37.74
17122,-7.48,-2.49,5.70,-0.36,0.49,-0.02,-39.90,0.57,37.74
17133,-7.86,-2.36,5.94,-0.16,0.51,0.18,-39.90,0.57,37.74
17144,-7.86,-2.36,5.94,-0.16,0.51,0.18,-39.90,0.57,37.74
17155,-7.85,-1.73,6.12,-0.01,0.55,0.38,-39.90,0.57,37.74
17166,-7.85,-1.73,6.12,-0.01,0.55,0.38,-39.90,0.57,37.74
17177,-7.71,-0.84,5.58,0.19,0.53,0.46,-43.53,0.26,37.42
17188,-7.71,-0.84,5.58,0.19,0.53,0.46,-43.53,0.26,37.42
17199,-8.09,-0.79,6.12,0.22,0.41,0.37,-43.53,0.26,37.42
17210,-8.09,-0.79,6.12,0.22,0.41,0.37,-43.53,0.26,37.42
17221,-8.11,-0.19,5.67,0.23,0.40,0.34,-43.53,0.26,37.42
17232,-8.11,-0.19,5.67,0.23,0.40,0.34,-43.53,0.26,37.42
17243,-7.11,-0.79,5.10,0.33,0.41,0.30,-43.53,0.26,37.42
17254,-7.75,-0.28,6.37,0.15,0.26,0.25,-43.53,0.26,37.42
17359,-7.40,-1.15,5.10,-0.55,-0.46,-0.05,-44.21,2.29,35.67
17369,-7.40,-1.15,5.10,-0.55,-0.46,-0.05,-44.21,2.29,35.67
17380,-8.27,-1.43,5.44,-0.69,-0.51,-0.25,-44.21,2.29,35.67
17391,-8.27,-1.43,5.44,-0.69,-0.51,-0.25,-44.21,2.29,35.67
17402,-7.83,-1.91,5.82,-0.51,-0.42,-0.40,-44.21,2.29,35.67
17413,-7.76,-2.18,5.17,-0.31,-0.32,-0.44,-44.21,2.29,35.67
17424,-7.76,-2.18,5.17,-0.31,-0.32,-0.44,-44.21,2.29,35.67
17435,-8.11,-2.27,4.46,-0.21,-0.37,-0.41,-42.17,0.88,37.42
17446,-8.11,-2.27,4.46,-0.21,-0.37,-0.41,-42.17,0.88,37.42
17549,-7.80,-2.15,5.95,0.05,0.32,-0.04,-42.17,0.88,37.42
17560,-7.74,-2.00,5.01,-0.08,0.48,0.05,-40.58,0.10,38.21
17571,-7.74,-2.00,5.01,-0.08,0.48,0.05,-40.58,0.10,38.21
17582,-8.05,-2.40,5.02,-0.01,0.54,0.15,-40.58,0.10,38.21
17593,-8.05,-2.40,5.02,-0.01,0.54,0.15,-40.58,0.10,38.21
17604,-8.00,-1.67,5.55,0.06,0.51,0.30,-40.58,0.10,38.21
17615,-7.88,-0.97,6.40,0.15,0.53,0.41,-40.58,0.10,38.21
17626,-7.88,-0.97,6.40,0.15,0.53,0.41,-40.58,0.10,38.21
17637,-7.70,-0.92,5.91,0.08,0.63,0.41,-40.58,0.10,38.21
17648,-7.70,-0.92,5.91,0.08,0.63,0.41,-40.58,0.10,38.21
17659,-7.53,0.62,4.19,0.06,0.62,0.39,-40.58,0.10,38.21
17670,-7.53,0.62,4.19,0.06,0.62,0.39,-40.58,0.10,38.21
17681,-8.01,-0.81,5.71,0.28,0.37,0.23,-44.44,1.82,35.83
17692,-8.01,-0.81,5.71,0.28,0.37,0.23,-44.44,1.82,35.83
17703,-7.53,-1.66,5.99,0.51,0.29,0.23,-44.44,1.82,35.83
17714,-7.62,-0.29,4.82,0.36,0.20,0.31,-44.44,1.82,35.83
17725,-7.62,-0.29,4.82,0.36,0.20,0.31,-44.44,1.82,35.83
17736,-7.62,-1.08,5.81,0.13,-0.00,0.18,-44.44,1.82,35.83
17881,-7.78,-2.82,4.58,-0.34,-0.70,-0.46,-44.89,1.82,35.19
17891,-7.78,-2.82,4.58,-0.34,-0.70,-0.46,-44.89,1.82,35.19
17902,-9.21,-2.60,6.24,0.05,-0.75,-0.43,-44.89,1.82,35.19
17913,-9.21,-2.60,6.24,0.05,-0.75,-0.43,-44.89,1.82,35.19
17924,-8.49,-3.00,6.05,0.39,-0.42,-0.37,-44.89,1.82,35.19
17935,-8.01,-1.68,5.61,0.37,-0.22,-0.15,-41.49,1.04,37.90
17946,-8.01,-1.68,5.61,0.37,-0.22,-0.15,-41.49,1.04,37.90
17957,-7.88,-2.04,5.94,0.31,-0.13,-0.20,-41.49,1.04,37.90
17968,-7.88,-2.04,5.94,0.31,-0.13,-0.20,-41.49,1.04,37.90
17979,-8.73,-3.10,6.82,0.22,-0.01,-0.22,-41.49,1.04,37.90
17990,-8.73,-3.10,6.82,0.22,-0.01,-0.22,-41.49,1.04,37.90
18001,-8.16,-3.06,6.42,0.10,0.31,-0.02,-41.49,1.04,37.90
18012,-8.16,-3.06,6.42,0.10,0.31,-0.02,-41.49,1.04,37.90
18116,-7.37,0.11,5.10,0.29,0.54,0.52,-41.26,-0.05,37.42
18126,-7.37,0.11,5.10,0.29,0.54,0.52,-41.26,-0.05,37.42
18137,-7.51,-0.04,5.41,0.25,0.32,0.36,-41.26,-0.05,37.42
18148,-7.51,-0.04,5.41,0.25,0.32,0.36,-41.26,-0.05,37.42
18159,-7.46,-0.06,5.46,0.27,0.18,0.22,-41.26,-0.05,37.42
18170,-7.46,-0.06,5.46,0.27,0.18,0.22,-41.26,-0.05,37.42
18181,-7.11,-0.74,5.44,0.19,0.05,0.18,-41.26,-0.05,37.42
18192,-7.11,-0.74,5.44,0.19,0.05,0.18,-41.26,-0.05,37.42
18203,-7.21,-1.44,5.55,0.04,-0.07,0.22,-45.57,2.91,35.67
18214,-8.14,-1.50,5.37,-0.09,-0.20,0.22,-45.57,2.91,35.67
18225,-8.14,-1.50,5.37,-0.09,-0.20,0.22,-45.57,2.91,35.67
18236,-7.47,-1.11,5.23,-0.10,-0.24,0.13,-45.57,2.91,35.67
18247,-7.47,-1.11,5.23,-0.10,-0.24,0.13,-45.57,2.91,35.67
18349,-8.38,-2.48,4.75,-0.21,-0.29,-0.44,-41.49,1.04,37.58
18359,-8.17,-1.41,4.37,-0.01,-0.30,-0.36,-41.49,1.04,37.58
18370,-8.17,-1.41,4.37,-0.01,-0.30,-0.36,-41.49,1.04,37.58
18381,-8.08,-1.64,4.53,0.11,-0.39,-0.44,-41.49,1.04,37.58
18392,-8.08,-1.64,4.53,0.11,-0.39,-0.44,-41.49,1.04,37.58
18403,-8.23,-3.30,6.39,0.30,-0.42,-0.40,-41.49,1.04,37.58
18414,-8.23,-2.51,6.99,0.33,-0.20,-0.15,-41.49,1.04,37.58
18425,-8.23,-2.51,6.99,0.33,-0.20,-0.15,-41.49,1.04,37.58
18436,-8.44,-2.45,6.65,0.28,0.14,-0.07,-40.81,0.88,38.05
18447,-8.44,-2.45,6.65,0.28,0.14,-0.07,-40.81,0.88,38.05
18458,-8.48,-2.97,6.39,0.09,0.43,0.03,-40.81,0.88,38.05
18469,-8.48,-2.97,6.39,0.09,0.43,0.03,-40.81,0.88,38.05
18480,-7.49,-1.70,5.79,-0.06,0.66,0.27,-40.81,0.88,38.05
18491,-7.49,-1.70,5.79,-0.06,0.66,0.27,-40.81,0.88,38.05
18502,-7.69,-0.80,5.26,-0.23,0.69,0.34,-40.81,0.88,38.05
18513,-7.69,-0.80,5.26,-0.23,0.69,0.34,-40.81,0.88,38.05
18524,-7.81,-1.05,5.80,0.11,0.56,0.38,-40.81,0.88,38.05
18626,-8.12,-1.39,6.48,-0.02,-0.01,0.34,-44.44,0.88,36.15
18636,-7.57,-0.47,5.38,-0.14,-0.01,0.24,-44.44,0.88,36.15
18647,-7.57,-0.47,5.38,-0.14,-0.01,0.24,-44.44,0.88,36.15
18658,-7.37,-1.38,5.26,-0.18,-0.10,-0.00,-44.44,0.88,36.15
18669,-7.37,-1.38,5.26,-0.18,-0.10,-0.00,-44.44,0.88,36.15
18680,-6.73,-1.51,5.15,-0.24,-0.27,-0.02,-44.44,0.88,36.15
18691,-6.73,-1.51,5.15,-0.24,-0.27,-0.02,-44.44,0.88,36.15
18702,-7.66,-0.89,4.83,-0.51,-0.49,-0.05,-43.53,3.07,35.83
18713,-7.66,-0.89,4.83,-0.51,-0.49,-0.05,-43.53,3.07,35.83
18724,-8.03,-2.08,5.25,-0.77,-0.65,-0.28,-43.53,3.07,35.83
18735,-8.55,-2.56,6.02,-0.61,-0.56,-0.40,-43.53,3.07,35.83
18746,-8.55,-2.56,6.02,-0.61,-0.56,-0.40,-43.53,3.07,35.83
18757,-8.55,-1.89,5.67,-0.31,-0.35,-0.39,-43.53,3.07,35.83
18859,-8.60,-2.56,7.82,0.30,-0.14,-0.18,-42.17,0.88,36.15
18869,-8.60,-2.56,7.82,0.30,-0.14,-0.18,-42.17,0.88,36.15
18880,-7.99,-2.90,6.85,0.19,0.34,-0.00,-42.17,0.88,36.15
18891,-7.99,-2.90,6.85,0.19,0.34,-0.00,-42.17,0.88,36.15
18907,-7.84,-2.88,6.14,0.07,0.64,0.22,-42.17,0.88,36.15
18913,-7.84,-2.88,6.14,0.07,0.64,0.22,-42.17,0.88,36.15
18924,-8.26,-1.70,5.62,-0.09,0.77,0.36,-42.17,0.88,36.15
18935,-7.82,-1.64,4.69,-0.09,0.75,0.46,-44.21,0.73,36.94
18946,-7.82,-1.64,4.69,-0.09,0.75,0.46,-44.21,0.73,36.94
18957,-7.64,-0.04,5.34,0.06,0.64,0.58,-44.21,0.73,36.94
18968,-7.64,-0.04,5.34,0.06,0.64,0.58,-44.21,0.73,36.94
18979,-7.69,0.21,5.14,0.11,0.54,0.49,-44.21,0.73,36.94
18990,-7.69,0.21,5.14,0.11,0.54,0.49,-44.21,0.73,36.94
19001,-7.65,-0.11,5.61,0.33,0.41,0.36,-44.21,0.73,36.94
19012,-7.65,-0.11,5.61,0.33,0.41,0.36,-44.21,0.73,36.94
19023,-7.58,-1.08,5.37,0.34,0.34,0.28,-44.21,0.73,36.94
19034,-7.58,-1.08,5.37,0.34,0.34,0.28,-44.21,0.73,36.94
19045,-7.69,-0.72,5.10,0.16,0.16,0.35,-44.21,0.73,36.94
19147,-8.45,-1.45,5.77,-0.61,-0.55,-0.16,-44.89,1.20,36.46
19157,-8.07,-2.19,5.09,-0.63,-0.58,-0.36,-44.89,1.20,36.46
19168,-8.07,-2.19,5.09,-0.63,-0.58,-0.36,-44.89,1.20,36.46
19179,-8.92,-3.17,5.43,-0.30,-0.47,-0.50,-44.89,1.20,36.46
19190,-8.92,-3.17,5.43,-0.30,-0.47,-0.50,-44.89,1.20,36.46
19201,-8.75,-2.65,4.74,-0.12,-0.32,-0.45,-42.85,-0.83,36.62
19212,-8.75,-2.65,4.74,-0.12,-0.32,-0.45,-42.85,-0.83,36.62
19223,-8.29,-1.60,4.03,-0.08,-0.26,-0.35,-42.85,-0.83,36.62
19234,-8.29,-1.60,4.03,-0.08,-0.26,-0.35,-42.85,-0.83,36.62
19245,-8.35,-1.89,4.81,0.07,-0.38,-0.39,-42.85,-0.83,36.62
19256,-7.98,-2.78,4.94,0.23,-0.38,-0.33,-42.85,-0.83,36.62
19267,-7.98,-2.78,4.94,0.23,-0.38,-0.33,-42.85,-0.83,36.62
19278,-8.56,-2.52,7.00,0.32,-0.30,-0.13,-42.85,-0.83,36.62
19380,-8.25,-1.26,5.61,0.18,0.52,0.18,-39.90,-0.05,37.42
19390,-8.25,-1.26,5.61,0.18,0.52,0.18,-39.90,-0.05,37.42
19401,-7.92,-1.97,6.62,0.31,0.58,0.25,-39.90,-0.05,37.42
19412,-7.92,-1.97,6.62,0.31,0.58,0.25,-39.90,-0.05,37.42
19423,-7.50,-0.49,4.66,0.20,0.69,0.44,-39.90,-0.05,37.42
19434,-7.50,-0.49,4.66,0.20,0.69,0.44,-39.90,-0.05,37.42
19445,-7.82,0.19,5.88,0.17,0.51,0.41,-39.90,-0.05,37.42
19456,-7.31,-0.43,4.31,0.11,0.43,0.29,-44.44,1.51,35.51
19467,-7.31,-0.43,4.31,0.11,0.43,0.29,-44.44,1.51,35.51
19478,-7.50,-0.48,5.51,0.19,0.21,0.27,-44.44,1.51,35.51
19489,-7.50,-0.48,5.51,0.19,0.21,0.27,-44.44,1.51,35.51
19500,-7.47,-1.66,5.23,0.09,0.07,0.21,-44.44,1.51,35.51
19511,-7.47,-1.66,5.23,0.09,0.07,0.21,-44.44,1.51,35.51
19522,-7.78,-0.85,5.34,-0.04,0.05,0.30,-44.44,1.51,35.51
19533,-7.78,-0.85,5.34,-0.04,0.05,0.30,-44.44,1.51,35.51
19544,-7.32,-1.65,4.69,-0.12,-0.04,0.21,-44.44,1.51,35.51
19555,-7.32,-1.65,4.69,-0.12,-0.04,0.21,-44.44,1.51,35.51
19659,-8.97,-2.81,4.07,-0.41,-0.31,-0.53,-44.66,1.35,34.40
19669,-8.97,-2.81,4.07,-0.41,-0.31,-0.53,-44.66,1.35,34.40
19680,-8.36,-2.34,4.47,-0.03,-0.33,-0.41,-44.66,1.35,34.40
19691,-8.36,-2.34,4.47,-0.03,-0.33,-0.41,-44.66,1.35,34.40
19702,-7.85,-1.75,4.90,0.19,-0.42,-0.37,-40.13,-0.83,37.58
19713,-7.85,-1.75,4.90,0.19,-0.42,-0.37,-40.13,-0.83,37.58
19724,-8.13,-1.85,5.78,0.34,-0.47,-0.39,-40.13,-0.83,37.58
19735,-8.13,-1.85,5.78,0.34,-0.47,-0.39,-40.13,-0.83,37.58
19746,-8.30,-2.49,7.08,0.32,-0.34,-0.38,-40.13,-0.83,37.58
19757,-8.52,-2.85,7.46,0.23,0.03,-0.23,-40.13,-0.83,37.58
19768,-8.52,-2.85,7.46,0.23,0.03,-0.23,-40.13,-0.83,37.58
19779,-8.12,-2.93,7.56,0.01,0.41,0.02,-40.13,-0.83,37.58
19790,-8.12,-2.93,7.56,0.01,0.41,0.02,-40.13,-0.83,37.58
19935,-7.50,0.14,5.10,0.21,0.38,0.22,-43.07,-0.68,37.74
19945,-7.13,-2.06,4.83,0.12,0.12,0.19,-43.07,-0.68,37.74
19956,-8.11,-0.30,5.35,-0.08,-0.12,0.42,-43.30,1.66,36.31
19967,-8.11,-0.30,5.35,-0.08,-0.12,0.42,-43.30,1.66,36.31
19978,-7.97,-1.18,5.49,-0.07,-0.16,0.19,-43.30,1.66,36.31
19989,-7.97,-1.18,5.49,-0.07,-0.16,0.19,-43.30,1.66,36.31
20000,-7.79,-1.40,5.53,-0.11,-0.18,0.06,-43.30,1.66,36.31
20011,-7.79,-1.40,5.53,-0.11,-0.18,0.06,-43.30,1.66,36.31
20022,-8.23,-0.71,5.30,-0.19,-0.24,0.10,-43.30,1.66,36.31
20033,-8.23,-0.71,5.30,-0.19,-0.24,0.10,-43.30,1.66,36.31
20044,-7.01,-0.75,4.36,-0.47,-0.42,-0.03,-43.30,1.66,36.31
20055,-7.01,-0.75,4.36,-0.47,-0.42,-0.03,-43.30,1.66,36.31
20066,-8.64,-0.80,4.67,-0.66,-0.67,-0.28,-43.30,1.66,36.31
20170,-8.18,-1.25,5.11,0.20,-0.35,-0.25,-41.94,0.73,37.58
20180,-8.10,-2.07,6.65,0.26,-0.30,-0.30,-41.94,0.73,37.58
20191,-8.10,-2.07,6.65,0.26,-0.30,-0.30,-41.94,0.73,37.58
20202,-8.50,-2.50,7.20,0.26,-0.07,-0.22,-40.35,-0.99,37.42
20213,-8.50,-2.50,7.20,0.26,-0.07,-0.22,-40.35,-0.99,37.42
20224,-8.46,-3.28,7.65,0.14,0.27,-0.06,-40.35,-0.99,37.42
20235,-8.46,-3.28,7.65,0.14,0.27,-0.06,-40.35,-0.99,37.42
20246,-8.24,-2.47,5.97,0.06,0.64,0.20,-40.35,-0.99,37.42
20257,-8.09,-0.75,4.77,0.09,0.79,0.37,-40.35,-0.99,37.42
20268,-8.09,-0.75,4.77,0.09,0.79,0.37,-40.35,-0.99,37.42
20279,-7.85,-0.41,5.00,0.12,0.70,0.41,-40.35,-0.99,37.42
20290,-7.85,-0.41,5.00,0.12,0.70,0.41,-40.35,-0.99,37.42
20301,-8.26,-1.52,5.37,0.19,0.60,0.43,-40.35,-0.99,37.42
20403,-7.79,-1.03,5.23,-0.06,-0.13,0.33,-43.53,0.88,35.51
20413,-7.79,-1.03,5.23,-0.06,-0.13,0.33,-43.53,0.88,35.51
20424,-8.45,-1.16,5.44,-0.11,-0.28,0.33,-43.53,0.88,35.51
20435,-8.45,-1.16,5.44,-0.11,-0.28,0.33,-43.53,0.88,35.51
20446,-7.36,-1.15,5.40,-0.14,-0.30,0.08,-43.53,0.88,35.51
20457,-7.92,-0.62,4.61,-0.37,-0.40,-0.13,-44.44,-0.05,35.83
20468,-7.92,-0.62,4.61,-0.37,-0.40,-0.13,-44.44,-0.05,35.83
20479,-7.90,-0.39,4.99,-0.70,-0.62,-0.32,-44.44,-0.05,35.83
20490,-7.90,-0.39,4.99,-0.70,-0.62,-0.32,-44.44,-0.05,35.83
20501,-8.66,-1.79,5.84,-0.77,-0.78,-0.56,-44.44,-0.05,35.83
20512,-8.66,-1.79,5.84,-0.77,-0.78,-0.56,-44.44,-0.05,35.83
20523,-8.47,-3.36,5.97,-0.32,-0.61,-0.66,-44.44,-0.05,35.83
20534,-8.47,-3.36,5.97,-0.32,-0.61,-0.66,-44.44,-0.05,35.83
20545,-8.36,-2.80,4.55,-0.04,-0.35,-0.53,-44.44,-0.05,35.83
20556,-8.30,-2.41,5.62,0.15,-0.31,-0.37,-44.44,-0.05,35.83
20567,-8.30,-2.41,5.62,0.15,-0.31,-0.37,-44.44,-0.05,35.83
20578,-8.10,-1.69,4.77,0.18,-0.27,-0.25,-41.71,-0.68,37.42
20680,-7.89,-0.40,4.45,0.13,0.72,0.47,-41.71,-0.68,37.42
20690,-7.89,-0.40,4.45,0.13,0.72,0.47,-41.71,-0.68,37.42
20701,-7.50,-1.52,4.83,0.26,0.65,0.41,-41.71,-0.68,37.42
20712,-7.50,-1.52,4.83,0.26,0.65,0.41,-41.71,-0.68,37.42
20723,-8.17,-0.06,4.31,0.26,0.57,0.55,-42.62,-0.36,37.74
20734,-8.17,-0.06,4.31,0.26,0.57,0.55,-42.62,-0.36,37.74
20745,-7.75,-0.23,5.31,0.13,0.54,0.48,-42.62,-0.36,37.74
20756,-7.75,-0.23,5.31,0.13,0.54,0.48,-42.62,-0.36,37.74
20767,-7.43,-0.30,5.08,0.21,0.43,0.38,-42.62,-0.36,37.74
20778,-7.78,-0.19,4.77,0.26,0.22,0.29,-42.62,-0.36,37.74
20789,-7.78,-0.19,4.77,0.26,0.22,0.29,-42.62,-0.36,37.74
20800,-7.65,-0.98,5.15,0.05,-0.05,0.25,-42.62,-0.36,37.74
20811,-7.65,-0.98,5.15,0.05,-0.05,0.25,-42.62,-0.36,37.74
20822,-8.04,-0.90,4.70,-0.09,-0.18,0.30,-42.62,-0.36,37.74
20926,-7.97,-1.02,4.76,-0.74,-0.79,-0.53,-45.57,1.04,35.99
20937,-9.05,-2.78,5.72,-0.37,-0.73,-0.76,-45.57,1.04,35.99
20948,-9.05,-2.78,5.72,-0.37,-0.73,-0.76,-45.57,1.04,35.99
20959,-8.46,-3.51,4.49,-0.26,-0.43,-0.67,-40.81,-2.23,38.05
20970,-8.46,-3.51,4.49,-0.26,-0.43,-0.67,-40.81,-2.23,38.05
20981,-8.25,-2.50,5.25,0.06,-0.36,-0.39,-40.81,-2.23,38.05
20992,-8.25,-2.50,5.25,0.06,-0.36,-0.39,-40.81,-2.23,38.05
21003,-8.05,-1.75,5.10,0.30,-0.35,-0.19,-40.81,-2.23,38.05
21014,-8.05,-1.75,5.10,0.30,-0.35,-0.19,-40.81,-2.23,38.05
21025,-8.23,-1.63,6.72,0.22,-0.30,-0.24,-40.81,-2.23,38.05
21036,-8.23,-1.63,6.72,0.22,-0.30,-0.24,-40.81,-2.23,38.05
21047,-8.17,-2.74,6.80,0.04,-0.03,-0.28,-40.81,-2.23,38.05
21058,-8.68,-2.78,6.73,0.04,0.30,-0.02,-40.81,-2.23,38.05
21069,-8.68,-2.78,6.73,0.04,0.30,-0.02,-40.81,-2.23,38.05
21080,-8.28,-2.53,6.49,-0.00,0.65,0.24,-40.81,-2.23,38.05
21091,-8.28,-2.53,6.49,-0.00,0.65,0.24,-40.81,-2.23,38.05
21102,-7.47,-1.68,5.54,-0.06,0.89,0.46,-42.62,-1.92,37.74
21204,-7.85,-0.26,4.98,0.34,0.37,0.34,-42.62,-1.92,37.74
21214,-7.85,-0.26,4.98,0.34,0.37,0.34,-42.62,-1.92,37.74
21225,-7.47,-0.94,4.99,0.17,0.12,0.25,-44.21,-0.21,35.03
21236,-7.47,-0.94,4.99,0.17,0.12,0.25,-44.21,-0.21,35.03
21247,-8.04,0.41,4.82,-0.05,-0.13,0.30,-44.21,-0.21,35.03
21258,-7.59,-0.76,4.60,-0.14,-0.33,0.07,-44.21,-0.21,35.03
21269,-7.59,-0.76,4.60,-0.14,-0.33,0.07,-44.21,-0.21,35.03
21280,-8.30,-1.31,5.33,-0.37,-0.53,-0.15,-44.21,-0.21,35.03
21291,-8.30,-1.31,5.33,-0.37,-0.53,-0.15,-44.21,-0.21,35.03
21302,-8.20,-1.82,5.46,-0.64,-0.61,-0.31,-44.21,-0.21,35.03
21313,-8.20,-1.82,5.46,-0.64,-0.61,-0.31,-44.21,-0.21,35.03
21324,-8.19,-2.01,5.37,-0.55,-0.52,-0.31,-44.21,-0.21,35.03
21335,-8.19,-2.01,5.37,-0.55,-0.52,-0.31,-44.21,-0.21,35.03
21435,-8.42,-2.70,5.50,0.27,-0.31,-0.36,-41.94,-1.14,36.62
21445,-8.59,-1.37,6.88,0.18,-0.13,-0.25,-41.94,-1.14,36.62
21456,-8.59,-1.37,6.88,0.18,-0.13,-0.25,-41.94,-1.14,36.62
21467,-8.73,-2.86,7.41,0.01,0.11,-0.26,-41.03,-2.08,38.21
21478,-8.28,-3.34,6.00,-0.11,0.42,0.02,-41.03,-2.08,38.21
21489,-8.28,-3.34,6.00,-0.11,0.42,0.02,-41.03,-2.08,38.21
21500,-8.35,-2.54,5.44,-0.10,0.66,0.34,-41.03,-2.08,38.21
21511,-8.35,-2.54,5.44,-0.10,0.66,0.34,-41.03,-2.08,38.21
21522,-7.92,-1.97,4.91,-0.04,0.78,0.46,-41.03,-2.08,38.21
21533,-7.92,-1.97,4.91,-0.04,0.78,0.46,-41.03,-2.08,38.21
21544,-7.80,-0.52,6.00,0.12,0.75,0.61,-41.03,-2.08,38.21
21555,-7.80,-0.52,6.00,0.12,0.75,0.61,-41.03,-2.08,38.21
21566,-7.69,-0.50,4.57,0.10,0.68,0.57,-41.03,-2.08,38.21
21577,-7.69,-0.50,4.57,0.10,0.68,0.57,-41.03,-2.08,38.21
21588,-7.89,-0.65,5.61,0.18,0.48,0.53,-41.03,-2.08,38.21
21599,-7.41,0.29,5.70,0.42,0.41,0.47,-45.80,-1.61,36.46
21610,-7.41,0.29,5.70,0.42,0.41,0.47,-45.80,-1.61,36.46
21714,-7.96,-0.74,4.27,-0.29,-0.28,0.03,-45.80,-1.61,36.46
21724,-7.29,-0.84,5.87,-0.44,-0.44,-0.13,-42.62,-0.05,37.10
21735,-7.29,-0.84,5.87,-0.44,-0.44,-0.13,-42.62,-0.05,37.10
21746,-7.49,-0.76,4.61,-0.73,-0.57,-0.24,-42.62,-0.05,37.10
21757,-7.49,-0.76,4.61,-0.73,-0.57,-0.24,-42.62,-0.05,37.10
21768,-8.69,-2.01,5.00,-0.49,-0.72,-0.42,-42.62,-0.05,37.10
21779,-8.50,-3.02,5.74,-0.16,-0.53,-0.58,-42.62,-0.05,37.10
21790,-8.50,-3.02,5.74,-0.16,-0.53,-0.58,-42.62,-0.05,37.10
21801,-8.41,-2.30,4.65,0.03,-0.26,-0.47,-42.62,-0.05,37.10
21812,-8.41,-2.30,4.65,0.03,-0.26,-0.47,-42.62,-0.05,37.10
21823,-8.04,-0.97,4.42,0.12,-0.30,-0.39,-42.62,-0.05,37.10
21834,-8.04,-0.97,4.42,0.12,-0.30,-0.39,-42.62,-0.05,37.10
21845,-8.19,-1.36,5.04,0.12,-0.42,-0.48,-41.94,-2.70,37.26
21988,-8.12,-0.51,5.59,0.00,0.63,0.68,-43.30,-3.33,36.62
21998,-7.86,0.20,4.73,0.03,0.61,0.55,-43.30,-3.33,36.62
22009,-7.86,0.20,4.73,0.03,0.61,0.55,-43.30,-3.33,36.62
22020,-8.00,0.29,5.42,0.06,0.59,0.38,-43.30,-3.33,36.62
22031,-8.00,0.29,5.42,0.06,0.59,0.38,-43.30,-3.33,36.62
22042,-7.53,-0.42,4.79,-0.07,0.50,0.25,-43.30,-3.33,36.62
22053,-7.53,-0.42,4.79,-0.07,0.50,0.25,-43.30,-3.33,36.62
22064,-7.27,-1.11,4.21,0.00,0.22,0.28,-43.30,-3.33,36.62
22075,-7.27,-1.11,4.21,0.00,0.22,0.28,-43.30,-3.33,36.62
22086,-7.89,-0.38,4.81,-0.12,-0.13,0.40,-43.30,-3.33,36.62
22097,-7.89,-0.38,4.81,-0.12,-0.13,0.40,-43.30,-3.33,36.62
22108,-8.17,-0.30,4.01,-0.04,-0.29,0.23,-44.89,-1.30,35.83
22119,-7.77,-0.70,5.32,-0.04,-0.49,-0.05,-44.89,-1.30,35.83
22221,-8.21,-1.52,4.89,-0.01,-0.37,-0.45,-42.62,-2.86,36.78
22231,-8.21,-1.52,4.89,-0.01,-0.37,-0.45,-42.62,-2.86,36.78
22242,-8.28,-1.46,4.07,0.03,-0.44,-0.53,-42.62,-2.86,36.78
22253,-8.28,-1.46,4.07,0.03,-0.44,-0.53,-42.62,-2.86,36.78
22264,-8.38,-3.83,6.93,0.26,-0.45,-0.45,-42.62,-2.86,36.78
22275,-8.38,-3.83,6.93,0.26,-0.45,-0.45,-42.62,-2.86,36.78
22286,-8.47,-1.77,6.25,0.24,-0.18,-0.10,-42.62,-2.86,36.78
22297,-8.47,-1.77,6.25,0.24,-0.18,-0.10,-42.62,-2.86,36.78
22308,-8.19,-2.55,6.15,0.09,0.10,-0.12,-42.62,-2.86,36.78
22319,-8.14,-3.18,6.59,-0.08,0.33,-0.01,-42.62,-2.86,36.78
22330,-8.14,-3.18,6.59,-0.08,0.33,-0.01,-42.62,-2.86,36.78
22341,-8.23,-2.21,5.63,-0.09,0.58,0.27,-42.62,-2.86,36.78
22352,-8.23,-2.21,5.63,-0.09,0.58,0.27,-42.62,-2.86,36.78
22363,-7.71,-2.33,5.49,-0.05,0.68,0.48,-41.71,-2.23,37.42
22374,-7.71,-2.33,5.49,-0.05,0.68,0.48,-41.71,-2.23,37.42
22385,-7.84,-1.53,5.56,-0.09,0.71,0.64,-41.71,-2.23,37.42
22396,-7.84,-1.53,5.56,-0.09,0.71,0.64,-41.71,-2.23,37.42
22498,-7.79,-0.92,5.63,0.30,0.22,0.28,-44.66,-0.21,35.67
22508,-7.88,0.06,5.14,-0.08,-0.00,0.33,-44.66,-0.21,35.67
22519,-8.84,-0.93,4.35,-0.18,-0.21,0.24,-44.66,-0.21,35.67
22530,-8.84,-0.93,4.35,-0.18,-0.21,0.24,-44.66,-0.21,35.67
22541,-8.67,-1.35,5.04,-0.15,-0.31,0.12,-44.66,-0.21,35.67
22552,-8.67,-1.35,5.04,-0.15,-0.31,0.12,-44.66,-0.21,35.67
22563,-7.84,-0.99,4.76,-0.26,-0.33,-0.05,-44.66,-0.21,35.67
22574,-7.84,-0.99,4.76,-0.26,-0.33,-0.05,-44.66,-0.21,35.67
22585,-8.06,-1.33,4.60,-0.49,-0.43,-0.18,-44.66,-0.21,35.67
22596,-8.06,-1.33,4.60,-0.49,-0.43,-0.18,-44.66,-0.21,35.67
22607,-7.86,-0.88,4.31,-0.66,-0.56,-0.23,-42.85,-0.83,36.31
22618,-7.86,-0.88,4.31,-0.66,-0.56,-0.23,-42.85,-0.83,36.31
22629,-8.74,-1.09,5.01,-0.55,-0.69,-0.39,-42.85,-0.83,36.31
22731,-8.21,-2.29,6.48,0.24,-0.32,-0.49,-39.67,-3.01,37.26
22741,-8.17,-2.54,6.03,0.17,-0.13,-0.32,-39.67,-3.01,37.26
22752,-8.17,-2.54,6.03,0.17,-0.13,-0.32,-39.67,-3.01,37.26
22763,-8.94,-2.17,7.06,0.12,0.08,-0.10,-39.67,-3.01,37.26
22774,-8.94,-2.17,7.06,0.12,0.08,-0.10,-39.67,-3.01,37.26
22785,-8.67,-2.82,5.90,-0.13,0.47,0.03,-39.67,-3.01,37.26
22796,-8.67,-2.82,5.90,-0.13,0.47,0.03,-39.67,-3.01,37.26
22807,-8.10,-2.55,5.85,-0.10,0.68,0.32,-39.67,-3.01,37.26
22818,-8.10,-2.55,5.85,-0.10,0.68,0.32,-39.67,-3.01,37.26
22829,-7.93,-1.52,4.91,0.02,0.78,0.57,-39.67,-3.01,37.26
22840,-7.82,-0.79,5.39,0.15,0.69,0.69,-39.67,-3.01,37.26
22851,-7.82,-0.79,5.39,0.15,0.69,0.69,-39.67,-3.01,37.26
22862,-7.52,-0.33,5.98,0.08,0.59,0.61,-43.98,-2.23,36.15
22873,-7.52,-0.33,5.98,0.08,0.59,0.61,-43.98,-2.23,36.15
22884,-7.79,-0.96,6.19,0.11,0.46,0.45,-43.98,-2.23,36.15
22895,-7.79,-0.96,6.19,0.11,0.46,0.45,-43.98,-2.23,36.15
22906,-7.72,-0.14,4.78,0.17,0.43,0.35,-43.98,-2.23,36.15
23008,-7.65,-0.83,4.87,-0.28,-0.38,-0.04,-45.80,-0.36,36.15
23019,-8.26,-1.20,4.58,-0.62,-0.60,-0.20,-45.80,-0.36,36.15
23030,-8.26,-1.20,4.58,-0.62,-0.60,-0.20,-45.80,-0.36,36.15
23041,-8.95,-1.39,4.89,-0.69,-0.75,-0.34,-45.80,-0.36,36.15
23052,-8.95,-1.39,4.89,-0.69,-0.75,-0.34,-45.80,-0.36,36.15
23063,-8.84,-3.00,5.78,-0.36,-0.58,-0.45,-45.80,-0.36,36.15
23074,-8.84,-3.00,5.78,-0.36,-0.58,-0.45,-45.80,-0.36,36.15
23085,-8.12,-0.95,3.97,-0.02,-0.28,-0.30,-45.80,-0.36,36.15
23096,-8.12,-0.95,3.97,-0.02,-0.28,-0.30,-45.80,-0.36,36.15
23107,-8.24,-0.85,4.05,0.27,-0.34,-0.43,-40.58,-2.70,35.99
23118,-8.24,-0.85,4.05,0.27,-0.34,-0.43,-40.58,-2.70,35.99
23129,-8.27,-1.65,5.87,0.34,-0.43,-0.59,-40.58,-2.70,35.99
23140,-8.10,-2.20,5.73,0.26,-0.33,-0.51,-40.58,-2.70,35.99
23244,-7.73,-1.14,4.13,-0.15,0.83,0.69,-41.26,-0.99,36.78
23254,-7.73,-1.14,4.13,-0.15,0.83,0.69,-41.26,-0.99,36.78
23265,-7.60,-0.75,5.32,0.06,0.70,0.72,-41.26,-0.99,36.78
23276,-7.60,-0.75,5.32,0.06,0.70,0.72,-41.26,-0.99,36.78
23287,-8.18,-0.20,6.24,0.09,0.57,0.63,-41.26,-0.99,36.78
23298,-8.18,-0.20,6.24,0.09,0.57,0.63,-41.26,-0.99,36.78
23309,-7.52,-1.33,5.55,0.12,0.61,0.50,-41.26,-0.99,36.78
23320,-7.83,0.09,5.22,0.18,0.49,0.58,-41.26,-0.99,36.78
23331,-7.83,0.09,5.22,0.18,0.49,0.58,-41.26,-0.99,36.78
23342,-7.69,0.02,4.95,0.16,0.29,0.49,-41.26,-0.99,36.78
23353,-7.69,0.02,4.95,0.16,0.29,0.49,-41.26,-0.99,36.78
23364,-8.05,-0.35,5.02,-0.04,0.04,0.44,-44.44,-0.05,34.56
23375,-8.05,-0.35,5.02,-0.04,0.04,0.44,-44.44,-0.05,34.56
23477,-8.18,1.16,3.55,-0.26,-0.43,0.18,-44.44,-0.05,34.56
23488,-8.32,1.10,4.05,-0.60,-0.86,-0.26,-43.30,-0.83,35.35
23499,-9.60,-1.02,6.14,-0.80,-1.06,-0.75,-43.30,-0.83,35.35
23510,-9.60,-1.02,6.14,-0.80,-1.06,-0.75,-43.30,-0.83,35.35
23521,-8.77,-4.11,6.13,-0.41,-0.65,-0.82,-43.30,-0.83,35.35
23532,-8.77,-4.11,6.13,-0.41,-0.65,-0.82,-43.30,-0.83,35.35
23543,-8.30,-1.83,4.46,0.03,-0.24,-0.33,-43.30,-0.83,35.35
23554,-8.30,-1.83,4.46,0.03,-0.24,-0.33,-43.30,-0.83,35.35
23565,-8.30,-0.07,4.97,0.19,-0.25,-0.24,-43.30,-0.83,35.35
23576,-8.30,-0.07,4.97,0.19,-0.25,-0.24,-43.30,-0.83,35.35
23587,-8.08,-1.83,5.50,0.09,-0.31,-0.45,-43.30,-0.83,35.35
23598,-8.08,-1.83,5.50,0.09,-0.31,-0.45,-43.30,-0.83,35.35
23609,-8.57,-2.30,7.07,-0.01,-0.27,-0.31,-43.30,-0.83,35.35
23620,-8.85,-2.30,6.92,-0.11,0.06,-0.12,-40.58,-2.08,37.26
23631,-8.85,-2.30,6.92,-0.11,0.06,-0.12,-40.58,-2.08,37.26
23642,-8.37,-2.46,5.92,-0.25,0.47,0.09,-40.58,-2.08,37.26
23653,-8.37,-2.46,5.92,-0.25,0.47,0.09,-40.58,-2.08,37.26
23756,-8.15,0.62,5.46,0.53,0.50,0.91,-43.30,-0.83,35.67
23767,-8.32,1.79,4.32,0.48,0.48,0.75,-43.30,-0.83,35.67
23778,-8.32,1.79,4.32,0.48,0.48,0.75,-43.30,-0.83,35.67
23789,-7.68,0.54,4.74,0.30,0.34,0.53,-43.30,-0.83,35.67
23800,-8.14,-0.68,5.34,-0.16,0.08,0.65,-43.30,-0.83,35.67
23811,-8.14,-0.68,5.34,-0.16,0.08,0.65,-43.30,-0.83,35.67
23822,-8.83,0.37,5.23,-0.52,-0.01,0.86,-43.30,-0.83,35.67
23833,-8.83,0.37,5.23,-0.52,-0.01,0.86,-43.30,-0.83,35.67
23844,-9.10,0.14,4.50,-0.51,0.06,0.69,-43.30,-0.83,35.67
23855,-9.10,0.14,4.50,-0.51,0.06,0.69,-43.30,-0.83,35.67
23866,-8.68,0.45,3.95,-0.37,0.01,0.37,-45.57,0.42,35.67
23877,-8.68,0.45,3.95,-0.37,0.01,0.37,-45.57,0.42,35.67
23888,-9.08,0.94,4.52,-0.21,-0.12,0.02,-45.57,0.42,35.67
24030,-5.77,-6.51,1.69,-4.33,-1.78,-3.93,-42.62,-6.91,36.46
24040,-6.37,-12.89,2.35,-2.99,-1.73,-2.99,-42.62,-6.91,36.46
24051,-6.37,-12.89,2.35,-2.99,-1.73,-2.99,-42.62,-6.91,36.46
24062,-6.38,-13.10,2.73,-1.67,-1.68,-1.57,-42.62,-6.91,36.46
24078,-6.38,-13.10,2.73,-1.67,-1.68,-1.57,-42.62,-6.91,36.46
24084,-5.86,-10.16,3.75,-0.70,-1.59,-0.66,-42.62,-6.91,36.46
24095,-5.86,-10.16,3.75,-0.70,-1.59,-0.66,-42.62,-6.91,36.46
24106,-5.35,-8.68,4.16,-0.12,-1.23,-0.50,-42.62,-6.91,36.46
24117,-5.35,-8.68,4.16,-0.12,-1.23,-0.50,-42.62,-6.91,36.46
24128,-4.97,-8.57,3.42,0.11,-0.88,-0.69,-27.42,-21.41,36.62
24139,-4.97,-8.57,3.42,0.11,-0.88,-0.69,-27.42,-21.41,36.62
24150,-4.68,-9.39,3.96,0.26,-0.69,-0.71,-27.42,-21.41,36.62
24161,-5.64,-8.60,4.86,0.72,-0.39,-0.41,-27.42,-21.41,36.62
24263,-5.47,-4.59,5.31,0.94,0.12,-0.59,-24.02,-19.07,38.05
24274,-5.47,-4.59,5.31,0.94,0.12,-0.59,-24.02,-19.07,38.05
24285,-5.35,-4.88,6.61,0.87,0.04,-0.55,-24.02,-19.07,38.05
24296,-5.35,-4.88,6.61,0.87,0.04,-0.55,-24.02,-19.07,38.05
24307,-5.04,-3.47,6.57,0.90,0.16,-0.48,-24.02,-19.07,38.05
24318,-5.04,-3.47,6.57,0.90,0.16,-0.48,-24.02,-19.07,38.05
24329,-4.53,-3.21,5.68,0.85,0.29,-0.58,-24.02,-19.07,38.05
24340,-4.24,-3.99,5.47,0.76,0.31,-0.60,-24.02,-19.07,38.05
24351,-4.24,-3.99,5.47,0.76,0.31,-0.60,-24.02,-19.07,38.05
24362,-4.42,-4.41,5.18,0.74,0.28,-0.41,-21.75,-15.33,40.92
24373,-4.42,-4.41,5.18,0.74,0.28,-0.41,-21.75,-15.33,40.92
24384,-4.47,-3.21,5.79,0.71,0.22,-0.25,-21.75,-15.33,40.92
24395,-4.47,-3.21,5.79,0.71,0.22,-0.25,-21.75,-15.33,40.92
24406,-4.13,-2.13,6.34,0.50,0.36,-0.39,-21.75,-15.33,40.92
24417,-4.13,-2.13,6.34,0.50,0.36,-0.39,-21.75,-15.33,40.92
24428,-3.42,-3.01,5.16,0.15,0.65,-0.67,-21.75,-15.33,40.92
24439,-3.42,-3.01,5.16,0.15,0.65,-0.67,-21.75,-15.33,40.92
24541,-5.29,-5.55,4.09,0.17,0.82,-0.37,-26.06,-16.11,40.12
24551,-5.29,-5.55,4.09,0.17,0.82,-0.37,-26.06,-16.11,40.12
24562,-6.08,-7.62,3.65,0.31,0.53,-0.15,-26.06,-16.11,40.12
24573,-6.08,-7.62,3.65,0.31,0.53,-0.15,-26.06,-16.11,40.12
24584,-5.32,-7.04,4.91,0.67,0.03,0.35,-26.06,-16.11,40.12
24595,-5.32,-7.04,4.91,0.67,0.03,0.35,-26.06,-16.11,40.12
24606,-4.74,-4.14,6.80,1.13,-0.10,0.68,-26.06,-16.11,40.12
24617,-4.74,-4.14,6.80,1.13,-0.10,0.68,-26.06,-16.11,40.12
24628,-4.24,-2.17,6.66,1.26,0.11,0.59,-29.47,-12.52,43.46
24639,-4.24,-2.17,6.66,1.26,0.11,0.59,-29.47,-12.52,43.46
24650,-4.16,-1.73,7.07,1.08,0.15,0.32,-29.47,-12.52,43.46
24661,-4.32,-1.46,8.26,0.99,0.14,0.15,-29.47,-12.52,43.46
24672,-4.32,-1.46,8.26,0.99,0.14,0.15,-29.47,-12.52,43.46
24775,-1.25,-5.74,0.57,-0.35,-0.21,-2.15,-34.23,-8.31,40.76
24785,1.19,-5.65,5.39,0.18,-1.28,-0.68,-34.23,-8.31,40.76
24796,1.19,-5.65,5.39,0.18,-1.28,-0.68,-34.23,-8.31,40.76
24807,-2.01,-1.59,8.14,0.60,-0.56,0.82,-34.23,-8.31,40.76
24818,-2.01,-1.59,8.14,0.60,-0.56,0.82,-34.23,-8.31,40.76
24829,-5.67,-0.97,5.13,0.78,0.54,1.05,-34.23,-8.31,40.76
24840,-5.67,-0.97,5.13,0.78,0.54,1.05,-34.23,-8.31,40.76
24851,-10.39,-2.30,6.61,0.56,0.51,0.51,-34.23,-8.31,40.76
24867,-7.82,-3.24,7.05,-0.09,0.10,-0.22,-34.23,-8.31,40.76
24873,-7.82,-3.24,7.05,-0.09,0.10,-0.22,-34.23,-8.31,40.76
24884,-5.19,-4.46,5.85,-0.21,0.11,-0.45,-31.96,-8.31,43.62
24895,-5.19,-4.46,5.85,-0.21,0.11,-0.45,-31.96,-8.31,43.62
24906,-5.10,-4.55,5.75,-0.05,0.26,-0.19,-31.96,-8.31,43.62
24917,-5.10,-4.55,5.75,-0.05,0.26,-0.19,-31.96,-8.31,43.62
24928,-6.36,-4.41,6.72,0.21,0.39,0.08,-31.96,-8.31,43.62
24939,-6.36,-4.41,6.72,0.21,0.39,0.08,-31.96,-8.31,43.62
24950,-7.06,-4.03,7.09,0.25,0.47,0.12,-31.96,-8.31,43.62
25052,-6.30,-3.29,6.69,0.18,0.35,-0.08,-33.78,-7.69,41.71
25063,-7.24,-4.16,6.26,0.19,0.24,-0.11,-33.78,-7.69,41.71
25074,-7.24,-4.16,6.26,0.19,0.24,-0.11,-33.78,-7.69,41.71
25085,-6.59,-4.04,6.59,0.04,-0.04,-0.06,-33.78,-7.69,41.71
25096,-6.59,-4.04,6.59,0.04,-0.04,-0.06,-33.78,-7.69,41.71
25107,-5.85,-3.45,6.49,0.01,-0.07,-0.01,-33.78,-7.69,41.71
25118,-5.85,-3.45,6.49,0.01,-0.07,-0.01,-33.78,-7.69,41.71
25129,-6.05,-3.40,6.16,0.07,0.09,-0.01,-35.82,-7.85,43.14
25140,-6.05,-3.40,6.16,0.07,0.09,-0.01,-35.82,-7.85,43.14
25151,-6.68,-3.66,6.14,0.09,0.16,-0.04,-35.82,-7.85,43.14
25162,-7.17,-3.95,6.02,0.08,0.09,-0.01,-35.82,-7.85,43.14
25173,-7.17,-3.95,6.02,0.08,0.09,-0.01,-35.82,-7.85,43.14
25184,-6.65,-3.43,6.39,0.01,-0.08,0.03,-35.82,-7.85,43.14
25305,-6.36,-2.77,6.52,0.03,-0.13,0.09,-36.27,-6.91,42.19
25316,-6.36,-2.77,6.52,0.03,-0.13,0.09,-36.27,-6.91,42.19
25327,-6.47,-2.97,6.49,-0.09,-0.13,0.01,-36.27,-6.91,42.19
25338,-6.47,-2.97,6.49,-0.09,-0.13,0.01,-36.27,-6.91,42.19
25349,-6.84,-2.99,6.26,-0.24,-0.23,-0.03,-36.27,-6.91,42.19
25360,-6.84,-2.99,6.26,-0.24,-0.23,-0.03,-36.27,-6.91,42.19
25371,-6.87,-2.63,5.57,-0.70,-0.38,-0.09,-36.27,-6.91,42.19
25382,-6.01,-3.94,6.79,-0.81,-0.49,-0.28,-33.78,-9.25,42.67
25393,-6.01,-3.94,6.79,-0.81,-0.49,-0.28,-33.78,-9.25,42.67
25404,-5.22,-3.39,6.62,-0.70,-0.36,-0.31,-33.78,-9.25,42.67
25415,-5.22,-3.39,6.62,-0.70,-0.36,-0.31,-33.78,-9.25,42.67
25426,-6.29,-4.15,6.78,-0.54,-0.29,-0.32,-33.78,-9.25,42.67
25437,-6.29,-4.15,6.78,-0.54,-0.29,-0.32,-33.78,-9.25,42.67
25448,-7.31,-6.57,9.18,-2.63,-0.52,-0.22,-33.78,-9.25,42.67
25459,-7.31,-6.57,9.18,-2.63,-0.52,-0.22,-33.78,-9.25,42.67
25470,-5.35,-7.45,5.95,-4.83,-0.46,0.02,-33.78,-9.25,42.67
25481,-6.63,-6.22,4.72,-3.03,-0.28,0.47,-33.78,-9.25,42.67
25605,-5.64,-5.54,-0.42,-1.05,0.54,0.81,-31.05,-18.29,40.44
25615,-5.64,-5.54,-0.42,-1.05,0.54,0.81,-31.05,-18.29,40.44
25626,-5.97,-5.30,2.27,-0.35,-0.12,0.63,-35.14,-27.02,32.17
25637,-5.97,-5.30,2.27,-0.35,-0.12,0.63,-35.14,-27.02,32.17
25648,-6.62,-9.09,6.32,-0.80,-0.10,0.47,-35.14,-27.02,32.17
25659,-6.62,-9.09,6.32,-0.80,-0.10,0.47,-35.14,-27.02,32.17
25670,-5.83,-8.55,7.10,-1.81,0.74,1.08,-35.14,-27.02,32.17
25681,-5.83,-8.55,7.10,-1.81,0.74,1.08,-35.14,-27.02,32.17
25692,-4.70,-7.28,1.46,-1.89,1.62,1.79,-35.14,-27.02,32.17
25703,-6.18,-5.15,-1.72,-0.31,1.62,2.20,-35.14,-27.02,32.17
25714,-6.18,-5.15,-1.72,-0.31,1.62,2.20,-35.14,-27.02,32.17
25725,-8.14,-5.70,-0.26,0.67,0.93,2.03,-35.14,-27.02,32.17
25736,-8.14,-5.70,-0.26,0.67,0.93,2.03,-35.14,-27.02,32.17
25839,-4.38,-4.90,-1.04,-5.62,2.94,5.87,-47.84,-23.90,27.08
25849,-2.78,-4.90,-0.08,-5.55,2.23,7.55,-47.84,-23.90,27.08
25860,-2.78,-4.90,-0.08,-5.55,2.23,7.55,-47.84,-23.90,27.08
25871,-0.15,-0.22,0.34,-7.85,0.77,9.31,-47.84,-23.90,27.08
25882,-4.77,13.64,1.40,-7.76,-0.23,8.61,-69.61,-2.70,6.09
25893,-4.77,13.64,1.40,-7.76,-0.23,8.61,-69.61,-2.70,6.09
25904,-5.49,6.59,1.41,-2.40,1.64,6.39,-69.61,-2.70,6.09
25915,-5.49,6.59,1.41,-2.40,1.64,6.39,-69.61,-2.70,6.09
25926,-6.56,10.93,-7.53,-8.61,0.49,5.11,-69.61,-2.70,6.09
25937,-6.56,10.93,-7.53,-8.61,0.49,5.11,-69.61,-2.70,6.09
25948,-6.62,8.89,-0.48,-4.48,-0.99,4.32,-69.61,-2.70,6.09
25959,-6.62,8.89,-0.48,-4.48,-0.99,4.32,-69.61,-2.70,6.09
25970,-6.55,7.14,0.65,-1.42,-0.94,3.43,-69.61,-2.70,6.09
25981,-6.55,7.14,0.65,-1.42,-0.94,3.43,-69.61,-2.70,6.09
25992,-5.92,3.52,3.26,1.81,-0.37,3.17,-69.61,-2.70,6.09
26003,-5.03,3.88,1.31,3.02,0.57,3.62,-64.62,15.38,4.82
26014,-5.03,3.88,1.31,3.02,0.57,3.62,-64.62,15.38,4.82
26118,-5.48,10.71,-2.01,0.14,-0.22,0.62,-64.62,15.38,4.82
26129,-4.52,8.76,-4.37,0.29,0.20,0.14,-64.62,15.38,4.82
26140,-4.52,8.76,-4.37,0.29,0.20,0.14,-64.62,15.38,4.82
26151,-4.13,8.39,-6.62,0.68,0.28,0.23,-58.27,23.49,-4.41
26162,-4.07,7.45,-4.66,1.54,0.02,0.54,-58.27,23.49,-4.41
26173,-4.07,7.45,-4.66,1.54,0.02,0.54,-58.27,23.49,-4.41
26184,-5.00,6.83,-4.55,1.41,0.04,0.89,-58.27,23.49,-4.41
26195,-5.00,6.83,-4.55,1.41,0.04,0.89,-58.27,23.49,-4.41
26206,-4.73,9.21,-4.46,1.30,0.21,1.22,-58.27,23.49,-4.41
26217,-4.73,9.21,-4.46,1.30,0.21,1.22,-58.27,23.49,-4.41
26228,-4.59,9.04,-4.58,0.77,0.31,1.05,-58.27,23.49,-4.41
26239,-4.59,9.04,-4.58,0.77,0.31,1.05,-58.27,23.49,-4.41
26250,-3.99,8.45,-5.27,-0.35,0.18,0.79,-58.27,23.49,-4.41
26357,-3.21,8.68,-5.35,1.46,0.42,0.65,-52.15,27.07,-6.79
26367,-2.87,7.83,-4.58,0.48,0.10,0.64,-52.15,27.07,-6.79
26378,-2.87,7.83,-4.58,0.48,0.10,0.64,-52.15,27.07,-6.79
26389,-2.89,8.58,-4.14,-1.17,-0.20,0.81,-49.43,30.50,-8.70
26400,-2.89,8.58,-4.14,-1.17,-0.20,0.81,-49.43,30.50,-8.70
26411,-2.78,9.43,-4.85,-1.41,-0.01,0.89,-49.43,30.50,-8.70
26422,-2.69,9.55,-5.27,-0.47,0.30,0.77,-49.43,30.50,-8.70
26433,-2.69,9.55,-5.27,-0.47,0.30,0.77,-49.43,30.50,-8.70
26444,-2.80,8.52,-5.08,0.32,0.50,0.60,-49.43,30.50,-8.70
26455,-2.80,8.52,-5.08,0.32,0.50,0.60,-49.43,30.50,-8.70
26466,-3.25,11.57,-6.96,-0.19,0.49,0.63,-49.43,30.50,-8.70
26477,-3.25,11.57,-6.96,-0.19,0.49,0.63,-49.43,30.50,-8.70
26488,-2.53,10.28,-4.76,0.11,0.17,0.19,-49.43,30.50,-8.70
26499,-2.53,10.28,-4.76,0.11,0.17,0.19,-49.43,30.50,-8.70
26510,-1.45,6.32,-3.65,0.37,0.08,-0.07,-45.80,32.68,-8.38
26521,-1.45,6.32,-3.65,0.37,0.08,-0.07,-45.80,32.68,-8.38
26532,-1.49,7.47,-4.94,-0.19,0.13,0.42,-45.80,32.68,-8.38
26543,-2.28,9.43,-4.99,-0.15,0.10,0.65,-45.80,32.68,-8.38
26649,-1.91,9.18,-5.10,1.03,0.27,0.21,-45.12,31.28,-10.13
26659,-1.91,9.18,-5.10,1.03,0.27,0.21,-45.12,31.28,-10.13
26670,-2.51,8.87,-4.88,1.22,0.31,0.18,-45.12,31.28,-10.13
26681,-2.51,8.87,-4.88,1.22,0.31,0.18,-45.12,31.28,-10.13
26692,-1.88,8.94,-5.27,1.14,0.32,0.06,-45.12,31.28,-10.13
26703,-1.58,7.72,-5.33,1.37,0.42,-0.06,-45.12,31.28,-10.13
26714,-1.58,7.72,-5.33,1.37,0.42,-0.06,-45.12,31.28,-10.13
26725,-1.19,6.68,-6.24,0.78,0.45,0.07,-45.12,31.28,-10.13
26831,-0.92,7.52,-4.92,-0.16,0.47,0.14,-42.17,32.37,-12.84
26841,-0.92,7.52,-4.92,-0.16,0.47,0.14,-42.17,32.37,-12.84
26852,-0.73,7.92,-6.76,-1.20,0.42,0.30,-42.17,32.37,-12.84
26863,-0.74,8.45,-6.03,-1.25,0.20,0.45,-42.17,32.37,-12.84
26874,-0.74,8.45,-6.03,-1.25,0.20,0.45,-42.17,32.37,-12.84
26885,-1.02,9.03,-5.28,-1.29,0.07,0.50,-40.81,32.37,-10.29
26896,-1.02,9.03,-5.28,-1.29,0.07,0.50,-40.81,32.37,-10.29
26907,-0.76,9.15,-4.57,-1.34,0.10,0.44,-40.81,32.37,-10.29
26918,-0.76,9.15,-4.57,-1.34,0.10,0.44,-40.81,32.37,-10.29
26929,-0.40,8.25,-3.80,-1.55,0.10,0.37,-40.81,32.37,-10.29
26940,-0.40,8.25,-3.80,-1.55,0.10,0.37,-40.81,32.37,-10.29
26951,-0.89,12.00,-7.66,-1.97,0.12,0.40,-40.81,32.37,-10.29
26962,-0.89,12.00,-7.66,-1.97,0.12,0.40,-40.81,32.37,-10.29
26973,-0.26,9.07,-4.92,-0.45,-0.03,-0.03,-40.81,32.37,-10.29
26984,-0.31,9.16,-4.38,-0.02,-0.10,-0.11,-40.81,32.37,-10.29
26995,-0.31,9.16,-4.38,-0.02,-0.10,-0.11,-40.81,32.37,-10.29
27006,-0.41,9.39,-4.05,-0.13,-0.13,-0.07,-40.81,32.37,-10.29
27147,-0.72,9.52,-4.03,1.77,0.09,-0.11,-39.90,33.93,-5.84
27157,-0.72,9.52,-4.03,1.77,0.09,-0.11,-39.90,33.93,-5.84
27168,-0.88,9.20,-4.46,2.76,0.36,-0.13,-39.90,33.93,-5.84
27179,-0.88,9.20,-4.46,2.76,0.36,-0.13,-39.90,33.93,-5.84
27190,-0.74,9.01,-4.83,3.93,0.69,-0.12,-39.90,33.93,-5.84
27201,-0.74,9.01,-4.83,3.93,0.69,-0.12,-39.90,33.93,-5.84
27212,-0.57,8.25,-5.68,5.80,1.03,-0.20,-39.90,33.93,-5.84
27223,-0.07,9.40,-10.81,8.60,1.38,-0.40,-39.90,33.93,-5.84
27234,-0.07,9.40,-10.81,8.60,1.38,-0.40,-39.90,33.93,-5.84
27245,0.88,5.78,-7.34,1.22,0.23,-1.40,-39.90,33.93,-5.84
27256,0.88,5.78,-7.34,1.22,0.23,-1.40,-39.90,33.93,-5.84
27267,-0.60,7.10,-13.18,0.62,0.93,-0.74,-39.45,23.33,-23.97
27278,-0.60,7.10,-13.18,0.62,0.93,-0.74,-39.45,23.33,-23.97
27381,-0.43,6.25,-8.23,-0.13,-0.10,-0.09,-39.45,23.33,-23.97
27391,-0.73,6.58,-7.78,-0.15,-0.09,-0.08,-39.45,23.33,-23.97
27402,-0.73,6.58,-7.78,-0.15,-0.09,-0.08,-39.45,23.33,-23.97
27413,-0.35,6.34,-8.14,0.15,0.10,0.06,-40.35,24.89,-23.97
27424,-0.54,6.46,-7.96,-0.08,-0.06,-0.05,-40.35,24.89,-23.97
27435,-0.54,6.46,-7.96,-0.08,-0.06,-0.05,-40.35,24.89,-23.97
27446,-0.51,6.38,-8.02,-0.00,-0.00,-0.01,-40.35,24.89,-23.97
27457,-0.51,6.38,-8.02,-0.00,-0.00,-0.01,-40.35,24.89,-23.97
27468,-0.46,6.33,-8.09,0.02,0.01,0.00,-40.35,24.89,-23.97
27479,-0.46,6.33,-8.09,0.02,0.01,0.00,-40.35,24.89,-23.97
27490,-0.55,6.42,-7.99,-0.03,-0.02,-0.02,-40.35,24.89,-23.97
27501,-0.55,6.42,-7.99,-0.03,-0.02,-0.02,-40.35,24.89,-23.97
27512,-0.48,6.36,-8.08,0.02,0.01,-0.00,-40.35,24.89,-23.97
27614,-0.51,6.39,-8.05,-0.00,-0.00,-0.01,-38.31,25.04,-25.08
27625,0.52,7.07,-7.44,-0.01,0.01,-0.01,-38.31,25.04,-25.08
27636,0.52,7.07,-7.44,-0.01,0.01,-0.01,-38.31,25.04,-25.08
27647,-0.50,6.36,-8.09,0.00,0.06,-0.09,-40.81,24.58,-24.92
27658,-0.50,6.36,-8.09,0.00,0.06,-0.09,-40.81,24.58,-24.92
27669,-0.27,6.46,-8.00,-0.00,0.09,-0.13,-40.81,24.58,-24.92
27680,-0.27,6.46,-8.00,-0.00,0.09,-0.13,-40.81,24.58,-24.92
27691,-0.32,6.43,-8.08,0.01,0.13,-0.16,-40.81,24.58,-24.92
27702,-0.32,6.43,-8.08,0.01,0.13,-0.16,-40.81,24.58,-24.92
27713,-1.05,6.36,-8.13,-0.01,0.15,-0.20,-40.81,24.58,-24.92
27724,-0.77,6.03,-8.21,-0.00,0.12,-0.16,-40.81,24.58,-24.92
27735,-0.77,6.03,-8.21,-0.00,0.12,-0.16,-40.81,24.58,-24.92
27746,-0.04,6.42,-8.00,0.04,0.11,-0.09,-40.81,24.58,-24.92
27757,-0.04,6.42,-8.00,0.04,0.11,-0.09,-40.81,24.58,-24.92
27768,-0.40,6.18,-8.22,-0.01,0.14,-0.19,-40.35,24.58,-25.24
27779,-0.40,6.18,-8.22,-0.01,0.14,-0.19,-40.35,24.58,-25.24
27790,-1.30,6.29,-8.10,-0.07,0.16,-0.29,-40.35,24.58,-25.24
27892,-0.52,6.36,-8.03,0.24,0.56,-0.07,-40.35,24.58,-25.24
27903,-0.52,6.36,-8.03,0.24,0.56,-0.07,-40.35,24.58,-25.24
27914,-0.37,6.42,-8.36,-0.05,0.60,0.06,-40.58,24.42,-25.72
27925,-0.70,6.70,-8.23,0.11,0.63,0.29,-40.58,24.42,-25.72
27936,-0.70,6.70,-8.23,0.11,0.63,0.29,-40.58,24.42,-25.72
27947,-0.32,6.44,-8.14,0.45,0.48,0.22,-40.58,24.42,-25.72
27958,-0.32,6.44,-8.14,0.45,0.48,0.22,-40.58,24.42,-25.72
27969,-0.17,6.56,-8.01,0.42,0.39,0.22,-40.58,24.42,-25.72
27980,-0.17,6.56,-8.01,0.42,0.39,0.22,-40.58,24.42,-25.72
27991,0.46,6.23,-7.41,0.27,0.25,0.14,-40.58,24.42,-25.72
28002,0.46,6.23,-7.41,0.27,0.25,0.14,-40.58,24.42,-25.72
28013,0.18,5.49,-7.71,-0.14,-0.11,-0.12,-40.58,24.42,-25.72
28024,0.75,6.30,-7.62,-0.60,-0.58,-0.27,-39.22,23.80,-26.36
28127,-0.66,8.45,-9.67,-2.78,0.27,-0.33,-39.22,23.80,-26.36
28137,-0.66,8.45,-9.67,-2.78,0.27,-0.33,-39.22,23.80,-26.36
28148,-0.34,6.14,-8.67,0.59,0.67,0.13,-39.45,23.02,-25.88
28159,-0.34,6.14,-8.67,0.59,0.67,0.13,-39.45,23.02,-25.88
28170,-0.53,6.27,-8.30,0.10,0.25,-0.13,-39.45,23.02,-25.88
28181,-0.53,6.27,-8.30,0.10,0.25,-0.13,-39.45,23.02,-25.88
28192,-0.83,6.60,-7.57,-0.59,-0.18,-0.51,-39.45,23.02,-25.88
28203,-0.83,6.60,-7.57,-0.59,-0.18,-0.51,-39.45,23.02,-25.88
28214,-0.64,6.23,-8.14,0.23,0.27,-0.14,-39.45,23.02,-25.88
28225,-0.15,5.85,-8.64,0.27,0.43,-0.06,-39.45,23.02,-25.88
28236,-0.15,5.85,-8.64,0.27,0.43,-0.06,-39.45,23.02,-25.88
28247,-1.05,6.11,-8.32,-0.13,0.06,-0.31,-39.45,23.02,-25.88
28258,-1.05,6.11,-8.32,-0.13,0.06,-0.31,-39.45,23.02,-25.88
28269,-1.25,6.40,-7.82,-0.35,0.04,-0.47,-39.45,23.02,-25.88
28280,-1.25,6.40,-7.82,-0.35,0.04,-0.47,-39.45,23.02,-25.88
28291,0.84,5.18,-9.06,0.32,0.57,-0.27,-39.22,23.80,-25.08
28302,0.84,5.18,-9.06,0.32,0.57,-0.27,-39.22,23.80,-25.08
28405,-1.08,6.46,-7.81,-0.24,0.35,-0.71,-39.90,22.08,-26.51
28415,-1.08,6.46,-7.81,-0.24,0.35,-0.71,-39.90,22.08,-26.51
28426,-0.48,5.75,-8.61,0.22,0.66,-0.48,-39.90,22.08,-26.51
28437,-0.48,5.75,-8.61,0.22,0.66,-0.48,-39.90,22.08,-26.51
28448,-0.27,6.34,-8.14,0.01,0.45,-0.49,-39.90,22.08,-26.51
28459,-0.27,6.34,-8.14,0.01,0.45,-0.49,-39.90,22.08,-26.51
28470,-1.07,6.37,-7.99,-0.24,0.25,-0.61,-39.90,22.08,-26.51
28481,-1.07,6.37,-7.99,-0.24,0.25,-0.61,-39.90,22.08,-26.51
28492,-0.63,6.76,-7.80,-0.06,0.37,-0.49,-39.90,22.08,-26.51
28503,-0.63,6.76,-7.80,-0.06,0.37,-0.49,-39.90,22.08,-26.51
28514,-0.16,6.51,-8.07,0.07,0.40,-0.37,-39.90,22.08,-26.51
28525,-0.48,6.48,-8.00,-0.09,0.21,-0.35,-40.35,20.84,-25.88
28628,-0.51,6.48,-7.99,-0.07,0.05,-0.16,-40.35,20.84,-25.88
28638,-0.51,6.48,-7.99,-0.07,0.05,-0.16,-40.35,20.84,-25.88
28649,-0.68,6.64,-7.81,-0.10,-0.00,-0.13,-40.35,20.84,-25.88
28660,-0.68,6.64,-7.81,-0.10,-0.00,-0.13,-40.35,20.84,-25.88
28671,-0.56,6.41,-8.06,0.09,0.08,-0.01,-38.77,20.99,-26.67
28682,-0.56,6.41,-8.06,0.09,0.08,-0.01,-38.77,20.99,-26.67
28693,0.18,4.88,-9.22,0.04,0.02,0.01,-38.77,20.99,-26.67
28704,0.18,4.88,-9.22,0.04,0.02,0.01,-38.77,20.99,-26.67
28715,-0.04,5.37,-8.83,0.15,-0.44,0.78,-38.77,20.99,-26.67
28726,-0.88,7.14,-7.53,-0.01,-1.13,1.29,-38.77,20.99,-26.67
28737,-0.88,7.14,-7.53,-0.01,-1.13,1.29,-38.77,20.99,-26.67
28748,-0.66,7.06,-7.63,-0.01,-1.17,1.31,-38.77,20.99,-26.67
28759,-0.66,7.06,-7.63,-0.01,-1.17,1.31,-38.77,20.99,-26.67
28770,-0.07,7.40,-7.85,0.01,-1.11,1.19,-38.77,20.99,-26.67
28781,-0.07,7.40,-7.85,0.01,-1.11,1.19,-38.77,20.99,-26.67
28792,-0.87,5.74,-7.53,0.19,-0.93,1.09,-39.22,21.93,-26.67
28803,-0.87,5.74,-7.53,0.19,-0.93,1.09,-39.22,21.93,-26.67
28907,0.59,6.21,-8.45,0.27,0.40,0.06,-38.99,25.20,-24.92
28917,0.59,6.21,-8.45,0.27,0.40,0.06,-38.99,25.20,-24.92
28928,-0.18,6.47,-7.92,-0.08,0.02,-0.35,-38.99,25.20,-24.92
28939,-0.18,6.47,-7.92,-0.08,0.02,-0.35,-38.99,25.20,-24.92
28955,-1.03,6.18,-8.22,-0.05,0.10,-0.22,-38.99,25.20,-24.92
28961,-1.03,6.18,-8.22,-0.05,0.10,-0.22,-38.99,25.20,-24.92
28972,-1.10,6.46,-7.99,-0.00,0.11,-0.13,-38.99,25.20,-24.92
28983,-1.10,6.46,-7.99,-0.00,0.11,-0.13,-38.99,25.20,-24.92
28994,-0.65,6.51,-7.92,0.07,0.36,-0.28,-38.99,25.20,-24.92
29005,-0.55,5.97,-8.44,0.04,0.73,-0.58,-38.99,25.20,-24.92
29016,-0.55,5.97,-8.44,0.04,0.73,-0.58,-38.99,25.20,-24.92
29027,0.20,6.21,-8.26,-0.04,0.73,-0.84,-40.58,23.49,-25.72
29038,0.20,6.21,-8.26,-0.04,0.73,-0.84,-40.58,23.49,-25.72
29181,-0.19,6.25,-8.21,0.01,-0.04,0.07,-40.13,23.17,-26.04
29192,-0.07,6.16,-8.33,-0.12,-0.27,0.08,-40.13,23.17,-26.04
29203,-0.07,6.16,-8.33,-0.12,-0.27,0.08,-40.13,23.17,-26.04
29214,-0.81,6.82,-7.64,-0.31,-0.44,0.06,-40.13,23.17,-26.04
29225,-0.44,6.34,-8.05,0.04,-0.15,0.18,-40.13,23.17,-26.04
29236,-0.44,6.34,-8.05,0.04,-0.15,0.18,-40.13,23.17,-26.04
29247,-0.47,6.32,-8.10,0.00,-0.09,0.11,-40.13,23.17,-26.04
29258,-0.47,6.32,-8.10,0.00,-0.09,0.11,-40.13,23.17,-26.04
29269,-0.41,6.26,-8.19,-0.02,-0.09,0.10,-40.13,23.17,-26.04
29280,-0.41,6.26,-8.19,-0.02,-0.09,0.10,-40.13,23.17,-26.04
29291,-0.71,6.40,-8.00,0.09,-0.09,0.18,-40.13,24.11,-25.40
29302,-0.71,6.40,-8.00,0.09,-0.09,0.18,-40.13,24.11,-25.40
29313,-0.42,6.21,-8.14,0.30,0.07,0.39,-40.13,24.11,-25.40
29416,-0.79,6.57,-7.98,-0.09,-0.21,0.05,-37.63,24.58,-24.92
29426,-0.53,6.77,-7.60,-0.30,-0.29,-0.05,-37.63,24.58,-24.92
29437,-0.53,6.77,-7.60,-0.30,-0.29,-0.05,-37.63,24.58,-24.92
29448,-0.38,6.39,-8.10,0.24,0.13,0.12,-37.63,24.58,-24.92
29459,-0.38,6.39,-8.10,0.24,0.13,0.12,-37.63,24.58,-24.92
29470,-0.29,6.29,-8.21,0.13,0.11,0.08,-37.63,24.58,-24.92
29481,-0.29,6.29,-8.21,0.13,0.11,0.08,-37.63,24.58,-24.92
29492,-0.44,6.34,-8.12,-0.11,-0.09,-0.08,-37.63,24.58,-24.92
29503,-0.44,6.34,-8.12,-0.11,-0.09,-0.08,-37.63,24.58,-24.92
29514,-0.72,6.56,-7.82,-0.20,-0.13,-0.11,-37.63,24.58,-24.92
29525,-0.48,6.34,-8.07,0.12,0.07,0.04,-37.63,24.58,-24.92
29536,-0.48,6.34,-8.07,0.12,0.07,0.04,-37.63,24.58,-24.92
29547,-0.39,6.35,-8.13,0.08,0.06,0.03,-40.35,23.02,-25.88
29558,-0.39,6.35,-8.13,0.08,0.06,0.03,-40.35,23.02,-25.88
29569,-0.44,6.37,-8.09,-0.06,-0.05,-0.05,-40.35,23.02,-25.88
29580,-0.44,6.37,-8.09,-0.06,-0.05,-0.05,-40.35,23.02,-25.88
29591,-0.62,6.48,-7.94,-0.09,-0.06,-0.06,-40.35,23.02,-25.88
29691,-0.42,6.33,-8.13,0.11,0.08,0.05,-39.90,23.02,-24.61
29701,-0.42,6.33,-8.13,0.11,0.08,0.05,-39.90,23.02,-24.61
29712,-0.45,6.31,-8.14,-0.01,-0.01,-0.02,-39.90,23.02,-24.61
29723,-0.45,6.31,-8.14,-0.01,-0.01,-0.02,-39.90,23.02,-24.61
29734,-0.43,5.95,-8.61,-0.04,-0.04,-0.03,-39.90,23.02,-24.61
29745,-0.43,5.95,-8.61,-0.04,-0.04,-0.03,-39.90,23.02,-24.61
29756,-0.58,6.58,-7.93,-0.02,-0.06,0.05,-39.90,23.02,-24.61
29767,-0.68,6.76,-7.73,-0.05,-0.09,0.03,-39.90,23.02,-24.61
29778,-0.68,6.76,-7.73,-0.05,-0.09,0.03,-39.90,23.02,-24.61
29789,-0.51,6.29,-8.12,0.05,-0.00,0.04,-39.22,22.55,-25.72
29800,-0.51,6.29,-8.12,0.05,-0.00,0.04,-39.22,22.55,-25.72
29811,-0.47,6.37,-8.08,0.01,-0.02,0.02,-39.22,22.55,-25.72
29913,-0.49,6.37,-8.06,0.02,0.01,-0.00,-39.22,22.55,-25.72
29924,-0.49,6.37,-8.06,0.02,0.01,-0.00,-39.22,22.55,-25.72
29935,-0.50,6.40,-8.06,-0.01,-0.00,-0.01,-41.94,23.49,-25.40
29946,-0.52,6.41,-8.04,-0.01,-0.00,-0.01,-41.94,23.49,-25.40
29957,-0.52,6.41,-8.04,-0.01,-0.00,-0.01,-41.94,23.49,-25.40
29968,-0.50,6.38,-8.08,0.01,0.01,-0.01,-41.94,23.49,-25.40
29979,-0.50,6.38,-8.08,0.01,0.01,-0.01,-41.94,23.49,-25.40
29990,-0.53,6.39,-8.06,-0.01,-0.01,-0.01,-41.94,23.49,-25.40
30001,-0.53,6.39,-8.06,-0.01,-0.01,-0.01,-41.94,23.49,-25.40
30012,-0.25,5.88,-8.47,0.02,0.00,-0.01,-41.94,23.49,-25.40
30023,-0.25,5.88,-8.47,0.02,0.00,-0.01,-41.94,23.49,-25.40
30034,-0.72,6.96,-7.66,0.01,0.02,0.02,-41.94,23.49,-25.40
30045,-0.72,6.96,-7.66,0.01,0.02,0.02,-41.94,23.49,-25.40
30056,-0.71,6.17,-8.09,-0.06,-0.02,-0.06,-40.58,22.55,-25.40
30067,-0.35,6.63,-7.86,0.03,-0.03,0.08,-40.58,22.55,-25.40
30078,-0.35,6.63,-7.86,0.03,-0.03,0.08,-40.58,22.55,-25.40
30089,-0.45,6.32,-8.12,0.02,0.00,0.01,-40.58,22.55,-25.40
30195,-0.50,6.35,-8.07,0.01,0.01,-0.00,-38.31,22.86,-25.08
30205,-0.50,6.35,-8.07,0.01,0.01,-0.00,-38.31,22.86,-25.08
30216,-0.51,6.38,-8.03,-0.01,-0.00,-0.01,-38.31,22.86,-25.08
30227,-0.50,6.40,-8.02,-0.00,-0.00,-0.01,-38.31,22.86,-25.08
30238,-0.50,6.40,-8.02,-0.00,-0.00,-0.01,-38.31,22.86,-25.08
30249,-0.47,6.39,-8.03,0.00,0.00,-0.01,-38.31,22.86,-25.08
30260,-0.47,6.39,-8.03,0.00,0.00,-0.01,-38.31,22.86,-25.08
30271,-0.51,6.38,-8.04,-0.00,-0.00,-0.01,-38.31,22.86,-25.08
30282,-0.51,6.38,-8.04,-0.00,-0.00,-0.01,-38.31,22.86,-25.08
30293,-0.50,6.38,-8.07,0.00,0.00,-0.01,-40.81,23.33,-25.24
30304,-0.50,6.38,-8.07,0.00,0.00,-0.01,-40.81,23.33,-25.24
30315,-0.51,6.38,-8.05,-0.00,-0.00,-0.01,-40.81,23.33,-25.24
30326,-0.52,6.40,-8.07,-0.00,-0.00,-0.01,-40.81,23.33,-25.24
30431,-0.50,6.42,-8.06,-0.00,-0.00,-0.01,-38.31,23.17,-26.04
30441,-0.50,6.42,-8.06,-0.00,-0.00,-0.01,-38.31,23.17,-26.04
30452,-0.50,6.38,-8.04,-0.00,0.00,-0.01,-38.31,23.17,-26.04
30463,-0.50,6.38,-8.04,-0.00,0.00,-0.01,-38.31,23.17,-26.04
30474,-0.51,6.37,-8.05,-0.00,-0.00,-0.01,-38.31,23.17,-26.04
30485,-0.51,6.37,-8.05,-0.00,-0.00,-0.01,-38.31,23.17,-26.04
30496,-0.51,6.39,-8.05,-0.00,0.00,-0.01,-38.31,23.17,-26.04
30507,-0.51,6.40,-8.05,-0.00,0.00,-0.01,-38.31,23.17,-26.04
30518,-0.51,6.40,-8.05,-0.00,0.00,-0.01,-38.31,23.17,-26.04
30529,-0.49,6.40,-8.03,-0.00,0.00,-0.01,-38.31,23.17,-26.04
30540,-0.49,6.40,-8.03,-0.00,0.00,-0.01,-38.31,23.17,-26.04
30551,-0.50,6.41,-8.08,0.00,0.00,-0.01,-39.67,24.42,-26.04
30562,-0.50,6.41,-8.08,0.00,0.00,-0.01,-39.67,24.42,-26.04
30573,-0.50,6.39,-8.07,0.00,0.00,-0.01,-39.67,24.42,-26.04
30584,-0.50,6.39,-8.07,0.00,0.00,-0.01,-39.67,24.42,-26.04
30595,-0.51,6.38,-8.07,-0.00,0.00,-0.01,-39.67,24.42,-26.04
30606,-0.51,6.38,-8.03,-0.00,-0.00,-0.01,-39.67,24.42,-26.04
30709,-0.63,7.03,-8.21,-0.32,-0.25,-0.24,-40.13,23.49,-26.67
30719,-0.63,7.03,-8.21,-0.32,-0.25,-0.24,-40.13,23.49,-26.67
30730,-0.88,5.65,-6.86,0.09,-0.28,-0.26,-40.13,23.49,-26.67
30741,-0.88,5.65,-6.86,0.09,-0.28,-0.26,-40.13,23.49,-26.67
30752,-0.74,6.45,-7.81,-0.04,-0.03,-0.06,-40.13,23.49,-26.67
30763,-0.74,6.45,-7.81,-0.04,-0.03,-0.06,-40.13,23.49,-26.67
30774,-0.73,6.60,-8.02,0.04,-0.00,-0.02,-40.13,23.49,-26.67
30785,-0.73,6.60,-8.02,0.04,-0.00,-0.02,-40.13,23.49,-26.67
30796,-0.72,6.77,-8.04,0.33,0.00,-0.02,-40.13,23.49,-26.67
30807,-0.25,5.53,-6.15,0.55,0.08,0.01,-39.67,24.42,-24.13
30818,-0.25,5.53,-6.15,0.55,0.08,0.01,-39.67,24.42,-24.13
30829,-1.89,7.34,-9.53,-1.53,0.15,-0.02,-39.67,24.42,-24.13
30934,-0.67,6.56,-7.91,0.24,0.06,0.09,-39.45,23.33,-23.33
30945,-0.67,6.56,-7.91,0.24,0.06,0.09,-39.45,23.33,-23.33
30956,-0.61,6.50,-7.96,0.31,0.13,0.06,-39.45,23.33,-23.33
30967,-0.55,6.31,-8.06,0.28,0.13,0.04,-39.45,23.33,-23.33
30978,-0.55,6.31,-8.06,0.28,0.13,0.04,-39.45,23.33,-23.33
30989,-0.76,6.09,-8.30,0.10,0.12,-0.02,-39.45,23.33,-23.33
31000,-0.76,6.09,-8.30,0.10,0.12,-0.02,-39.45,23.33,-23.33
31011,-0.59,6.49,-7.94,0.09,0.14,-0.06,-39.45,23.33,-23.33
31022,-0.59,6.49,-7.94,0.09,0.14,-0.06,-39.45,23.33,-23.33
31033,-0.44,6.56,-7.89,0.16,0.16,-0.04,-39.45,23.33,-23.33
31044,-0.44,6.56,-7.89,0.16,0.16,-0.04,-39.45,23.33,-23.33
31055,-0.43,6.27,-8.17,0.25,0.22,-0.08,-39.67,24.42,-22.22
31066,-0.43,6.27,-8.17,0.25,0.22,-0.08,-39.67,24.42,-22.22
31170,-0.51,6.28,-8.11,0.02,0.03,-0.03,-39.67,24.42,-22.22
31180,-0.51,6.28,-8.11,0.02,0.03,-0.03,-39.67,24.42,-22.22
31191,-0.51,6.28,-8.10,0.01,0.02,-0.02,-39.67,24.42,-22.22
31202,-0.51,6.28,-8.10,0.01,0.02,-0.02,-39.67,24.42,-22.22
31213,-0.50,6.30,-8.10,0.01,0.01,0.00,-39.67,24.42,-22.22
31224,-0.50,6.30,-8.10,0.01,0.01,0.00,-39.67,24.42,-22.22
31235,-0.50,6.33,-8.07,0.01,0.00,0.00,-39.67,24.42,-22.22
31246,-0.50,6.33,-8.07,0.01,0.00,0.00,-39.67,24.42,-22.22
31257,-0.49,6.31,-8.07,0.02,0.01,-0.00,-39.67,24.42,-22.22
31268,-0.50,6.30,-8.10,0.01,0.01,0.00,-39.67,24.42,-22.22
31279,-0.50,6.30,-8.10,0.01,0.01,0.00,-39.67,24.42,-22.22
31290,-0.50,6.31,-8.07,0.02,0.00,-0.00,-39.67,24.42,-22.22
31301,-0.50,6.31,-8.07,0.02,0.00,-0.00,-39.67,24.42,-22.22
31312,-0.50,6.29,-8.12,0.04,0.00,-0.01,-38.31,21.62,-20.31
31323,-0.50,6.29,-8.12,0.04,0.00,-0.01,-38.31,21.62,-20.31
31334,-0.51,6.27,-8.09,0.02,-0.01,-0.00,-38.31,21.62,-20.31
31345,-0.51,6.27,-8.09,0.02,-0.01,-0.00,-38.31,21.62,-20.31
31486,-0.55,6.25,-8.11,0.07,0.09,-0.11,-41.03,20.68,-19.68
31496,-0.51,6.23,-8.15,0.05,0.05,-0.05,-41.03,20.68,-19.68
31507,-0.48,6.26,-8.14,0.03,0.03,-0.04,-41.03,20.68,-19.68
31518,-0.48,6.26,-8.14,0.03,0.03,-0.04,-41.03,20.68,-19.68
31529,-0.52,6.20,-8.15,0.05,0.08,-0.14,-41.03,20.68,-19.68
31540,-0.52,6.20,-8.15,0.05,0.08,-0.14,-41.03,20.68,-19.68
31551,-0.36,6.24,-8.16,0.05,0.09,-0.13,-40.35,20.84,-21.11
31562,-0.36,6.24,-8.16,0.05,0.09,-0.13,-40.35,20.84,-21.11
31573,-0.56,6.27,-8.18,0.01,-0.00,0.00,-40.35,20.84,-21.11
31584,-0.56,6.27,-8.18,0.01,-0.00,0.00,-40.35,20.84,-21.11
31595,-0.65,6.20,-8.16,0.01,-0.02,0.04,-40.35,20.84,-21.11
31606,-0.65,6.20,-8.16,0.01,-0.02,0.04,-40.35,20.84,-21.11
31617,-0.56,6.17,-8.21,0.01,0.01,0.02,-40.35,20.84,-21.11
31720,-0.82,6.17,-8.21,0.02,0.18,-0.22,-39.22,20.68,-20.95
31730,-0.53,6.17,-8.20,0.01,0.17,-0.21,-39.22,20.68,-20.95
31741,-0.53,6.17,-8.20,0.01,0.17,-0.21,-39.22,20.68,-20.95
31752,-0.48,6.19,-8.18,-0.01,0.07,-0.09,-39.22,20.68,-20.95
31763,-0.48,6.19,-8.18,-0.01,0.07,-0.09,-39.22,20.68,-20.95
31774,-0.45,6.19,-8.18,-0.03,0.01,0.01,-39.22,20.68,-20.95
31785,-0.45,6.19,-8.18,-0.03,0.01,0.01,-39.22,20.68,-20.95
31796,-0.54,6.23,-8.17,-0.04,-0.06,0.13,-39.22,20.68,-20.95
31807,-0.54,6.23,-8.17,-0.04,-0.06,0.13,-39.22,20.68,-20.95
31818,-0.59,6.23,-8.20,-0.04,-0.09,0.19,-38.54,20.84,-22.06
31829,-0.55,6.40,-8.08,-0.04,-0.06,0.16,-38.54,20.84,-22.06
31840,-0.55,6.40,-8.08,-0.04,-0.06,0.16,-38.54,20.84,-22.06
31851,-0.63,6.09,-8.30,-0.10,-0.06,0.11,-38.54,20.84,-22.06
