time,ax,ay,az,gx,gy,gz,mx,my,mz
402,-0.42,6.28,-8.16,0.03,0.02,0.00,-40.56,21.27,-19.00
412,-0.51,6.38,-8.00,-0.03,-0.01,-0.02,-40.56,21.27,-19.00
424,-0.51,6.38,-8.00,-0.03,-0.01,-0.02,-40.56,21.27,-19.00
434,-0.43,6.32,-8.11,0.02,0.01,0.00,-40.56,21.27,-19.00
445,-0.43,6.32,-8.11,0.02,0.01,0.00,-40.56,21.27,-19.00
456,-0.51,6.39,-8.00,-0.02,-0.01,-0.02,-40.56,21.27,-19.00
471,-0.45,6.32,-8.11,0.02,0.01,-0.00,-40.56,21.27,-19.00
478,-0.45,6.32,-8.11,0.02,0.01,-0.00,-40.56,21.27,-19.00
489,-0.51,6.39,-8.03,-0.02,-0.01,-0.01,-40.56,21.27,-19.00
500,-0.51,6.39,-8.03,-0.02,-0.01,-0.01,-40.56,21.27,-19.00
511,-0.48,6.35,-8.07,0.01,0.00,-0.01,-41.03,20.30,-21.08
522,-0.48,6.35,-8.07,0.01,0.00,-0.01,-41.03,20.30,-21.08
533,-0.48,6.36,-8.04,-0.01,-0.00,-0.01,-41.03,20.30,-21.08
544,-0.48,6.36,-8.04,-0.01,-0.00,-0.01,-41.03,20.30,-21.08
555,-0.48,6.37,-8.06,-0.00,-0.00,-0.01,-41.03,20.30,-21.08
566,-0.48,6.37,-8.06,-0.00,-0.00,-0.01,-41.03,20.30,-21.08
577,-0.47,6.37,-8.04,-0.00,0.00,-0.01,-41.03,20.30,-21.08
588,-0.47,6.35,-8.04,-0.00,0.00,-0.01,-41.03,20.30,-21.08
599,-0.47,6.35,-8.04,-0.00,0.00,-0.01,-41.03,20.30,-21.08
614,-0.49,6.35,-8.06,-0.00,0.00,-0.01,-41.03,20.30,-21.08
621,-0.49,6.35,-8.06,-0.00,0.00,-0.01,-41.03,20.30,-21.08
632,-0.48,6.35,-8.07,-0.00,0.00,-0.01,-39.84,22.72,-20.34
643,-0.48,6.35,-8.07,-0.00,0.00,-0.01,-39.84,22.72,-20.34
654,-0.46,6.34,-8.06,-0.00,0.00,-0.01,-39.84,22.72,-20.34
665,-0.46,6.34,-8.06,-0.00,0.00,-0.01,-39.84,22.72,-20.34
676,-0.47,6.33,-8.05,-0.00,0.00,-0.01,-39.84,22.72,-20.34
687,-0.47,6.33,-8.05,-0.00,0.00,-0.01,-39.84,22.72,-20.34
698,-0.48,6.36,-8.05,-0.00,0.00,-0.01,-39.84,22.72,-20.34
709,-0.47,6.35,-8.05,-0.00,0.00,-0.01,-39.84,22.72,-20.34
720,-0.47,6.35,-8.05,-0.00,0.00,-0.01,-39.84,22.72,-20.34
731,-0.47,6.36,-8.06,0.00,0.00,-0.01,-39.84,22.72,-20.34
742,-0.47,6.36,-8.06,0.00,0.00,-0.01,-39.84,22.72,-20.34
753,-0.47,6.35,-8.04,-0.00,0.00,-0.01,-38.42,21.43,-20.34
764,-0.47,6.35,-8.04,-0.00,0.00,-0.01,-38.42,21.43,-20.34
775,-0.49,6.35,-8.07,-0.00,0.00,-0.01,-38.42,21.43,-20.34
786,-0.49,6.35,-8.07,-0.00,0.00,-0.01,-38.42,21.43,-20.34
797,-0.47,6.36,-8.03,-0.00,0.00,-0.01,-38.42,21.43,-20.34
808,-0.49,6.35,-8.04,-0.00,0.00,-0.01,-38.42,21.43,-20.34
819,-0.49,6.35,-8.04,-0.00,0.00,-0.01,-38.42,21.43,-20.34
831,-0.47,6.35,-8.04,-0.00,0.00,-0.01,-38.42,21.43,-20.34
841,-0.47,6.35,-8.04,-0.00,0.00,-0.01,-38.42,21.43,-20.34
852,-0.47,6.36,-8.05,-0.00,0.00,-0.01,-38.42,21.43,-20.34
863,-0.47,6.36,-8.05,-0.00,0.00,-0.01,-38.42,21.43,-20.34
874,-0.48,6.36,-8.06,0.00,0.00,-0.01,-40.08,21.27,-20.78
885,-0.48,6.36,-8.06,0.00,0.00,-0.01,-40.08,21.27,-20.78
896,-0.47,6.35,-8.05,-0.00,0.00,-0.01,-40.08,21.27,-20.78
907,-0.47,6.35,-8.05,-0.00,0.00,-0.01,-40.08,21.27,-20.78
918,-0.46,6.36,-8.04,-0.00,0.00,-0.01,-40.08,21.27,-20.78
929,-0.48,6.35,-8.07,-0.00,-0.00,-0.01,-40.08,21.27,-20.78
940,-0.48,6.35,-8.07,-0.00,-0.00,-0.01,-40.08,21.27,-20.78
951,-0.48,6.36,-8.04,-0.00,-0.00,-0.01,-40.08,21.27,-20.78
962,-0.48,6.36,-8.04,-0.00,-0.00,-0.01,-40.08,21.27,-20.78
973,-0.49,6.35,-8.04,-0.00,0.00,-0.01,-40.08,21.27,-20.78
984,-0.49,6.35,-8.04,-0.00,0.00,-0.01,-40.08,21.27,-20.78
995,-0.46,6.33,-8.06,-0.00,0.00,-0.01,-40.08,21.27,-20.78
1006,-0.46,6.33,-8.06,-0.00,0.00,-0.01,-40.08,21.27,-20.78
1017,-0.47,6.36,-8.07,-0.00,0.00,-0.01,-39.84,21.11,-20.63
1028,-0.47,6.36,-8.06,-0.00,0.00,-0.01,-39.84,21.11,-20.63
1044,-0.47,6.36,-8.06,-0.00,0.00,-0.01,-39.84,21.11,-20.63
1050,-0.47,6.35,-8.05,-0.00,0.00,-0.01,-39.84,21.11,-20.63
1061,-0.47,6.35,-8.05,-0.00,0.00,-0.01,-39.84,21.11,-20.63
1072,-0.47,6.35,-8.05,0.00,0.00,-0.01,-39.84,21.11,-20.63
1083,-0.47,6.35,-8.05,0.00,0.00,-0.01,-39.84,21.11,-20.63
1094,-0.47,6.36,-8.04,-0.00,0.00,-0.01,-39.84,21.11,-20.63
1105,-0.47,6.36,-8.04,-0.00,0.00,-0.01,-39.84,21.11,-20.63
1116,-0.48,6.37,-8.01,-0.00,0.00,-0.01,-39.84,21.11,-20.63
1127,-0.48,6.37,-8.01,-0.00,0.00,-0.01,-39.84,21.11,-20.63
1138,-0.49,6.36,-8.03,-0.00,0.00,-0.01,-37.47,20.78,-20.34
1149,-0.49,6.36,-8.04,-0.00,0.00,-0.01,-37.47,20.78,-20.34
1160,-0.49,6.36,-8.04,-0.00,0.00,-0.01,-37.47,20.78,-20.34
1171,-0.48,6.34,-8.08,-0.00,0.00,-0.01,-37.47,20.78,-20.34
1182,-0.48,6.34,-8.08,-0.00,0.00,-0.01,-37.47,20.78,-20.34
1193,-0.47,6.34,-8.06,-0.00,0.00,-0.01,-37.47,20.78,-20.34
1204,-0.47,6.34,-8.06,-0.00,0.00,-0.01,-37.47,20.78,-20.34
1215,-0.48,6.39,-8.06,-0.00,0.00,-0.01,-37.47,20.78,-20.34
1226,-0.48,6.39,-8.06,-0.00,0.00,-0.01,-37.47,20.78,-20.34
1237,-0.47,6.39,-8.05,-0.00,0.00,-0.01,-37.47,20.78,-20.34
1248,-0.50,6.36,-8.05,-0.00,0.00,-0.01,-38.18,21.91,-21.08
1259,-0.50,6.36,-8.05,-0.00,0.00,-0.01,-38.18,21.91,-21.08
1270,-0.48,6.34,-8.08,0.00,0.00,-0.01,-38.18,21.91,-21.08
1281,-0.48,6.34,-8.08,0.00,0.00,-0.01,-38.18,21.91,-21.08
1292,-0.47,6.35,-8.05,-0.00,0.00,-0.01,-38.18,21.91,-21.08
1303,-0.47,6.35,-8.05,-0.00,0.00,-0.01,-38.18,21.91,-21.08
1314,-0.48,6.35,-8.05,-0.00,0.00,-0.01,-38.18,21.91,-21.08
1326,-0.48,6.35,-8.05,-0.00,0.00,-0.01,-38.18,21.91,-21.08
1336,-0.48,6.36,-8.08,-0.00,0.00,-0.01,-38.18,21.91,-21.08
1347,-0.48,6.36,-8.08,-0.00,0.00,-0.01,-38.18,21.91,-21.08
1358,-0.48,6.36,-8.09,-0.00,0.00,-0.01,-38.18,21.91,-21.08
1369,-0.46,6.36,-8.04,-0.00,0.00,-0.01,-38.18,21.91,-21.08
1380,-0.46,6.36,-8.04,-0.00,0.00,-0.01,-38.18,21.91,-21.08
1391,-0.47,6.35,-8.05,-0.00,0.00,-0.01,-39.61,20.62,-18.70
1402,-0.47,6.35,-8.05,-0.00,0.00,-0.01,-39.61,20.62,-18.70
1413,-0.49,6.36,-8.07,-0.00,0.00,-0.01,-39.61,20.62,-18.70
1424,-0.49,6.36,-8.07,-0.00,0.00,-0.01,-39.61,20.62,-18.70
1435,-0.50,6.34,-8.02,0.00,0.01,-0.01,-39.61,20.62,-18.70
1446,-0.50,6.34,-8.02,0.00,0.01,-0.01,-39.61,20.62,-18.70
1457,-0.44,6.34,-8.06,0.02,0.02,0.00,-39.61,20.62,-18.70
1468,-0.43,6.35,-8.04,0.02,0.01,0.00,-39.61,20.62,-18.70
1479,-0.43,6.35,-8.04,0.02,0.01,0.00,-39.61,20.62,-18.70
1490,-0.47,6.34,-8.04,0.00,0.00,-0.01,-39.61,20.62,-18.70
1501,-0.47,6.34,-8.04,0.00,0.00,-0.01,-39.61,20.62,-18.70
1512,-0.46,6.35,-8.07,-0.00,-0.00,-0.01,-36.75,21.27,-19.59
1523,-0.46,6.35,-8.07,-0.00,-0.00,-0.01,-36.75,21.27,-19.59
1534,-0.47,6.34,-8.07,-0.00,-0.00,-0.01,-36.75,21.27,-19.59
1545,-0.47,6.34,-8.07,-0.00,-0.00,-0.01,-36.75,21.27,-19.59
1557,-0.45,6.34,-8.06,-0.00,-0.00,-0.01,-36.75,21.27,-19.59
1567,-0.45,6.34,-8.06,-0.00,-0.00,-0.01,-36.75,21.27,-19.59
1578,-0.46,6.34,-8.05,-0.00,-0.00,-0.01,-36.75,21.27,-19.59
1589,-0.49,6.37,-8.04,-0.00,-0.00,-0.01,-36.75,21.27,-19.59
1600,-0.49,6.37,-8.04,-0.00,-0.00,-0.01,-36.75,21.27,-19.59
1611,-0.47,6.37,-8.04,-0.00,-0.00,-0.01,-36.75,21.27,-19.59
1622,-0.47,6.37,-8.04,-0.00,-0.00,-0.01,-36.75,21.27,-19.59
1633,-0.46,6.36,-8.08,-0.00,-0.00,-0.01,-39.37,21.43,-20.34
1644,-0.46,6.36,-8.08,-0.00,-0.00,-0.01,-39.37,21.43,-20.34
1655,-0.47,6.35,-8.06,-0.00,-0.00,-0.01,-39.37,21.43,-20.34
1666,-0.47,6.35,-8.06,-0.00,-0.00,-0.01,-39.37,21.43,-20.34
1677,-0.47,6.36,-8.06,-0.00,-0.00,-0.01,-39.37,21.43,-20.34
1688,-0.47,6.36,-8.06,-0.00,-0.00,-0.01,-39.37,21.43,-20.34
1699,-0.48,6.34,-8.02,-0.00,0.00,-0.01,-39.37,21.43,-20.34
1710,-0.48,6.36,-8.02,-0.00,-0.00,-0.01,-39.37,21.43,-20.34
1721,-0.48,6.36,-8.02,-0.00,-0.00,-0.01,-39.37,21.43,-20.34
1732,-0.47,6.35,-8.03,-0.00,-0.00,-0.01,-39.37,21.43,-20.34
1743,-0.47,6.35,-8.03,-0.00,-0.00,-0.01,-39.37,21.43,-20.34
1754,-0.46,6.36,-8.07,-0.00,0.00,-0.01,-39.37,21.43,-20.34
1765,-0.46,6.36,-8.07,-0.00,0.00,-0.01,-39.37,21.43,-20.34
1776,-0.47,6.34,-8.09,-0.00,0.00,-0.01,-37.47,21.43,-19.74
1787,-0.47,6.34,-8.09,-0.00,0.00,-0.01,-37.47,21.43,-19.74
1798,-0.47,6.36,-8.06,-0.00,0.00,-0.01,-37.47,21.43,-19.74
1809,-0.47,6.36,-8.04,-0.00,-0.00,-0.01,-37.47,21.43,-19.74
1820,-0.47,6.36,-8.04,-0.00,-0.00,-0.01,-37.47,21.43,-19.74
1831,-0.48,6.36,-8.03,-0.01,-0.01,-0.02,-37.47,21.43,-19.74
1842,-0.48,6.36,-8.03,-0.01,-0.01,-0.02,-37.47,21.43,-19.74
1853,-0.46,6.33,-8.05,-0.00,0.00,-0.01,-37.47,21.43,-19.74
1864,-0.46,6.33,-8.05,-0.00,0.00,-0.01,-37.47,21.43,-19.74
1875,-0.50,6.37,-8.05,-0.00,0.00,-0.01,-37.47,21.43,-19.74
1886,-0.50,6.37,-8.05,-0.00,0.00,-0.01,-37.47,21.43,-19.74
1897,-0.48,6.35,-8.06,-0.00,0.00,-0.01,-40.56,21.91,-20.19
1908,-0.48,6.35,-8.06,-0.00,0.00,-0.01,-40.56,21.91,-20.19
1919,-0.46,6.38,-8.02,-0.00,0.00,-0.01,-40.56,21.91,-20.19
1930,-0.46,6.34,-8.04,-0.00,0.00,-0.01,-40.56,21.91,-20.19
1941,-0.46,6.34,-8.04,-0.00,0.00,-0.01,-40.56,21.91,-20.19
1952,-0.47,6.36,-8.05,-0.00,-0.00,-0.01,-40.56,21.91,-20.19
1963,-0.47,6.36,-8.05,-0.00,-0.00,-0.01,-40.56,21.91,-20.19
1974,-0.47,6.36,-8.04,-0.00,0.00,-0.01,-40.56,21.91,-20.19
1985,-0.47,6.36,-8.04,-0.00,0.00,-0.01,-40.56,21.91,-20.19
1996,-0.49,6.36,-8.05,-0.00,0.00,-0.01,-40.56,21.91,-20.19
2007,-0.49,6.36,-8.05,-0.00,0.00,-0.01,-40.56,21.91,-20.19
2018,-0.48,6.36,-8.06,-0.00,0.00,-0.01,-38.42,21.43,-19.15
2029,-0.46,6.35,-8.07,-0.00,0.00,-0.01,-38.42,21.43,-19.15
2040,-0.46,6.35,-8.07,-0.00,0.00,-0.01,-38.42,21.43,-19.15
2051,-0.46,6.35,-8.05,-0.00,0.00,-0.01,-38.42,21.43,-19.15
2062,-0.46,6.35,-8.05,-0.00,0.00,-0.01,-38.42,21.43,-19.15
2073,-0.46,6.35,-8.04,-0.00,0.00,-0.01,-38.42,21.43,-19.15
2084,-0.46,6.35,-8.04,-0.00,0.00,-0.01,-38.42,21.43,-19.15
2095,-0.48,6.35,-8.03,-0.00,0.00,-0.01,-38.42,21.43,-19.15
2106,-0.48,6.35,-8.03,-0.00,0.00,-0.01,-38.42,21.43,-19.15
2117,-0.46,6.34,-8.04,0.00,0.00,-0.01,-38.42,21.43,-19.15
2128,-0.46,6.34,-8.04,0.00,0.00,-0.01,-38.42,21.43,-19.15
2139,-0.47,6.34,-8.04,-0.00,0.00,-0.01,-39.37,20.46,-20.63
2150,-0.47,6.37,-8.06,-0.00,0.00,-0.01,-39.37,20.46,-20.63
2161,-0.47,6.37,-8.06,-0.00,0.00,-0.01,-39.37,20.46,-20.63
2172,-0.47,6.36,-8.04,-0.00,0.00,-0.01,-39.37,20.46,-20.63
2183,-0.47,6.36,-8.04,-0.00,0.00,-0.01,-39.37,20.46,-20.63
2194,-0.48,6.35,-8.03,-0.00,0.00,-0.01,-39.37,20.46,-20.63
2205,-0.48,6.35,-8.03,-0.00,0.00,-0.01,-39.37,20.46,-20.63
2216,-0.46,6.35,-8.08,-0.00,0.00,-0.01,-39.37,20.46,-20.63
2227,-0.46,6.35,-8.08,-0.00,0.00,-0.01,-39.37,20.46,-20.63
2238,-0.46,6.36,-8.05,-0.00,0.00,-0.01,-39.37,20.46,-20.63
2249,-0.46,6.35,-8.04,-0.00,0.00,-0.01,-39.37,20.46,-20.63
2260,-0.46,6.35,-8.04,-0.00,0.00,-0.01,-39.37,20.46,-20.63
2271,-0.47,6.35,-8.05,-0.00,0.00,-0.01,-42.22,20.46,-19.44
2282,-0.47,6.35,-8.05,-0.00,0.00,-0.01,-42.22,20.46,-19.44
2293,-0.47,6.35,-8.05,-0.00,0.00,-0.01,-42.22,20.46,-19.44
2309,-0.47,6.35,-8.05,-0.00,0.00,-0.01,-42.22,20.46,-19.44
2315,-0.46,6.37,-8.05,-0.00,0.00,-0.01,-42.22,20.46,-19.44
2326,-0.46,6.37,-8.05,-0.00,0.00,-0.01,-42.22,20.46,-19.44
2337,-0.46,6.35,-8.05,-0.00,0.00,-0.01,-42.22,20.46,-19.44
2348,-0.46,6.35,-8.05,-0.00,0.00,-0.01,-42.22,20.46,-19.44
2359,-0.48,6.36,-8.04,-0.00,0.00,-0.01,-42.22,20.46,-19.44
2370,-0.48,6.35,-8.04,-0.00,0.00,-0.01,-42.22,20.46,-19.44
2381,-0.48,6.35,-8.04,-0.00,0.00,-0.01,-42.22,20.46,-19.44
2392,-0.48,6.37,-8.07,-0.00,0.00,-0.01,-37.94,21.43,-19.44
2403,-0.48,6.37,-8.07,-0.00,0.00,-0.01,-37.94,21.43,-19.44
2414,-0.47,6.38,-8.08,-0.00,0.00,-0.01,-37.94,21.43,-19.44
2425,-0.47,6.38,-8.08,-0.00,0.00,-0.01,-37.94,21.43,-19.44
2436,-0.47,6.36,-8.06,-0.00,0.00,-0.01,-37.94,21.43,-19.44
2447,-0.47,6.36,-8.06,-0.00,0.00,-0.01,-37.94,21.43,-19.44
2458,-0.48,6.36,-8.04,-0.00,-0.00,-0.01,-37.94,21.43,-19.44
2469,-0.48,6.36,-8.05,-0.00,0.00,-0.01,-37.94,21.43,-19.44
2480,-0.48,6.36,-8.05,-0.00,0.00,-0.01,-37.94,21.43,-19.44
2491,-0.48,6.37,-8.04,-0.00,0.00,-0.01,-37.94,21.43,-19.44
2502,-0.48,6.37,-8.04,-0.00,0.00,-0.01,-37.94,21.43,-19.44
2513,-0.45,6.37,-8.07,-0.00,0.00,-0.01,-39.13,20.95,-20.78
2524,-0.45,6.37,-8.07,-0.00,0.00,-0.01,-39.13,20.95,-20.78
2535,-0.47,6.35,-8.06,-0.00,0.00,-0.01,-39.13,20.95,-20.78
2546,-0.47,6.35,-8.06,-0.00,0.00,-0.01,-39.13,20.95,-20.78
2557,-0.47,6.36,-8.08,-0.00,0.00,-0.01,-39.13,20.95,-20.78
2569,-0.47,6.36,-8.08,-0.00,0.00,-0.01,-39.13,20.95,-20.78
2579,-0.47,6.34,-8.04,-0.00,0.00,-0.01,-39.13,20.95,-20.78
2590,-0.48,6.35,-8.04,-0.00,0.00,-0.01,-39.13,20.95,-20.78
2601,-0.48,6.35,-8.04,-0.00,0.00,-0.01,-39.13,20.95,-20.78
2612,-0.47,6.36,-8.05,-0.00,0.00,-0.01,-39.13,20.95,-20.78
2623,-0.47,6.36,-8.05,-0.00,0.00,-0.01,-39.13,20.95,-20.78
2634,-0.46,6.35,-8.04,-0.00,0.00,-0.01,-39.13,20.95,-20.78
2645,-0.46,6.35,-8.04,-0.00,0.00,-0.01,-39.13,20.95,-20.78
2656,-0.47,6.34,-8.09,-0.00,0.00,-0.01,-39.13,20.95,-20.19
2667,-0.47,6.34,-8.09,-0.00,0.00,-0.01,-39.13,20.95,-20.19
2678,-0.48,6.36,-8.07,-0.00,0.00,-0.01,-39.13,20.95,-20.19
2689,-0.48,6.36,-8.07,-0.00,0.00,-0.01,-39.13,20.95,-20.19
2700,-0.47,6.36,-8.06,0.00,0.00,-0.01,-39.13,20.95,-20.19
2711,-0.47,6.36,-8.04,-0.00,0.00,-0.01,-39.13,20.95,-20.19
2722,-0.47,6.36,-8.04,-0.00,0.00,-0.01,-39.13,20.95,-20.19
2733,-0.46,6.35,-8.05,-0.00,0.00,-0.01,-39.13,20.95,-20.19
2744,-0.46,6.35,-8.05,-0.00,0.00,-0.01,-39.13,20.95,-20.19
2755,-0.49,6.34,-8.04,-0.00,0.00,-0.01,-39.13,20.95,-20.19
2766,-0.49,6.34,-8.04,-0.00,0.00,-0.01,-39.13,20.95,-20.19
2777,-0.49,6.36,-8.04,-0.00,0.00,-0.01,-39.61,19.98,-19.59
2788,-0.49,6.36,-8.04,-0.00,0.00,-0.01,-39.61,19.98,-19.59
2799,-0.50,6.34,-8.05,-0.00,0.00,-0.01,-39.61,19.98,-19.59
2810,-0.47,6.37,-8.08,-0.00,0.00,-0.01,-39.61,19.98,-19.59
2821,-0.47,6.37,-8.08,-0.00,0.00,-0.01,-39.61,19.98,-19.59
2832,-0.47,6.34,-8.05,-0.00,0.00,-0.01,-39.61,19.98,-19.59
2843,-0.47,6.34,-8.05,-0.00,0.00,-0.01,-39.61,19.98,-19.59
2854,-0.47,6.36,-8.04,-0.00,0.00,-0.01,-39.61,19.98,-19.59
2865,-0.47,6.36,-8.04,-0.00,0.00,-0.01,-39.61,19.98,-19.59
2876,-0.47,6.35,-8.04,-0.00,0.00,-0.01,-39.61,19.98,-19.59
2887,-0.47,6.35,-8.04,-0.00,0.00,-0.01,-39.61,19.98,-19.59
2898,-0.45,6.37,-8.03,-0.00,-0.00,-0.01,-40.08,21.27,-19.30
2909,-0.45,6.37,-8.03,-0.00,-0.00,-0.01,-40.08,21.27,-19.30
2920,-0.47,6.36,-8.08,-0.00,0.00,-0.01,-40.08,21.27,-19.30
2931,-0.48,6.36,-8.06,-0.00,0.00,-0.01,-40.08,21.27,-19.30
2942,-0.48,6.36,-8.06,-0.00,0.00,-0.01,-40.08,21.27,-19.30
2953,-0.45,6.34,-8.04,-0.00,0.00,-0.01,-40.08,21.27,-19.30
2964,-0.45,6.34,-8.04,-0.00,0.00,-0.01,-40.08,21.27,-19.30
2975,-0.48,6.34,-8.03,-0.00,0.00,-0.01,-40.08,21.27,-19.30
2986,-0.48,6.34,-8.03,-0.00,0.00,-0.01,-40.08,21.27,-19.30
2997,-0.47,6.36,-8.04,-0.00,0.00,-0.01,-40.08,21.27,-19.30
3008,-0.47,6.36,-8.04,-0.00,0.00,-0.01,-40.08,21.27,-19.30
3019,-0.46,6.35,-8.03,-0.00,0.00,-0.01,-40.08,21.27,-19.30
3030,-0.46,6.37,-8.08,-0.00,0.00,-0.01,-38.66,21.27,-20.19
3041,-0.46,6.37,-8.08,-0.00,0.00,-0.01,-38.66,21.27,-20.19
3052,-0.47,6.36,-8.04,-0.00,0.00,-0.01,-38.66,21.27,-20.19
3063,-0.47,6.36,-8.04,-0.00,0.00,-0.01,-38.66,21.27,-20.19
3074,-0.47,6.36,-8.06,-0.00,0.00,-0.01,-38.66,21.27,-20.19
3085,-0.47,6.36,-8.06,-0.00,0.00,-0.01,-38.66,21.27,-20.19
3096,-0.47,6.35,-8.02,-0.00,0.00,-0.01,-38.66,21.27,-20.19
3107,-0.47,6.35,-8.02,-0.00,0.00,-0.01,-38.66,21.27,-20.19
3118,-0.47,6.36,-8.03,-0.00,0.00,-0.01,-38.66,21.27,-20.19
3129,-0.47,6.36,-8.03,-0.00,0.00,-0.01,-38.66,21.27,-20.19
3140,-0.47,6.36,-8.04,-0.00,0.00,-0.01,-38.66,21.27,-20.19
3151,-0.47,6.34,-8.09,-0.00,-0.00,-0.01,-38.89,20.46,-19.74
3162,-0.47,6.34,-8.09,-0.00,-0.00,-0.01,-38.89,20.46,-19.74
3173,-0.48,6.35,-8.04,-0.00,0.00,-0.01,-38.89,20.46,-19.74
3184,-0.48,6.35,-8.04,-0.00,0.00,-0.01,-38.89,20.46,-19.74
3199,-0.47,6.35,-8.07,-0.00,0.00,-0.01,-38.89,20.46,-19.74
3206,-0.47,6.35,-8.07,-0.00,0.00,-0.01,-38.89,20.46,-19.74
3217,-0.47,6.33,-8.05,-0.00,0.00,-0.01,-38.89,20.46,-19.74
3228,-0.47,6.33,-8.05,-0.00,0.00,-0.01,-38.89,20.46,-19.74
3239,-0.47,6.36,-8.06,-0.00,0.00,-0.01,-38.89,20.46,-19.74
3250,-0.47,6.36,-8.02,-0.00,0.00,-0.01,-38.89,20.46,-19.74
3261,-0.47,6.36,-8.02,-0.00,0.00,-0.01,-38.89,20.46,-19.74
3272,-0.47,6.35,-8.06,0.00,0.00,-0.01,-37.94,21.43,-20.34
3283,-0.47,6.35,-8.06,0.00,0.00,-0.01,-37.94,21.43,-20.34
3294,-0.47,6.34,-8.06,-0.00,0.00,-0.01,-37.94,21.43,-20.34
3305,-0.47,6.34,-8.06,-0.00,0.00,-0.01,-37.94,21.43,-20.34
3316,-0.47,6.35,-8.04,-0.00,0.00,-0.01,-37.94,21.43,-20.34
3327,-0.47,6.35,-8.04,-0.00,0.00,-0.01,-37.94,21.43,-20.34
3338,-0.46,6.36,-8.03,-0.00,0.00,-0.01,-37.94,21.43,-20.34
3349,-0.46,6.36,-8.03,-0.00,0.00,-0.01,-37.94,21.43,-20.34
3360,-0.48,6.36,-8.04,-0.00,0.00,-0.01,-37.94,21.43,-20.34
3371,-0.48,6.35,-8.04,-0.00,0.00,-0.01,-37.94,21.43,-20.34
3382,-0.48,6.35,-8.04,-0.00,0.00,-0.01,-37.94,21.43,-20.34
3393,-0.47,6.35,-8.05,-0.00,-0.00,-0.01,-37.94,21.43,-20.34
3404,-0.47,6.35,-8.05,-0.00,-0.00,-0.01,-37.94,21.43,-20.34
3415,-0.48,6.36,-8.04,-0.00,-0.00,-0.01,-37.94,21.43,-20.34
3426,-0.48,6.36,-8.04,-0.00,-0.00,-0.01,-37.94,21.43,-20.34
3437,-0.49,6.36,-8.04,-0.00,-0.00,-0.01,-37.94,21.43,-20.34
3448,-0.49,6.36,-8.04,-0.00,-0.00,-0.01,-37.94,21.43,-20.34
3459,-0.48,6.37,-8.05,-0.00,0.00,-0.01,-37.94,21.43,-20.34
3470,-0.47,6.36,-8.03,-0.00,0.00,-0.01,-37.94,21.43,-20.34
3481,-0.47,6.36,-8.03,-0.00,0.00,-0.01,-37.94,21.43,-20.34
3492,-0.47,6.35,-8.05,-0.00,0.00,-0.01,-37.94,21.43,-20.34
3503,-0.47,6.35,-8.05,-0.00,0.00,-0.01,-37.94,21.43,-20.34
3514,-0.46,6.35,-8.04,-0.00,0.00,-0.01,-37.94,21.43,-20.34
3525,-0.46,6.35,-8.04,-0.00,0.00,-0.01,-37.94,21.43,-20.34
3536,-0.47,6.35,-8.03,-0.00,0.00,-0.01,-40.32,21.11,-19.44
3548,-0.47,6.35,-8.03,-0.00,0.00,-0.01,-40.32,21.11,-19.44
3558,-0.48,6.36,-8.05,-0.00,0.00,-0.01,-40.32,21.11,-19.44
3569,-0.48,6.36,-8.05,-0.00,0.00,-0.01,-40.32,21.11,-19.44
3580,-0.46,6.36,-8.04,-0.00,0.00,-0.01,-40.32,21.11,-19.44
3591,-0.46,6.35,-8.04,-0.00,0.00,-0.01,-40.32,21.11,-19.44
3602,-0.46,6.35,-8.04,-0.00,0.00,-0.01,-40.32,21.11,-19.44
3613,-0.49,6.36,-8.04,-0.00,0.00,-0.01,-40.32,21.11,-19.44
3624,-0.49,6.36,-8.04,-0.00,0.00,-0.01,-40.32,21.11,-19.44
3635,-0.49,6.36,-8.03,-0.00,0.00,-0.01,-40.32,21.11,-19.44
3646,-0.49,6.36,-8.03,-0.00,0.00,-0.01,-40.32,21.11,-19.44
3657,-0.48,6.35,-8.05,-0.00,0.00,-0.01,-38.42,21.43,-19.74
3668,-0.48,6.35,-8.05,-0.00,0.00,-0.01,-38.42,21.43,-19.74
3679,-0.47,6.35,-8.07,-0.00,0.00,-0.01,-38.42,21.43,-19.74
3690,-0.47,6.35,-8.07,-0.00,0.00,-0.01,-38.42,21.43,-19.74
3701,-0.47,6.35,-8.05,-0.00,0.00,-0.01,-38.42,21.43,-19.74
3712,-0.49,6.36,-8.05,-0.00,0.00,-0.01,-38.42,21.43,-19.74
3723,-0.49,6.36,-8.05,-0.00,0.00,-0.01,-38.42,21.43,-19.74
3734,-0.49,6.37,-8.05,-0.00,0.00,-0.01,-38.42,21.43,-19.74
3745,-0.49,6.37,-8.05,-0.00,0.00,-0.01,-38.42,21.43,-19.74
3756,-0.48,6.35,-8.03,-0.00,0.00,-0.01,-38.42,21.43,-19.74
3767,-0.48,6.35,-8.03,-0.00,0.00,-0.01,-38.42,21.43,-19.74
3778,-0.47,6.36,-8.04,-0.00,0.00,-0.01,-38.89,20.78,-20.93
3789,-0.47,6.36,-8.04,-0.00,0.00,-0.01,-38.89,20.78,-20.93
3800,-0.48,6.37,-8.07,-0.00,0.00,-0.01,-38.89,20.78,-20.93
3811,-0.48,6.36,-8.03,-0.00,0.00,-0.01,-38.89,20.78,-20.93
3822,-0.48,6.36,-8.03,-0.00,0.00,-0.01,-38.89,20.78,-20.93
3833,-0.46,6.37,-8.04,-0.00,0.00,-0.01,-38.89,20.78,-20.93
3844,-0.46,6.37,-8.04,-0.00,0.00,-0.01,-38.89,20.78,-20.93
3855,-0.47,6.34,-8.02,-0.00,0.00,-0.01,-38.89,20.78,-20.93
3866,-0.47,6.34,-8.02,-0.00,0.00,-0.01,-38.89,20.78,-20.93
3877,-0.48,6.35,-8.07,-0.00,0.00,-0.01,-38.89,20.78,-20.93
3888,-0.48,6.35,-8.07,-0.00,0.00,-0.01,-38.89,20.78,-20.93
3899,-0.47,6.36,-8.06,-0.00,0.00,-0.01,-38.89,20.78,-20.93
3910,-0.47,6.36,-8.06,-0.00,0.00,-0.01,-38.89,20.78,-20.93
3921,-0.47,6.34,-8.07,-0.00,0.00,-0.01,-40.79,20.46,-20.04
3932,-0.48,6.36,-8.04,0.00,0.00,-0.01,-40.79,20.46,-20.04
3943,-0.48,6.36,-8.04,0.00,0.00,-0.01,-40.79,20.46,-20.04
3954,-0.48,6.35,-8.03,-0.00,0.00,-0.01,-40.79,20.46,-20.04
3965,-0.48,6.35,-8.03,-0.00,0.00,-0.01,-40.79,20.46,-20.04
3976,-0.47,6.36,-8.04,-0.00,0.00,-0.01,-40.79,20.46,-20.04
3987,-0.47,6.36,-8.04,-0.00,0.00,-0.01,-40.79,20.46,-20.04
3999,-0.47,6.36,-8.06,-0.00,0.00,-0.01,-40.79,20.46,-20.04
4009,-0.47,6.36,-8.06,-0.00,0.00,-0.01,-40.79,20.46,-20.04
4020,-0.46,6.35,-8.03,-0.00,0.00,-0.01,-40.79,20.46,-20.04
4031,-0.47,6.35,-8.07,-0.00,0.00,-0.01,-39.61,21.59,-19.89
4042,-0.47,6.35,-8.07,-0.00,0.00,-0.01,-39.61,21.59,-19.89
4053,-0.48,6.36,-8.06,-0.00,0.00,-0.01,-39.61,21.59,-19.89
4064,-0.48,6.36,-8.06,-0.00,0.00,-0.01,-39.61,21.59,-19.89
4075,-0.46,6.35,-8.05,-0.00,0.00,-0.01,-39.61,21.59,-19.89
4086,-0.46,6.35,-8.05,-0.00,0.00,-0.01,-39.61,21.59,-19.89
4097,-0.48,6.34,-8.09,-0.00,0.00,-0.01,-39.61,21.59,-19.89
4108,-0.48,6.34,-8.09,-0.00,0.00,-0.01,-39.61,21.59,-19.89
4119,-0.47,6.34,-8.04,-0.00,0.00,-0.01,-39.61,21.59,-19.89
4130,-0.47,6.34,-8.04,-0.00,0.00,-0.01,-39.61,21.59,-19.89
4141,-0.49,6.37,-8.03,-0.00,0.00,-0.01,-39.61,21.59,-19.89
4152,-0.48,6.37,-8.04,-0.00,0.00,-0.01,-39.84,21.75,-20.34
4163,-0.48,6.37,-8.04,-0.00,0.00,-0.01,-39.84,21.75,-20.34
4174,-0.48,6.36,-8.06,-0.00,0.00,-0.01,-39.84,21.75,-20.34
4185,-0.48,6.36,-8.06,-0.00,0.00,-0.01,-39.84,21.75,-20.34
4196,-0.47,6.37,-8.09,-0.00,0.00,-0.01,-39.84,21.75,-20.34
4207,-0.47,6.37,-8.09,-0.00,0.00,-0.01,-39.84,21.75,-20.34
4218,-0.47,6.36,-8.05,-0.00,0.00,-0.01,-39.84,21.75,-20.34
4229,-0.47,6.36,-8.05,-0.00,0.00,-0.01,-39.84,21.75,-20.34
4240,-0.47,6.35,-8.05,-0.00,0.00,-0.01,-39.84,21.75,-20.34
4251,-0.45,6.36,-8.05,-0.00,0.00,-0.01,-39.84,21.75,-20.34
4262,-0.45,6.36,-8.05,-0.00,0.00,-0.01,-39.84,21.75,-20.34
4273,-0.49,6.35,-8.05,-0.00,0.00,-0.01,-39.84,21.75,-20.34
4284,-0.49,6.35,-8.05,-0.00,0.00,-0.01,-39.84,21.75,-20.34
4295,-0.45,6.34,-8.08,-0.00,0.00,-0.01,-38.66,22.56,-19.89
4306,-0.45,6.34,-8.08,-0.00,0.00,-0.01,-38.66,22.56,-19.89
4317,-0.47,6.34,-8.05,-0.00,-0.00,-0.01,-38.66,22.56,-19.89
4328,-0.47,6.34,-8.05,-0.00,-0.00,-0.01,-38.66,22.56,-19.89
4339,-0.47,6.36,-8.03,-0.00,0.00,-0.01,-38.66,22.56,-19.89
4350,-0.47,6.36,-8.03,-0.00,0.00,-0.01,-38.66,22.56,-19.89
4361,-0.48,6.36,-8.04,-0.00,0.00,-0.01,-38.66,22.56,-19.89
4372,-0.46,6.33,-8.04,-0.00,0.00,-0.01,-38.66,22.56,-19.89
4383,-0.46,6.33,-8.04,-0.00,0.00,-0.01,-38.66,22.56,-19.89
4394,-0.46,6.33,-8.04,-0.00,0.00,-0.01,-38.66,22.56,-19.89
4405,-0.46,6.33,-8.04,-0.00,0.00,-0.01,-38.66,22.56,-19.89
4416,-0.47,6.36,-8.06,-0.00,-0.00,-0.01,-40.08,20.62,-19.89
4427,-0.47,6.36,-8.06,-0.00,-0.00,-0.01,-40.08,20.62,-19.89
4438,-0.49,6.36,-8.04,-0.00,0.00,-0.01,-40.08,20.62,-19.89
4449,-0.49,6.36,-8.04,-0.00,0.00,-0.01,-40.08,20.62,-19.89
4460,-0.47,6.36,-8.05,-0.00,0.00,-0.01,-40.08,20.62,-19.89
4471,-0.46,6.34,-8.07,-0.00,0.00,-0.01,-40.08,20.62,-19.89
4482,-0.46,6.34,-8.07,-0.00,0.00,-0.01,-40.08,20.62,-19.89
4493,-0.48,6.34,-8.06,-0.00,0.00,-0.01,-40.08,20.62,-19.89
4504,-0.48,6.34,-8.06,-0.00,0.00,-0.01,-40.08,20.62,-19.89
4515,-0.48,6.35,-8.03,-0.00,-0.00,-0.01,-40.08,20.62,-19.89
4526,-0.48,6.35,-8.03,-0.00,-0.00,-0.01,-40.08,20.62,-19.89
4537,-0.46,6.36,-8.07,-0.00,0.00,-0.01,-38.89,21.11,-20.04
4548,-0.46,6.36,-8.07,-0.00,0.00,-0.01,-38.89,21.11,-20.04
4559,-0.46,6.36,-8.07,-0.00,0.00,-0.01,-38.89,21.11,-20.04
4570,-0.46,6.36,-8.07,-0.00,0.00,-0.01,-38.89,21.11,-20.04
4581,-0.46,6.35,-8.07,-0.00,0.00,-0.01,-38.89,21.11,-20.04
4592,-0.48,6.35,-8.05,-0.00,0.00,-0.01,-38.89,21.11,-20.04
4603,-0.48,6.35,-8.05,-0.00,0.00,-0.01,-38.89,21.11,-20.04
4614,-0.48,6.35,-8.05,-0.00,0.00,-0.01,-38.89,21.11,-20.04
4625,-0.48,6.35,-8.05,-0.00,0.00,-0.01,-38.89,21.11,-20.04
4636,-0.48,6.35,-8.06,-0.00,0.00,-0.01,-38.89,21.11,-20.04
4647,-0.48,6.35,-8.06,-0.00,0.00,-0.01,-38.89,21.11,-20.04
4658,-0.48,6.35,-8.04,-0.00,0.00,-0.01,-38.89,21.11,-20.04
4669,-0.48,6.35,-8.04,-0.00,0.00,-0.01,-38.89,21.11,-20.04
4680,-0.47,6.34,-8.04,-0.00,0.00,-0.01,-39.13,22.24,-19.89
4691,-0.47,6.34,-8.04,-0.00,0.00,-0.01,-39.13,22.24,-19.89
4702,-0.47,6.36,-8.07,-0.00,0.00,-0.01,-39.13,22.24,-19.89
4713,-0.48,6.35,-8.05,-0.00,0.00,-0.01,-39.13,22.24,-19.89
4724,-0.48,6.35,-8.05,-0.00,0.00,-0.01,-39.13,22.24,-19.89
4735,-0.48,6.35,-8.04,-0.00,0.00,-0.01,-39.13,22.24,-19.89
4746,-0.48,6.35,-8.04,-0.00,0.00,-0.01,-39.13,22.24,-19.89
4757,-0.47,6.35,-8.04,-0.00,0.00,-0.01,-39.13,22.24,-19.89
4768,-0.47,6.35,-8.04,-0.00,0.00,-0.01,-39.13,22.24,-19.89
4779,-0.46,6.36,-8.04,-0.00,0.00,-0.01,-39.13,22.24,-19.89
4790,-0.46,6.36,-8.04,-0.00,0.00,-0.01,-39.13,22.24,-19.89
4801,-0.46,6.34,-8.06,-0.00,0.00,-0.01,-38.18,21.59,-19.89
4812,-0.47,6.35,-8.05,-0.00,0.00,-0.01,-38.18,21.59,-19.89
4823,-0.47,6.35,-8.05,-0.00,0.00,-0.01,-38.18,21.59,-19.89
4834,-0.47,6.35,-8.02,-0.00,-0.00,-0.01,-38.18,21.59,-19.89
4845,-0.47,6.35,-8.02,-0.00,-0.00,-0.01,-38.18,21.59,-19.89
4856,-0.48,6.35,-8.04,-0.00,0.00,-0.01,-38.18,21.59,-19.89
4867,-0.48,6.35,-8.04,-0.00,0.00,-0.01,-38.18,21.59,-19.89
4878,-0.48,6.36,-8.04,-0.00,-0.00,-0.01,-38.18,21.59,-19.89
4889,-0.48,6.36,-8.04,-0.00,-0.00,-0.01,-38.18,21.59,-19.89
4900,-0.47,6.35,-8.04,-0.00,0.00,-0.01,-38.18,21.59,-19.89
4912,-0.47,6.35,-8.04,-0.00,0.00,-0.01,-38.18,21.59,-19.89
4922,-0.48,6.36,-8.06,-0.00,0.00,-0.01,-39.61,19.66,-20.19
4933,-0.48,6.35,-8.07,-0.00,0.00,-0.01,-39.61,19.66,-20.19
4944,-0.48,6.35,-8.07,-0.00,0.00,-0.01,-39.61,19.66,-20.19
4955,-0.47,6.35,-8.05,-0.00,0.00,-0.01,-39.61,19.66,-20.19
4966,-0.47,6.35,-8.05,-0.00,0.00,-0.01,-39.61,19.66,-20.19
4977,-0.46,6.34,-8.07,0.00,0.00,-0.01,-39.61,19.66,-20.19
4988,-0.46,6.34,-8.07,0.00,0.00,-0.01,-39.61,19.66,-20.19
4999,-0.47,6.36,-8.04,-0.00,0.00,-0.01,-39.61,19.66,-20.19
5010,-0.47,6.36,-8.04,-0.00,0.00,-0.01,-39.61,19.66,-20.19
5021,-0.47,6.36,-8.02,-0.00,0.00,-0.01,-39.61,19.66,-20.19
5032,-0.48,6.36,-8.05,-0.00,0.00,-0.01,-38.42,21.11,-19.74
5043,-0.48,6.36,-8.05,-0.00,0.00,-0.01,-38.42,21.11,-19.74
5054,-0.47,6.36,-8.06,-0.00,0.00,-0.01,-38.42,21.11,-19.74
5065,-0.47,6.36,-8.06,-0.00,0.00,-0.01,-38.42,21.11,-19.74
5076,-0.47,6.35,-8.06,-0.00,0.00,-0.01,-38.42,21.11,-19.74
5087,-0.47,6.35,-8.06,-0.00,0.00,-0.01,-38.42,21.11,-19.74
5098,-0.47,6.36,-8.06,-0.00,0.00,-0.01,-38.42,21.11,-19.74
5109,-0.47,6.36,-8.06,-0.00,0.00,-0.01,-38.42,21.11,-19.74
5120,-0.47,6.36,-8.04,-0.00,0.00,-0.01,-38.42,21.11,-19.74
5131,-0.47,6.36,-8.04,-0.00,0.00,-0.01,-38.42,21.11,-19.74
5142,-0.47,6.35,-8.06,-0.00,0.00,-0.01,-38.42,21.11,-19.74
5153,-0.47,6.35,-8.04,-0.00,0.00,-0.01,-38.42,21.11,-19.74
5164,-0.47,6.35,-8.04,-0.00,0.00,-0.01,-38.42,21.11,-19.74
5175,-0.48,6.35,-8.07,-0.00,0.00,-0.01,-37.70,21.59,-20.49
5186,-0.48,6.35,-8.07,-0.00,0.00,-0.01,-37.70,21.59,-20.49
5197,-0.48,6.36,-8.06,-0.00,0.00,-0.01,-37.70,21.59,-20.49
5208,-0.48,6.36,-8.06,-0.00,0.00,-0.01,-37.70,21.59,-20.49
5219,-0.47,6.37,-8.07,-0.00,0.00,-0.01,-37.70,21.59,-20.49
5230,-0.47,6.37,-8.07,-0.00,0.00,-0.01,-37.70,21.59,-20.49
5241,-0.47,6.35,-8.03,-0.00,0.00,-0.01,-37.70,21.59,-20.49
5252,-0.48,6.37,-8.05,-0.00,0.00,-0.01,-37.70,21.59,-20.49
5263,-0.48,6.37,-8.05,-0.00,0.00,-0.01,-37.70,21.59,-20.49
5274,-0.48,6.36,-8.05,-0.00,0.00,-0.01,-37.70,21.59,-20.49
5285,-0.48,6.36,-8.05,-0.00,0.00,-0.01,-37.70,21.59,-20.49
5296,-0.48,6.35,-8.05,-0.00,0.00,-0.01,-40.08,21.27,-19.89
5307,-0.48,6.35,-8.05,-0.00,0.00,-0.01,-40.08,21.27,-19.89
5318,-0.47,6.37,-8.09,-0.00,0.00,-0.01,-40.08,21.27,-19.89
5329,-0.47,6.37,-8.09,-0.00,0.00,-0.01,-40.08,21.27,-19.89
5340,-0.48,6.35,-8.04,-0.00,0.00,-0.01,-40.08,21.27,-19.89
5351,-0.48,6.35,-8.04,-0.00,0.00,-0.01,-40.08,21.27,-19.89
5362,-0.48,6.35,-8.06,-0.00,0.00,-0.01,-40.08,21.27,-19.89
5373,-0.47,6.36,-8.05,-0.00,0.00,-0.01,-40.08,21.27,-19.89
5384,-0.47,6.36,-8.05,-0.00,0.00,-0.01,-40.08,21.27,-19.89
5395,-0.46,6.35,-8.07,-0.00,0.00,-0.01,-40.08,21.27,-19.89
5406,-0.46,6.35,-8.07,-0.00,0.00,-0.01,-40.08,21.27,-19.89
5417,-0.45,6.37,-8.06,-0.00,-0.00,-0.01,-38.89,21.11,-19.74
5428,-0.45,6.37,-8.06,-0.00,-0.00,-0.01,-38.89,21.11,-19.74
5439,-0.47,6.35,-8.06,-0.00,0.00,-0.01,-38.89,21.11,-19.74
5450,-0.47,6.35,-8.06,-0.00,0.00,-0.01,-38.89,21.11,-19.74
5461,-0.47,6.36,-8.05,-0.00,0.00,-0.01,-38.89,21.11,-19.74
5472,-0.46,6.35,-8.04,-0.00,0.00,-0.01,-38.89,21.11,-19.74
5483,-0.46,6.35,-8.04,-0.00,0.00,-0.01,-38.89,21.11,-19.74
5494,-0.46,6.35,-8.06,-0.00,0.00,-0.01,-38.89,21.11,-19.74
5505,-0.46,6.35,-8.06,-0.00,0.00,-0.01,-38.89,21.11,-19.74
5516,-0.47,6.36,-8.03,-0.00,0.00,-0.01,-38.89,21.11,-19.74
5527,-0.47,6.36,-8.03,-0.00,0.00,-0.01,-38.89,21.11,-19.74
5538,-0.48,6.36,-8.07,-0.00,0.00,-0.01,-38.89,21.11,-19.74
5549,-0.48,6.36,-8.07,-0.00,0.00,-0.01,-38.89,21.11,-19.74
5560,-0.48,6.35,-8.05,-0.00,0.00,-0.01,-39.84,21.11,-19.44
5571,-0.48,6.35,-8.05,-0.00,0.00,-0.01,-39.84,21.11,-19.44
5582,-0.47,6.34,-8.04,-0.00,0.00,-0.01,-39.84,21.11,-19.44
5593,-0.46,6.35,-8.03,-0.00,0.00,-0.01,-39.84,21.11,-19.44
5604,-0.46,6.35,-8.03,-0.00,0.00,-0.01,-39.84,21.11,-19.44
5615,-0.47,6.36,-8.04,-0.00,0.00,-0.01,-39.84,21.11,-19.44
5626,-0.47,6.36,-8.04,-0.00,0.00,-0.01,-39.84,21.11,-19.44
5638,-0.48,6.36,-8.02,-0.00,0.00,-0.01,-39.84,21.11,-19.44
5648,-0.48,6.36,-8.02,-0.00,0.00,-0.01,-39.84,21.11,-19.44
5659,-0.48,6.35,-8.03,-0.00,0.00,-0.01,-39.84,21.11,-19.44
5670,-0.48,6.35,-8.03,-0.00,0.00,-0.01,-39.84,21.11,-19.44
5681,-0.47,6.35,-8.06,-0.00,0.00,-0.01,-37.23,22.24,-19.59
5692,-0.47,6.35,-8.06,-0.00,0.00,-0.01,-37.23,22.24,-19.59
5703,-0.48,6.35,-8.06,-0.00,0.00,-0.01,-37.23,22.24,-19.59
5714,-0.48,6.36,-8.03,-0.00,0.00,-0.01,-37.23,22.24,-19.59
5725,-0.48,6.36,-8.03,-0.00,0.00,-0.01,-37.23,22.24,-19.59
5736,-0.46,6.35,-8.04,-0.00,0.00,-0.01,-37.23,22.24,-19.59
5747,-0.46,6.35,-8.04,-0.00,0.00,-0.01,-37.23,22.24,-19.59
5758,-0.47,6.36,-8.07,-0.00,0.00,-0.01,-37.23,22.24,-19.59
5769,-0.47,6.36,-8.07,-0.00,0.00,-0.01,-37.23,22.24,-19.59
5780,-0.46,6.36,-8.04,-0.00,0.00,-0.01,-37.23,22.24,-19.59
5791,-0.46,6.36,-8.04,-0.00,0.00,-0.01,-37.23,22.24,-19.59
5802,-0.48,6.36,-8.07,-0.00,0.00,-0.01,-39.84,21.43,-20.04
5813,-0.47,6.36,-8.04,-0.00,0.00,-0.01,-39.84,21.43,-20.04
5824,-0.47,6.36,-8.04,-0.00,0.00,-0.01,-39.84,21.43,-20.04
5835,-0.46,6.36,-8.04,-0.00,0.00,-0.01,-39.84,21.43,-20.04
5846,-0.46,6.36,-8.04,-0.00,0.00,-0.01,-39.84,21.43,-20.04
5857,-0.47,6.34,-8.07,-0.00,0.00,-0.01,-39.84,21.43,-20.04
5873,-0.47,6.34,-8.07,-0.00,0.00,-0.01,-39.84,21.43,-20.04
5879,-0.48,6.35,-8.04,-0.00,0.00,-0.01,-39.84,21.43,-20.04
5890,-0.48,6.35,-8.04,-0.00,0.00,-0.01,-39.84,21.43,-20.04
5901,-0.48,6.35,-8.05,-0.00,0.00,-0.01,-39.84,21.43,-20.04
5912,-0.48,6.35,-8.05,-0.00,0.00,-0.01,-39.84,21.43,-20.04
5923,-0.48,6.36,-8.04,-0.00,0.00,-0.01,-39.84,21.43,-20.04
5934,-0.47,6.35,-8.03,0.00,0.00,-0.01,-39.37,20.78,-20.63
5945,-0.47,6.35,-8.03,0.00,0.00,-0.01,-39.37,20.78,-20.63
5956,-0.48,6.35,-8.06,-0.00,0.00,-0.01,-39.37,20.78,-20.63
5967,-0.48,6.35,-8.06,-0.00,0.00,-0.01,-39.37,20.78,-20.63
5978,-0.48,6.35,-8.03,-0.00,0.00,-0.01,-39.37,20.78,-20.63
5989,-0.48,6.35,-8.03,-0.00,0.00,-0.01,-39.37,20.78,-20.63
6000,-0.49,6.35,-8.04,-0.00,0.00,-0.01,-39.37,20.78,-20.63
6011,-0.49,6.35,-8.04,-0.00,0.00,-0.01,-39.37,20.78,-20.63
6022,-0.47,6.36,-8.04,-0.00,0.00,-0.01,-39.37,20.78,-20.63
6033,-0.46,6.35,-8.03,0.00,0.00,-0.01,-39.37,20.78,-20.63
6044,-0.46,6.35,-8.03,0.00,0.00,-0.01,-39.37,20.78,-20.63
6055,-0.46,6.35,-8.07,-0.00,0.00,-0.01,-41.27,20.78,-20.34
6066,-0.46,6.35,-8.07,-0.00,0.00,-0.01,-41.27,20.78,-20.34
6077,-0.48,6.36,-8.04,-0.00,0.00,-0.01,-41.27,20.78,-20.34
6088,-0.48,6.36,-8.04,-0.00,0.00,-0.01,-41.27,20.78,-20.34
6099,-0.48,6.35,-8.05,-0.00,0.00,-0.01,-41.27,20.78,-20.34
6110,-0.48,6.35,-8.05,-0.00,0.00,-0.01,-41.27,20.78,-20.34
6121,-0.48,6.36,-8.05,-0.00,0.00,-0.01,-41.27,20.78,-20.34
6132,-0.48,6.36,-8.05,-0.00,0.00,-0.01,-41.27,20.78,-20.34
6143,-0.48,6.35,-8.04,-0.00,0.00,-0.01,-41.27,20.78,-20.34
6155,-0.47,6.34,-8.03,-0.00,0.00,-0.01,-41.27,20.78,-20.34
6165,-0.47,6.34,-8.03,-0.00,0.00,-0.01,-41.27,20.78,-20.34
6176,-0.48,6.34,-8.04,-0.00,0.00,-0.01,-40.08,22.24,-19.59
6187,-0.48,6.34,-8.04,-0.00,0.00,-0.01,-40.08,22.24,-19.59
6198,-0.47,6.35,-8.04,-0.00,0.00,-0.01,-40.08,22.24,-19.59
6209,-0.47,6.35,-8.04,-0.00,0.00,-0.01,-40.08,22.24,-19.59
6220,-0.47,6.35,-8.04,-0.00,0.00,-0.01,-40.08,22.24,-19.59
6231,-0.47,6.35,-8.04,-0.00,0.00,-0.01,-40.08,22.24,-19.59
6242,-0.47,6.33,-8.05,-0.00,0.00,-0.01,-40.08,22.24,-19.59
6253,-0.47,6.35,-8.05,-0.00,0.00,-0.01,-40.08,22.24,-19.59
6264,-0.47,6.35,-8.05,-0.00,0.00,-0.01,-40.08,22.24,-19.59
6275,-0.47,6.36,-8.04,-0.00,0.00,-0.01,-40.08,22.24,-19.59
6286,-0.47,6.36,-8.04,-0.00,0.00,-0.01,-40.08,22.24,-19.59
6297,-0.48,6.35,-8.06,-0.00,0.00,-0.01,-38.66,20.30,-19.89
6308,-0.48,6.35,-8.06,-0.00,0.00,-0.01,-38.66,20.30,-19.89
6319,-0.46,6.36,-8.07,-0.00,0.00,-0.01,-38.66,20.30,-19.89
6330,-0.46,6.36,-8.07,-0.00,0.00,-0.01,-38.66,20.30,-19.89
6341,-0.45,6.36,-8.05,-0.00,0.00,-0.01,-38.66,20.30,-19.89
6352,-0.45,6.36,-8.05,-0.00,0.00,-0.01,-38.66,20.30,-19.89
6363,-0.46,6.35,-8.07,-0.00,0.00,-0.01,-38.66,20.30,-19.89
6374,-0.47,6.36,-8.04,-0.00,-0.00,-0.01,-38.66,20.30,-19.89
6390,-0.47,6.36,-8.04,-0.00,-0.00,-0.01,-38.66,20.30,-19.89
6396,-0.47,6.35,-8.02,-0.00,-0.00,-0.01,-38.66,20.30,-19.89
6407,-0.47,6.35,-8.02,-0.00,-0.00,-0.01,-38.66,20.30,-19.89
6418,-0.48,6.35,-8.04,-0.00,0.00,-0.01,-38.66,20.30,-19.89
6429,-0.48,6.35,-8.04,-0.00,0.00,-0.01,-38.66,20.30,-19.89
6440,-0.47,6.35,-8.06,-0.00,0.00,-0.01,-36.52,21.43,-20.63
6451,-0.47,6.35,-8.06,-0.00,0.00,-0.01,-36.52,21.43,-20.63
6462,-0.45,6.33,-8.05,-0.00,0.00,-0.01,-36.52,21.43,-20.63
6473,-0.45,6.33,-8.05,-0.00,0.00,-0.01,-36.52,21.43,-20.63
6484,-0.48,6.33,-8.01,-0.00,0.00,-0.01,-36.52,21.43,-20.63
6495,-0.49,6.35,-8.02,-0.00,0.00,-0.01,-36.52,21.43,-20.63
6506,-0.49,6.35,-8.02,-0.00,0.00,-0.01,-36.52,21.43,-20.63
6517,-0.50,6.35,-8.04,-0.00,0.00,-0.01,-36.52,21.43,-20.63
6528,-0.50,6.35,-8.04,-0.00,0.00,-0.01,-36.52,21.43,-20.63
6539,-0.45,6.35,-8.02,-0.00,0.00,-0.01,-36.52,21.43,-20.63
6550,-0.45,6.35,-8.02,-0.00,0.00,-0.01,-36.52,21.43,-20.63
6561,-0.44,6.33,-8.04,-0.00,0.00,-0.01,-38.42,22.40,-20.04
6578,-0.44,6.33,-8.04,-0.00,0.00,-0.01,-38.42,22.40,-20.04
6583,-0.47,6.35,-8.06,-0.00,0.00,-0.01,-38.42,22.40,-20.04
6594,-0.49,6.34,-8.05,-0.00,0.00,-0.01,-38.42,22.40,-20.04
6605,-0.49,6.34,-8.05,-0.00,0.00,-0.01,-38.42,22.40,-20.04
6616,-0.48,6.35,-8.03,-0.00,0.00,-0.01,-38.42,22.40,-20.04
6627,-0.48,6.35,-8.03,-0.00,0.00,-0.01,-38.42,22.40,-20.04
6638,-0.44,6.35,-8.05,-0.00,0.00,-0.01,-38.42,22.40,-20.04
6649,-0.44,6.35,-8.05,-0.00,0.00,-0.01,-38.42,22.40,-20.04
6660,-0.45,6.34,-8.03,-0.00,0.00,-0.01,-38.42,22.40,-20.04
6671,-0.45,6.34,-8.03,-0.00,0.00,-0.01,-38.42,22.40,-20.04
6682,-0.48,6.36,-8.06,-0.00,0.00,-0.01,-38.89,21.11,-18.85
6694,-0.49,6.35,-8.06,-0.00,0.00,-0.01,-38.89,21.11,-18.85
6704,-0.49,6.35,-8.06,-0.00,0.00,-0.01,-38.89,21.11,-18.85
6715,-0.48,6.34,-8.06,-0.00,0.00,-0.01,-38.89,21.11,-18.85
6726,-0.48,6.34,-8.06,-0.00,0.00,-0.01,-38.89,21.11,-18.85
6737,-0.46,6.34,-8.03,-0.00,0.00,-0.01,-38.89,21.11,-18.85
6748,-0.46,6.34,-8.03,-0.00,0.00,-0.01,-38.89,21.11,-18.85
6759,-0.46,6.34,-8.04,-0.00,0.00,-0.01,-38.89,21.11,-18.85
6770,-0.46,6.34,-8.04,-0.00,0.00,-0.01,-38.89,21.11,-18.85
6781,-0.47,6.35,-8.05,-0.00,0.00,-0.01,-38.89,21.11,-18.85
6792,-0.47,6.35,-8.05,-0.00,0.00,-0.01,-38.89,21.11,-18.85
6803,-0.49,6.35,-8.02,-0.00,0.00,-0.01,-38.89,21.11,-18.85
6814,-0.47,6.35,-8.06,-0.00,0.00,-0.01,-40.56,21.91,-19.59
6825,-0.47,6.35,-8.06,-0.00,0.00,-0.01,-40.56,21.91,-19.59
6836,-0.46,6.36,-8.08,-0.00,0.00,-0.01,-40.56,21.91,-19.59
6847,-0.46,6.36,-8.08,-0.00,0.00,-0.01,-40.56,21.91,-19.59
6858,-0.46,6.34,-8.04,-0.00,0.00,-0.01,-40.56,21.91,-19.59
6869,-0.46,6.34,-8.04,-0.00,0.00,-0.01,-40.56,21.91,-19.59
6880,-0.47,6.36,-8.03,-0.00,0.00,-0.01,-40.56,21.91,-19.59
6891,-0.47,6.36,-8.03,-0.00,0.00,-0.01,-40.56,21.91,-19.59
6902,-0.47,6.36,-8.04,0.00,0.00,-0.01,-40.56,21.91,-19.59
6913,-0.47,6.36,-8.04,0.00,0.00,-0.01,-40.56,21.91,-19.59
6924,-0.47,6.36,-8.03,-0.00,0.00,-0.01,-40.56,21.91,-19.59
6935,-0.45,6.34,-8.04,-0.00,0.00,-0.01,-38.42,20.78,-20.34
6947,-0.45,6.34,-8.04,-0.00,0.00,-0.01,-38.42,20.78,-20.34
6957,-0.46,6.36,-8.04,-0.00,0.00,-0.01,-38.42,20.78,-20.34
6968,-0.46,6.36,-8.04,-0.00,0.00,-0.01,-38.42,20.78,-20.34
6979,-0.48,6.36,-8.05,0.00,0.00,-0.01,-38.42,20.78,-20.34
6990,-0.48,6.36,-8.05,0.00,0.00,-0.01,-38.42,20.78,-20.34
7001,-0.47,6.36,-8.03,-0.00,0.00,-0.01,-38.42,20.78,-20.34
7012,-0.47,6.36,-8.03,-0.00,0.00,-0.01,-38.42,20.78,-20.34
7023,-0.46,6.36,-8.07,-0.00,0.00,-0.01,-38.42,20.78,-20.34
7034,-0.47,6.36,-8.04,-0.00,0.00,-0.01,-38.42,20.78,-20.34
7045,-0.47,6.36,-8.04,-0.00,0.00,-0.01,-38.42,20.78,-20.34
7056,-0.48,6.34,-8.05,-0.00,0.00,-0.01,-39.37,21.75,-20.34
7067,-0.48,6.34,-8.05,-0.00,0.00,-0.01,-39.37,21.75,-20.34
7078,-0.49,6.35,-8.08,-0.00,0.00,-0.01,-39.37,21.75,-20.34
7094,-0.49,6.35,-8.08,-0.00,0.00,-0.01,-39.37,21.75,-20.34
7100,-0.47,6.35,-8.05,-0.00,0.00,-0.01,-39.37,21.75,-20.34
7111,-0.47,6.35,-8.05,-0.00,0.00,-0.01,-39.37,21.75,-20.34
7122,-0.45,6.35,-8.03,-0.00,0.00,-0.01,-39.37,21.75,-20.34
7133,-0.45,6.35,-8.03,-0.00,0.00,-0.01,-39.37,21.75,-20.34
7144,-0.46,6.35,-8.05,-0.00,0.00,-0.01,-39.37,21.75,-20.34
7155,-0.48,6.34,-8.05,-0.00,0.00,-0.01,-39.37,21.75,-20.34
7166,-0.48,6.34,-8.05,-0.00,0.00,-0.01,-39.37,21.75,-20.34
7177,-0.47,6.35,-8.04,-0.00,0.00,-0.01,-39.37,21.75,-20.34
7188,-0.47,6.35,-8.04,-0.00,0.00,-0.01,-39.37,21.75,-20.34
7199,-0.46,6.36,-8.08,-0.00,0.00,-0.01,-39.84,21.75,-19.44
7210,-0.46,6.36,-8.08,-0.00,0.00,-0.01,-39.84,21.75,-19.44
7221,-0.45,6.34,-8.05,-0.00,0.00,-0.01,-39.84,21.75,-19.44
7232,-0.45,6.34,-8.05,-0.00,0.00,-0.01,-39.84,21.75,-19.44
7243,-0.47,6.35,-8.03,-0.00,0.00,-0.01,-39.84,21.75,-19.44
7254,-0.48,6.36,-8.07,-0.00,0.00,-0.01,-39.84,21.75,-19.44
7265,-0.48,6.36,-8.07,-0.00,0.00,-0.01,-39.84,21.75,-19.44
7276,-0.46,6.36,-8.04,-0.00,0.00,-0.01,-39.84,21.75,-19.44
7287,-0.46,6.36,-8.04,-0.00,0.00,-0.01,-39.84,21.75,-19.44
7298,-0.46,6.35,-8.04,-0.00,0.00,-0.01,-39.84,21.75,-19.44
7309,-0.46,6.35,-8.04,-0.00,0.00,-0.01,-39.84,21.75,-19.44
7320,-0.47,6.36,-8.08,-0.00,0.00,-0.01,-40.08,21.27,-19.59
7332,-0.47,6.36,-8.08,-0.00,0.00,-0.01,-40.08,21.27,-19.59
7342,-0.47,6.34,-8.06,-0.00,0.00,-0.01,-40.08,21.27,-19.59
7353,-0.47,6.34,-8.06,-0.00,0.00,-0.01,-40.08,21.27,-19.59
7364,-0.46,6.34,-8.03,-0.00,0.00,-0.01,-40.08,21.27,-19.59
7375,-0.45,6.35,-8.04,0.00,0.00,-0.01,-40.08,21.27,-19.59
7386,-0.45,6.35,-8.04,0.00,0.00,-0.01,-40.08,21.27,-19.59
7397,-0.47,6.34,-8.06,-0.00,0.00,-0.01,-40.08,21.27,-19.59
7408,-0.47,6.34,-8.06,-0.00,0.00,-0.01,-40.08,21.27,-19.59
7419,-0.47,6.36,-8.04,-0.00,0.00,-0.01,-40.08,21.27,-19.59
7430,-0.47,6.36,-8.04,-0.00,0.00,-0.01,-40.08,21.27,-19.59
7441,-0.49,6.36,-8.04,-0.00,0.00,-0.01,-39.13,20.95,-20.49
7452,-0.49,6.36,-8.04,-0.00,0.00,-0.01,-39.13,20.95,-20.49
7463,-0.48,6.36,-8.07,-0.00,0.00,-0.01,-39.13,20.95,-20.49
7474,-0.48,6.36,-8.07,-0.00,0.00,-0.01,-39.13,20.95,-20.49
7485,-0.46,6.35,-8.05,-0.00,0.00,-0.01,-39.13,20.95,-20.49
7496,-0.46,6.36,-8.06,-0.00,0.00,-0.01,-39.13,20.95,-20.49
7507,-0.46,6.36,-8.06,-0.00,0.00,-0.01,-39.13,20.95,-20.49
7518,-0.48,6.35,-8.04,-0.00,0.00,-0.01,-39.13,20.95,-20.49
7529,-0.48,6.35,-8.04,-0.00,0.00,-0.01,-39.13,20.95,-20.49
7540,-0.47,6.36,-8.04,-0.00,0.00,-0.01,-39.13,20.95,-20.49
7551,-0.47,6.36,-8.04,-0.00,0.00,-0.01,-39.13,20.95,-20.49
7562,-0.48,6.34,-8.05,-0.00,0.00,-0.01,-37.94,21.11,-20.34
7573,-0.48,6.34,-8.05,-0.00,0.00,-0.01,-37.94,21.11,-20.34
7584,-0.46,6.34,-8.09,-0.00,0.00,-0.01,-37.94,21.11,-20.34
7595,-0.46,6.35,-8.04,-0.00,-0.00,-0.01,-37.94,21.11,-20.34
7606,-0.46,6.35,-8.04,-0.00,-0.00,-0.01,-37.94,21.11,-20.34
7617,-0.46,6.35,-8.03,-0.00,0.00,-0.01,-37.94,21.11,-20.34
7629,-0.46,6.35,-8.03,-0.00,0.00,-0.01,-37.94,21.11,-20.34
7639,-0.47,6.35,-8.02,-0.00,0.00,-0.01,-37.94,21.11,-20.34
7650,-0.47,6.35,-8.02,-0.00,0.00,-0.01,-37.94,21.11,-20.34
7661,-0.47,6.34,-8.05,-0.00,0.00,-0.01,-37.94,21.11,-20.34
7672,-0.47,6.34,-8.05,-0.00,0.00,-0.01,-37.94,21.11,-20.34
7683,-0.46,6.35,-8.04,-0.00,-0.00,-0.01,-37.94,21.11,-20.34
7694,-0.46,6.35,-8.04,-0.00,-0.00,-0.01,-37.94,21.11,-20.34
7705,-0.47,6.36,-8.05,-0.00,-0.00,-0.01,-38.89,21.11,-19.15
7716,-0.49,6.36,-8.06,-0.00,0.00,-0.01,-38.89,21.11,-19.15
7727,-0.49,6.36,-8.06,-0.00,0.00,-0.01,-38.89,21.11,-19.15
7738,-0.49,6.36,-8.04,-0.00,0.00,-0.01,-38.89,21.11,-19.15
7749,-0.49,6.36,-8.04,-0.00,0.00,-0.01,-38.89,21.11,-19.15
7760,-0.45,6.35,-8.03,-0.00,0.00,-0.01,-38.89,21.11,-19.15
7771,-0.45,6.35,-8.03,-0.00,0.00,-0.01,-38.89,21.11,-19.15
7782,-0.45,6.33,-8.04,-0.00,0.00,-0.01,-38.89,21.11,-19.15
7793,-0.45,6.33,-8.04,-0.00,0.00,-0.01,-38.89,21.11,-19.15
7804,-0.47,6.37,-8.05,-0.00,0.00,-0.01,-38.89,21.11,-19.15
7815,-0.48,6.37,-8.07,-0.00,0.00,-0.01,-39.61,21.59,-20.78
7826,-0.48,6.37,-8.07,-0.00,0.00,-0.01,-39.61,21.59,-20.78
7837,-0.48,6.35,-8.06,-0.00,0.00,-0.01,-39.61,21.59,-20.78
7848,-0.48,6.35,-8.06,-0.00,0.00,-0.01,-39.61,21.59,-20.78
7859,-0.47,6.35,-8.07,-0.00,0.00,-0.01,-39.61,21.59,-20.78
7870,-0.47,6.35,-8.07,-0.00,0.00,-0.01,-39.61,21.59,-20.78
7881,-0.45,6.35,-8.05,-0.00,0.00,-0.01,-39.61,21.59,-20.78
7892,-0.45,6.35,-8.05,-0.00,0.00,-0.01,-39.61,21.59,-20.78
7903,-0.47,6.37,-8.06,-0.00,-0.00,-0.01,-39.61,21.59,-20.78
7914,-0.47,6.37,-8.06,-0.00,-0.00,-0.01,-39.61,21.59,-20.78
7925,-0.48,6.37,-8.02,-0.00,-0.00,-0.01,-39.61,21.59,-20.78
7936,-0.47,6.35,-8.06,-0.00,0.00,-0.01,-39.61,21.59,-20.78
7947,-0.47,6.35,-8.06,-0.00,0.00,-0.01,-39.61,21.59,-20.78
7958,-0.47,6.35,-8.06,-0.00,-0.00,-0.01,-39.61,21.59,-20.78
7969,-0.47,6.35,-8.06,-0.00,-0.00,-0.01,-39.61,21.59,-20.78
7980,-0.46,6.35,-8.05,-0.00,-0.00,-0.01,-39.61,21.59,-20.78
7991,-0.46,6.35,-8.05,-0.00,-0.00,-0.01,-39.61,21.59,-20.78
8002,-0.48,6.36,-8.03,-0.00,0.00,-0.01,-39.61,21.59,-20.78
8013,-0.48,6.36,-8.03,-0.00,0.00,-0.01,-39.61,21.59,-20.78
8024,-0.49,6.36,-8.03,-0.00,0.00,-0.01,-39.61,21.59,-20.78
8035,-0.48,6.36,-8.06,-0.00,0.00,-0.01,-39.61,21.59,-20.78
8046,-0.48,6.36,-8.06,-0.00,0.00,-0.01,-39.61,21.59,-20.78
8057,-0.46,6.34,-8.09,-0.00,0.00,-0.01,-39.61,21.59,-20.78
8068,-0.46,6.34,-8.09,-0.00,0.00,-0.01,-39.61,21.59,-20.78
8079,-0.45,6.35,-8.06,-0.00,0.00,-0.01,-38.89,22.08,-20.63
8090,-0.45,6.35,-8.06,-0.00,0.00,-0.01,-38.89,22.08,-20.63
8101,-0.49,6.36,-8.06,-0.00,0.00,-0.01,-38.89,22.08,-20.63
8112,-0.49,6.36,-8.06,-0.00,0.00,-0.01,-38.89,22.08,-20.63
8123,-0.47,6.38,-8.02,-0.00,0.00,-0.01,-38.89,22.08,-20.63
8134,-0.47,6.38,-8.02,-0.00,0.00,-0.01,-38.89,22.08,-20.63
8145,-0.47,6.37,-8.05,-0.00,0.00,-0.01,-38.89,22.08,-20.63
8156,-0.45,6.34,-8.05,-0.00,0.00,-0.01,-38.89,22.08,-20.63
8167,-0.45,6.34,-8.05,-0.00,0.00,-0.01,-38.89,22.08,-20.63
8178,-0.47,6.34,-8.05,-0.00,0.00,-0.01,-38.89,22.08,-20.63
8189,-0.47,6.34,-8.05,-0.00,0.00,-0.01,-38.89,22.08,-20.63
8200,-0.48,6.36,-8.06,-0.00,0.00,-0.01,-39.37,20.78,-20.04
8211,-0.48,6.36,-8.06,-0.00,0.00,-0.01,-39.37,20.78,-20.04
8222,-0.48,6.36,-8.04,-0.00,0.00,-0.01,-39.37,20.78,-20.04
8233,-0.48,6.36,-8.04,-0.00,0.00,-0.01,-39.37,20.78,-20.04
8244,-0.46,6.35,-8.06,-0.00,-0.00,-0.01,-39.37,20.78,-20.04
8255,-0.46,6.34,-8.05,-0.00,0.00,-0.01,-39.37,20.78,-20.04
8266,-0.46,6.34,-8.05,-0.00,0.00,-0.01,-39.37,20.78,-20.04
8277,-0.46,6.35,-8.05,-0.00,0.00,-0.01,-39.37,20.78,-20.04
8288,-0.46,6.35,-8.05,-0.00,0.00,-0.01,-39.37,20.78,-20.04
8299,-0.46,6.37,-8.06,-0.00,-0.00,-0.01,-39.37,20.78,-20.04
8310,-0.46,6.37,-8.06,-0.00,-0.00,-0.01,-39.37,20.78,-20.04
8321,-0.48,6.37,-8.04,-0.00,0.00,-0.01,-39.84,21.43,-20.04
8332,-0.48,6.37,-8.04,-0.00,0.00,-0.01,-39.84,21.43,-20.04
8343,-0.47,6.37,-8.05,-0.00,0.00,-0.01,-39.84,21.43,-20.04
8359,-0.47,6.37,-8.05,-0.00,0.00,-0.01,-39.84,21.43,-20.04
8365,-0.46,6.34,-8.08,-0.00,0.00,-0.01,-39.84,21.43,-20.04
8376,-0.48,6.35,-8.08,-0.00,0.00,-0.01,-39.84,21.43,-20.04
8387,-0.48,6.35,-8.08,-0.00,0.00,-0.01,-39.84,21.43,-20.04
8398,-0.49,6.35,-8.02,-0.00,0.00,-0.01,-39.84,21.43,-20.04
8409,-0.49,6.35,-8.02,-0.00,0.00,-0.01,-39.84,21.43,-20.04
8420,-0.48,6.36,-8.05,-0.00,0.00,-0.01,-39.84,21.43,-20.04
8431,-0.48,6.36,-8.05,-0.00,0.00,-0.01,-39.84,21.43,-20.04
8442,-0.46,6.35,-8.04,-0.00,0.00,-0.01,-39.84,21.43,-20.04
8454,-0.46,6.35,-8.04,-0.00,0.00,-0.01,-39.84,21.43,-20.04
8464,-0.47,6.34,-8.09,-0.00,0.00,-0.01,-39.84,23.37,-20.04
8475,-0.47,6.34,-8.09,-0.00,0.00,-0.01,-39.84,23.37,-20.04
8486,-0.46,6.35,-8.03,-0.00,0.00,-0.01,-39.84,23.37,-20.04
8497,-0.47,6.35,-8.04,-0.00,0.00,-0.01,-39.84,23.37,-20.04
8508,-0.47,6.35,-8.04,-0.00,0.00,-0.01,-39.84,23.37,-20.04
8519,-0.46,6.36,-8.04,-0.00,0.00,-0.01,-39.84,23.37,-20.04
8530,-0.46,6.36,-8.04,-0.00,0.00,-0.01,-39.84,23.37,-20.04
8541,-0.47,6.34,-8.07,-0.00,0.00,-0.01,-39.84,23.37,-20.04
8552,-0.47,6.34,-8.07,-0.00,0.00,-0.01,-39.84,23.37,-20.04
8563,-0.46,6.34,-8.05,-0.00,0.00,-0.01,-39.84,23.37,-20.04
8574,-0.46,6.34,-8.05,-0.00,0.00,-0.01,-39.84,23.37,-20.04
8585,-0.47,6.36,-8.08,-0.00,0.00,-0.01,-37.47,21.75,-20.04
8596,-0.47,6.36,-8.07,-0.00,-0.00,-0.01,-37.47,21.75,-20.04
8607,-0.47,6.36,-8.07,-0.00,-0.00,-0.01,-37.47,21.75,-20.04
8618,-0.47,6.35,-8.08,-0.00,0.00,-0.01,-37.47,21.75,-20.04
8629,-0.47,6.35,-8.08,-0.00,0.00,-0.01,-37.47,21.75,-20.04
8640,-0.46,6.34,-8.05,-0.00,0.00,-0.01,-37.47,21.75,-20.04
8651,-0.46,6.34,-8.05,-0.00,0.00,-0.01,-37.47,21.75,-20.04
8662,-0.46,6.35,-8.06,-0.00,0.00,-0.01,-37.47,21.75,-20.04
8673,-0.46,6.35,-8.06,-0.00,0.00,-0.01,-37.47,21.75,-20.04
8684,-0.47,6.34,-8.05,-0.00,0.00,-0.01,-37.47,21.75,-20.04
8695,-0.47,6.34,-8.05,-0.00,0.00,-0.01,-37.47,21.75,-20.04
8706,-0.47,6.36,-8.07,-0.00,0.00,-0.01,-40.32,20.78,-19.74
8717,-0.47,6.36,-8.06,-0.00,0.00,-0.01,-40.32,20.78,-19.74
8728,-0.47,6.36,-8.06,-0.00,0.00,-0.01,-40.32,20.78,-19.74
8739,-0.47,6.35,-8.06,-0.00,0.00,-0.01,-40.32,20.78,-19.74
8750,-0.47,6.35,-8.06,-0.00,0.00,-0.01,-40.32,20.78,-19.74
8761,-0.48,6.35,-8.04,-0.00,0.00,-0.01,-40.32,20.78,-19.74
8772,-0.48,6.35,-8.04,-0.00,0.00,-0.01,-40.32,20.78,-19.74
8783,-0.48,6.36,-8.03,-0.00,0.00,-0.01,-40.32,20.78,-19.74
8794,-0.48,6.36,-8.03,-0.00,0.00,-0.01,-40.32,20.78,-19.74
8805,-0.47,6.35,-8.03,-0.00,0.00,-0.01,-40.32,20.78,-19.74
8816,-0.47,6.36,-8.05,-0.00,0.00,-0.01,-40.32,20.78,-19.74
8827,-0.47,6.36,-8.05,-0.00,0.00,-0.01,-40.32,20.78,-19.74
8838,-0.46,6.35,-8.08,-0.00,0.00,-0.01,-37.23,20.62,-20.78
8849,-0.46,6.35,-8.08,-0.00,0.00,-0.01,-37.23,20.62,-20.78
8860,-0.47,6.35,-8.08,-0.00,0.00,-0.01,-37.23,20.62,-20.78
8871,-0.47,6.35,-8.08,-0.00,0.00,-0.01,-37.23,20.62,-20.78
8882,-0.48,6.35,-8.06,-0.00,0.00,-0.01,-37.23,20.62,-20.78
8893,-0.48,6.35,-8.06,-0.00,0.00,-0.01,-37.23,20.62,-20.78
8904,-0.47,6.37,-8.04,-0.00,0.00,-0.01,-37.23,20.62,-20.78
8915,-0.47,6.37,-8.04,-0.00,0.00,-0.01,-37.23,20.62,-20.78
8926,-0.47,6.35,-8.04,-0.00,0.00,-0.01,-37.23,20.62,-20.78
8937,-0.46,6.35,-8.06,-0.00,0.00,-0.01,-37.23,20.62,-20.78
8948,-0.46,6.35,-8.06,-0.00,0.00,-0.01,-37.23,20.62,-20.78
8959,-0.47,6.34,-8.07,-0.00,0.00,-0.01,-38.18,21.59,-18.70
8970,-0.47,6.34,-8.07,-0.00,0.00,-0.01,-38.18,21.59,-18.70
8981,-0.46,6.35,-8.04,-0.00,0.00,-0.01,-38.18,21.59,-18.70
8993,-0.46,6.35,-8.04,-0.00,0.00,-0.01,-38.18,21.59,-18.70
9003,-0.46,6.34,-8.05,-0.00,0.00,-0.01,-38.18,21.59,-18.70
9014,-0.46,6.34,-8.05,-0.00,0.00,-0.01,-38.18,21.59,-18.70
9025,-0.46,6.35,-8.06,-0.00,0.00,-0.01,-38.18,21.59,-18.70
9036,-0.46,6.34,-8.05,-0.00,0.00,-0.01,-38.18,21.59,-18.70
9047,-0.46,6.34,-8.05,-0.00,0.00,-0.01,-38.18,21.59,-18.70
9058,-0.47,6.35,-8.05,-0.00,0.00,-0.01,-38.18,21.59,-18.70
9069,-0.47,6.35,-8.05,-0.00,0.00,-0.01,-38.18,21.59,-18.70
9080,-0.47,6.36,-8.05,-0.00,0.00,-0.01,-39.37,20.78,-19.74
9091,-0.47,6.36,-8.05,-0.00,0.00,-0.01,-39.37,20.78,-19.74
9102,-0.48,6.36,-8.04,-0.00,0.00,-0.01,-39.37,20.78,-19.74
9113,-0.48,6.36,-8.04,-0.00,0.00,-0.01,-39.37,20.78,-19.74
9124,-0.48,6.35,-8.07,-0.00,0.00,-0.01,-39.37,20.78,-19.74
9135,-0.48,6.35,-8.07,-0.00,0.00,-0.01,-39.37,20.78,-19.74
9146,-0.48,6.35,-8.03,-0.00,0.00,-0.01,-39.37,20.78,-19.74
9157,-0.48,6.35,-8.04,-0.00,0.00,-0.01,-39.37,20.78,-19.74
9168,-0.48,6.35,-8.04,-0.00,0.00,-0.01,-39.37,20.78,-19.74
9179,-0.48,6.34,-8.02,-0.00,0.00,-0.01,-39.37,20.78,-19.74
9190,-0.48,6.34,-8.02,-0.00,0.00,-0.01,-39.37,20.78,-19.74
9201,-0.48,6.35,-8.05,-0.00,0.00,-0.01,-39.84,21.75,-21.23
9212,-0.48,6.35,-8.05,-0.00,0.00,-0.01,-39.84,21.75,-21.23
9223,-0.47,6.35,-8.06,-0.00,0.00,-0.01,-39.84,21.75,-21.23
9234,-0.47,6.35,-8.06,-0.00,0.00,-0.01,-39.84,21.75,-21.23
9245,-0.47,6.35,-8.04,-0.00,0.00,-0.01,-39.84,21.75,-21.23
9256,-0.47,6.35,-8.07,-0.00,-0.00,-0.01,-39.84,21.75,-21.23
9267,-0.47,6.35,-8.07,-0.00,-0.00,-0.01,-39.84,21.75,-21.23
9278,-0.45,6.36,-8.07,-0.00,0.00,-0.01,-39.84,21.75,-21.23
9289,-0.45,6.36,-8.07,-0.00,0.00,-0.01,-39.84,21.75,-21.23
9300,-0.47,6.36,-8.07,-0.00,0.00,-0.01,-39.84,21.75,-21.23
9311,-0.47,6.36,-8.07,-0.00,0.00,-0.01,-39.84,21.75,-21.23
9322,-0.47,6.36,-8.06,-0.00,0.00,-0.01,-39.84,21.75,-21.23
9333,-0.47,6.36,-8.06,-0.00,0.00,-0.01,-39.84,21.75,-21.23
9344,-0.48,6.35,-8.07,-0.00,0.00,-0.01,-39.37,21.75,-19.15
9355,-0.48,6.35,-8.07,-0.00,0.00,-0.01,-39.37,21.75,-19.15
9366,-0.48,6.34,-8.06,-0.00,-0.00,-0.01,-39.37,21.75,-19.15
9377,-0.46,6.37,-8.04,-0.00,0.00,-0.01,-39.37,21.75,-19.15
9388,-0.46,6.37,-8.04,-0.00,0.00,-0.01,-39.37,21.75,-19.15
9399,-0.45,6.35,-8.07,-0.00,0.00,-0.01,-39.37,21.75,-19.15
9410,-0.45,6.35,-8.07,-0.00,0.00,-0.01,-39.37,21.75,-19.15
9421,-0.46,6.35,-8.03,-0.00,-0.00,-0.01,-39.37,21.75,-19.15
9432,-0.46,6.35,-8.03,-0.00,-0.00,-0.01,-39.37,21.75,-19.15
9443,-0.48,6.35,-8.04,-0.00,0.00,-0.01,-39.37,21.75,-19.15
9454,-0.48,6.35,-8.04,-0.00,0.00,-0.01,-39.37,21.75,-19.15
9465,-0.48,6.36,-8.08,-0.00,0.00,-0.01,-39.61,21.91,-20.49
9476,-0.48,6.36,-8.08,-0.00,0.00,-0.01,-39.61,21.91,-20.49
9487,-0.46,6.35,-8.03,-0.00,0.00,-0.01,-39.61,21.91,-20.49
9498,-0.46,6.35,-8.03,-0.00,0.00,-0.01,-39.61,21.91,-20.49
9509,-0.46,6.35,-8.03,-0.00,0.00,-0.01,-39.61,21.91,-20.49
9520,-0.46,6.34,-8.06,-0.00,0.00,-0.01,-39.61,21.91,-20.49
9531,-0.46,6.34,-8.06,-0.00,0.00,-0.01,-39.61,21.91,-20.49
9542,-0.47,6.34,-8.04,-0.00,0.00,-0.01,-39.61,21.91,-20.49
9553,-0.47,6.34,-8.04,-0.00,0.00,-0.01,-39.61,21.91,-20.49
9564,-0.46,6.36,-8.04,-0.00,0.00,-0.01,-39.61,21.91,-20.49
9575,-0.46,6.36,-8.04,-0.00,0.00,-0.01,-39.61,21.91,-20.49
9586,-0.45,6.36,-8.05,-0.00,0.00,-0.01,-39.37,20.46,-19.44
9597,-0.47,6.35,-8.06,-0.00,0.00,-0.01,-39.37,20.46,-19.44
9608,-0.47,6.35,-8.06,-0.00,0.00,-0.01,-39.37,20.46,-19.44
9619,-0.47,6.33,-8.04,-0.00,0.00,-0.01,-39.37,20.46,-19.44
9630,-0.47,6.33,-8.04,-0.00,0.00,-0.01,-39.37,20.46,-19.44
9641,-0.47,6.33,-8.07,-0.00,0.00,-0.01,-39.37,20.46,-19.44
9652,-0.47,6.33,-8.07,-0.00,0.00,-0.01,-39.37,20.46,-19.44
9663,-0.46,6.34,-8.04,-0.00,0.00,-0.01,-39.37,20.46,-19.44
9674,-0.46,6.34,-8.04,-0.00,0.00,-0.01,-39.37,20.46,-19.44
9685,-0.47,6.36,-8.04,-0.00,0.00,-0.01,-39.37,20.46,-19.44
9696,-0.47,6.36,-8.04,-0.00,0.00,-0.01,-39.37,20.46,-19.44
9707,-0.48,6.35,-8.05,-0.00,0.00,-0.01,-39.37,20.46,-19.44
9718,-0.47,6.35,-8.07,-0.00,0.00,-0.01,-39.13,20.95,-20.49
9729,-0.47,6.35,-8.07,-0.00,0.00,-0.01,-39.13,20.95,-20.49
9740,-0.48,6.35,-8.09,-0.00,0.00,-0.01,-39.13,20.95,-20.49
9751,-0.48,6.35,-8.09,-0.00,0.00,-0.01,-39.13,20.95,-20.49
9762,-0.47,6.35,-8.04,-0.00,-0.00,-0.01,-39.13,20.95,-20.49
9773,-0.47,6.35,-8.04,-0.00,-0.00,-0.01,-39.13,20.95,-20.49
9784,-0.47,6.36,-8.02,-0.00,0.00,-0.01,-39.13,20.95,-20.49
9795,-0.47,6.36,-8.02,-0.00,0.00,-0.01,-39.13,20.95,-20.49
9806,-0.48,6.36,-8.04,-0.00,0.00,-0.01,-39.13,20.95,-20.49
9817,-0.46,6.35,-8.06,-0.00,0.00,-0.01,-39.13,20.95,-20.49
9828,-0.46,6.35,-8.06,-0.00,0.00,-0.01,-39.13,20.95,-20.49
9839,-0.48,6.34,-8.08,-0.00,0.00,-0.01,-40.08,21.27,-19.59
9850,-0.48,6.34,-8.08,-0.00,0.00,-0.01,-40.08,21.27,-19.59
9861,-0.47,6.35,-8.06,-0.00,0.00,-0.01,-40.08,21.27,-19.59
9872,-0.47,6.35,-8.06,-0.00,0.00,-0.01,-40.08,21.27,-19.59
9883,-0.48,6.36,-8.06,-0.00,0.00,-0.01,-40.08,21.27,-19.59
9894,-0.48,6.36,-8.06,-0.00,0.00,-0.01,-40.08,21.27,-19.59
9906,-0.47,6.34,-8.07,-0.00,0.00,-0.01,-40.08,21.27,-19.59
9916,-0.47,6.34,-8.07,-0.00,0.00,-0.01,-40.08,21.27,-19.59
9927,-0.47,6.35,-8.05,-0.00,0.00,-0.01,-40.08,21.27,-19.59
9938,-0.48,6.35,-8.02,-0.00,0.00,-0.01,-40.08,21.27,-19.59
9949,-0.48,6.35,-8.02,-0.00,0.00,-0.01,-40.08,21.27,-19.59
9960,-0.47,6.35,-8.06,-0.00,0.00,-0.01,-39.84,21.11,-20.34
9971,-0.47,6.35,-8.06,-0.00,0.00,-0.01,-39.84,21.11,-20.34
9982,-0.47,6.35,-8.06,-0.00,0.00,-0.01,-39.84,21.11,-20.34
9993,-0.47,6.35,-8.06,-0.00,0.00,-0.01,-39.84,21.11,-20.34
10004,-0.48,6.35,-8.06,-0.00,0.00,-0.01,-39.84,21.11,-20.34
10015,-0.48,6.35,-8.06,-0.00,0.00,-0.01,-39.84,21.11,-20.34
10026,-0.46,6.35,-8.05,-0.00,0.00,-0.01,-39.84,21.11,-20.34
10037,-0.47,6.36,-8.05,-0.00,0.00,-0.01,-39.84,21.11,-20.34
10048,-0.47,6.36,-8.05,-0.00,0.00,-0.01,-39.84,21.11,-20.34
10059,-0.47,6.37,-8.08,-0.00,0.00,-0.01,-39.84,21.11,-20.34
10070,-0.47,6.37,-8.08,-0.00,0.00,-0.01,-39.84,21.11,-20.34
10081,-0.48,6.35,-8.06,-0.00,-0.00,-0.01,-39.84,21.11,-20.34
10092,-0.48,6.35,-8.06,-0.00,-0.00,-0.01,-39.84,21.11,-20.34
10103,-0.49,6.36,-8.06,-0.00,0.00,-0.01,-38.89,20.14,-20.63
10114,-0.49,6.36,-8.06,-0.00,0.00,-0.01,-38.89,20.14,-20.63
10125,-0.46,6.37,-8.05,-0.00,0.00,-0.01,-38.89,20.14,-20.63
10136,-0.46,6.37,-8.05,-0.00,0.00,-0.01,-38.89,20.14,-20.63
10147,-0.48,6.36,-8.04,-0.00,0.00,-0.01,-38.89,20.14,-20.63
10158,-0.46,6.36,-8.05,-0.00,0.00,-0.01,-38.89,20.14,-20.63
10169,-0.46,6.36,-8.05,-0.00,0.00,-0.01,-38.89,20.14,-20.63
10180,-0.47,6.37,-8.04,-0.00,0.00,-0.01,-38.89,20.14,-20.63
10191,-0.47,6.37,-8.04,-0.00,0.00,-0.01,-38.89,20.14,-20.63
10202,-0.46,6.36,-8.06,-0.00,0.00,-0.01,-38.89,20.14,-20.63
10213,-0.46,6.36,-8.06,-0.00,0.00,-0.01,-38.89,20.14,-20.63
10224,-0.48,6.35,-8.07,-0.00,0.00,-0.01,-40.08,21.91,-19.30
10235,-0.48,6.35,-8.07,-0.00,0.00,-0.01,-40.08,21.91,-19.30
10246,-0.48,6.34,-8.06,-0.00,0.00,-0.01,-40.08,21.91,-19.30
10257,-0.48,6.34,-8.07,-0.00,0.00,-0.01,-40.08,21.91,-19.30
10268,-0.48,6.34,-8.07,-0.00,0.00,-0.01,-40.08,21.91,-19.30
10279,-0.46,6.35,-8.05,-0.00,0.00,-0.01,-40.08,21.91,-19.30
10290,-0.46,6.35,-8.05,-0.00,0.00,-0.01,-40.08,21.91,-19.30
10301,-0.46,6.36,-8.05,-0.00,0.00,-0.01,-40.08,21.91,-19.30
10312,-0.46,6.36,-8.05,-0.00,0.00,-0.01,-40.08,21.91,-19.30
10323,-0.47,6.34,-8.06,-0.00,-0.00,-0.01,-40.08,21.91,-19.30
10334,-0.47,6.34,-8.06,-0.00,-0.00,-0.01,-40.08,21.91,-19.30
10345,-0.47,6.34,-8.07,-0.00,0.00,-0.01,-38.42,21.11,-20.04
10356,-0.47,6.34,-8.07,-0.00,0.00,-0.01,-38.42,21.11,-20.04
10367,-0.47,6.36,-8.04,-0.00,0.00,-0.01,-38.42,21.11,-20.04
10378,-0.47,6.38,-8.05,-0.00,0.00,-0.01,-38.42,21.11,-20.04
10389,-0.47,6.38,-8.05,-0.00,0.00,-0.01,-38.42,21.11,-20.04
10400,-0.46,6.37,-8.03,-0.00,0.00,-0.01,-38.42,21.11,-20.04
10411,-0.46,6.37,-8.03,-0.00,0.00,-0.01,-38.42,21.11,-20.04
10422,-0.48,6.36,-8.06,-0.00,0.00,-0.01,-38.42,21.11,-20.04
10433,-0.48,6.36,-8.06,-0.00,0.00,-0.01,-38.42,21.11,-20.04
10444,-0.47,6.35,-8.07,-0.00,0.00,-0.01,-38.42,21.11,-20.04
10455,-0.47,6.35,-8.07,-0.00,0.00,-0.01,-38.42,21.11,-20.04
10466,-0.47,6.34,-8.06,-0.00,0.00,-0.01,-37.23,20.30,-19.59
10477,-0.47,6.34,-8.06,-0.00,0.00,-0.01,-37.23,20.30,-19.59
10488,-0.47,6.37,-8.06,-0.00,0.00,-0.01,-37.23,20.30,-19.59
10499,-0.45,6.36,-8.07,-0.00,0.00,-0.01,-37.23,20.30,-19.59
10510,-0.45,6.36,-8.07,-0.00,0.00,-0.01,-37.23,20.30,-19.59
10521,-0.47,6.36,-8.06,-0.00,0.00,-0.01,-37.23,20.30,-19.59
10533,-0.47,6.36,-8.06,-0.00,0.00,-0.01,-37.23,20.30,-19.59
10543,-0.47,6.34,-8.08,-0.00,0.00,-0.01,-37.23,20.30,-19.59
10554,-0.47,6.34,-8.08,-0.00,0.00,-0.01,-37.23,20.30,-19.59
10565,-0.48,6.35,-8.06,-0.00,0.00,-0.01,-37.23,20.30,-19.59
10576,-0.48,6.35,-8.06,-0.00,0.00,-0.01,-37.23,20.30,-19.59
10587,-0.48,6.36,-8.03,-0.00,-0.00,-0.01,-37.23,20.30,-19.59
10598,-0.46,6.36,-8.07,-0.00,-0.00,-0.01,-39.37,21.43,-19.74
10609,-0.46,6.36,-8.07,-0.00,-0.00,-0.01,-39.37,21.43,-19.74
10620,-0.46,6.35,-8.06,-0.00,-0.00,-0.01,-39.37,21.43,-19.74
10631,-0.46,6.35,-8.06,-0.00,-0.00,-0.01,-39.37,21.43,-19.74
10642,-0.48,6.35,-8.05,-0.00,0.00,-0.01,-39.37,21.43,-19.74
10653,-0.48,6.35,-8.05,-0.00,0.00,-0.01,-39.37,21.43,-19.74
10664,-0.48,6.37,-8.04,-0.00,0.00,-0.01,-39.37,21.43,-19.74
10675,-0.48,6.37,-8.04,-0.00,0.00,-0.01,-39.37,21.43,-19.74
10691,-0.47,6.37,-8.03,-0.00,0.00,-0.01,-39.37,21.43,-19.74
10697,-0.47,6.37,-8.03,-0.00,0.00,-0.01,-39.37,21.43,-19.74
10708,-0.45,6.35,-8.04,-0.00,0.00,-0.01,-39.37,21.43,-19.74
10719,-0.47,6.34,-8.05,-0.00,0.00,-0.01,-39.37,21.11,-19.74
10730,-0.47,6.34,-8.05,-0.00,0.00,-0.01,-39.37,21.11,-19.74
10741,-0.47,6.35,-8.07,-0.00,0.00,-0.01,-39.37,21.11,-19.74
10752,-0.47,6.35,-8.07,-0.00,0.00,-0.01,-39.37,21.11,-19.74
10763,-0.47,6.35,-8.04,-0.00,0.00,-0.01,-39.37,21.11,-19.74
10774,-0.47,6.35,-8.04,-0.00,0.00,-0.01,-39.37,21.11,-19.74
10786,-0.47,6.38,-8.04,-0.00,-0.00,-0.01,-39.37,21.11,-19.74
10796,-0.47,6.38,-8.04,-0.00,-0.00,-0.01,-39.37,21.11,-19.74
10807,-0.46,6.35,-8.04,-0.00,0.00,-0.01,-39.37,21.11,-19.74
10818,-0.47,6.35,-8.07,-0.00,0.00,-0.01,-39.37,21.11,-19.74
10829,-0.47,6.35,-8.07,-0.00,0.00,-0.01,-39.37,21.11,-19.74
10840,-0.50,6.36,-8.08,-0.00,0.00,-0.01,-41.03,21.91,-20.49
10851,-0.50,6.36,-8.08,-0.00,0.00,-0.01,-41.03,21.91,-20.49
10862,-0.47,6.36,-8.08,-0.00,0.00,-0.01,-41.03,21.91,-20.49
10873,-0.47,6.36,-8.08,-0.00,0.00,-0.01,-41.03,21.91,-20.49
10884,-0.45,6.36,-8.04,-0.00,0.00,-0.01,-41.03,21.91,-20.49
10895,-0.45,6.36,-8.04,-0.00,0.00,-0.01,-41.03,21.91,-20.49
10906,-0.47,6.34,-8.05,-0.00,0.00,-0.01,-41.03,21.91,-20.49
10917,-0.47,6.34,-8.05,-0.00,0.00,-0.01,-41.03,21.91,-20.49
10928,-0.47,6.36,-8.04,-0.00,0.00,-0.01,-41.03,21.91,-20.49
10939,-0.49,6.34,-8.04,-0.00,0.00,-0.01,-41.03,21.91,-20.49
10950,-0.49,6.34,-8.04,-0.00,0.00,-0.01,-41.03,21.91,-20.49
10961,-0.49,6.36,-8.02,-0.00,0.00,-0.01,-41.03,21.91,-20.49
10972,-0.49,6.36,-8.02,-0.00,0.00,-0.01,-41.03,21.91,-20.49
10983,-0.46,6.36,-8.04,-0.00,-0.00,-0.01,-39.61,19.98,-19.89
10994,-0.46,6.36,-8.04,-0.00,-0.00,-0.01,-39.61,19.98,-19.89
11005,-0.30,6.42,-8.00,0.01,-0.00,-0.01,-39.61,19.98,-19.89
11016,-0.30,6.42,-8.00,0.01,-0.00,-0.01,-39.61,19.98,-19.89
11027,0.42,5.42,-8.93,0.05,-0.23,0.32,-39.61,19.98,-19.89
11038,-0.42,6.93,-7.57,0.02,-0.29,0.39,-39.61,19.98,-19.89
11049,-0.42,6.93,-7.57,0.02,-0.29,0.39,-39.61,19.98,-19.89
11061,-0.10,6.80,-9.10,0.17,-0.10,0.25,-39.61,19.98,-19.89
11071,-0.10,6.80,-9.10,0.17,-0.10,0.25,-39.61,19.98,-19.89
11082,-0.06,8.60,-12.04,1.74,-0.08,0.30,-39.61,19.98,-19.89
11093,-0.06,8.60,-12.04,1.74,-0.08,0.30,-39.61,19.98,-19.89
11104,-1.13,6.72,-9.39,5.67,-0.23,0.47,-38.18,19.33,-22.87
11115,-1.13,6.72,-9.39,5.67,-0.23,0.47,-38.18,19.33,-22.87
11126,-0.96,5.32,-7.92,7.53,0.14,0.39,-38.18,19.33,-22.87
11137,-0.96,5.32,-7.92,7.53,0.14,0.39,-38.18,19.33,-22.87
11148,-0.85,3.83,-9.24,7.15,0.70,-0.09,-38.18,19.33,-22.87
11159,-0.04,1.29,-14.76,5.54,0.55,-0.37,-38.18,19.33,-22.87
11170,-0.04,1.29,-14.76,5.54,0.55,-0.37,-38.18,19.33,-22.87
11181,0.64,0.91,-18.20,4.24,-0.56,-0.13,-38.18,19.33,-22.87
11192,0.64,0.91,-18.20,4.24,-0.56,-0.13,-38.18,19.33,-22.87
11203,1.28,1.35,-15.96,4.34,-2.10,0.19,-38.18,19.33,-22.87
11214,1.28,1.35,-15.96,4.34,-2.10,0.19,-38.18,19.33,-22.87
11225,-0.23,1.42,-10.21,4.55,-3.04,0.26,-39.13,-4.55,-26.14
11236,-0.23,1.42,-10.21,4.55,-3.04,0.26,-39.13,-4.55,-26.14
11247,-1.55,1.43,-9.76,3.83,-2.83,-0.21,-39.13,-4.55,-26.14
11258,-1.27,-0.56,-12.68,4.36,-2.33,-0.66,-39.13,-4.55,-26.14
11269,-1.27,-0.56,-12.68,4.36,-2.33,-0.66,-39.13,-4.55,-26.14
11280,-0.57,-2.20,-14.05,6.38,-2.59,-0.57,-39.13,-4.55,-26.14
11291,-0.57,-2.20,-14.05,6.38,-2.59,-0.57,-39.13,-4.55,-26.14
11302,-0.37,-3.48,-13.86,7.89,-3.55,-0.23,-39.13,-4.55,-26.14
11313,-0.37,-3.48,-13.86,7.89,-3.55,-0.23,-39.13,-4.55,-26.14
11324,0.40,-3.44,-11.76,8.05,-4.93,0.19,-39.13,-4.55,-26.14
11335,0.40,-3.44,-11.76,8.05,-4.93,0.19,-39.13,-4.55,-26.14
11346,-0.68,-0.57,-8.55,7.12,-6.26,0.59,-39.13,-4.55,-26.14
11357,-0.68,-0.57,-8.55,7.12,-6.26,0.59,-39.13,-4.55,-26.14
11368,-0.83,0.09,0.97,9.33,-6.36,1.44,-58.86,-25.69,-5.46
11379,-3.87,2.93,3.57,9.86,-4.93,1.36,-58.86,-25.69,-5.46
11390,-3.87,2.93,3.57,9.86,-4.93,1.36,-58.86,-25.69,-5.46
11401,-5.61,2.47,2.79,11.61,-3.60,0.33,-58.86,-25.69,-5.46
11412,-5.61,2.47,2.79,11.61,-3.60,0.33,-58.86,-25.69,-5.46
11423,-3.52,-8.02,9.46,14.57,-3.44,-0.25,-58.86,-25.69,-5.46
11434,-3.52,-8.02,9.46,14.57,-3.44,-0.25,-58.86,-25.69,-5.46
11445,-3.40,-12.34,20.56,9.40,-2.75,1.00,-58.86,-25.69,-5.46
11456,-3.40,-12.34,20.56,9.40,-2.75,1.00,-58.86,-25.69,-5.46
11467,-3.98,-3.02,7.61,1.50,-0.33,2.05,-58.86,-25.69,-5.46
11478,-3.98,-3.02,7.61,1.50,-0.33,2.05,-58.86,-25.69,-5.46
11489,-4.44,-3.15,2.55,1.18,0.13,1.76,-61.00,-13.59,25.63
11500,-5.49,-3.52,3.79,1.63,-0.55,1.69,-61.00,-13.59,25.63
11511,-5.49,-3.52,3.79,1.63,-0.55,1.69,-61.00,-13.59,25.63
11522,-6.64,-3.10,6.22,1.68,-0.96,1.71,-61.00,-13.59,25.63
11533,-6.64,-3.10,6.22,1.68,-0.96,1.71,-61.00,-13.59,25.63
11544,-4.53,-1.83,6.73,1.41,-0.79,1.66,-61.00,-13.59,25.63
11555,-4.53,-1.83,6.73,1.41,-0.79,1.66,-61.00,-13.59,25.63
11566,-5.41,-2.64,7.37,0.80,-0.75,1.46,-61.00,-13.59,25.63
11577,-5.41,-2.64,7.37,0.80,-0.75,1.46,-61.00,-13.59,25.63
11588,-7.32,-3.76,7.43,-0.03,-0.77,1.55,-61.00,-13.59,25.63
11599,-5.49,-3.85,7.60,0.41,-0.57,1.98,-57.91,-4.07,29.05
11610,-5.49,-3.85,7.60,0.41,-0.57,1.98,-57.91,-4.07,29.05
11621,-6.82,-0.60,8.95,1.78,-0.26,2.22,-57.91,-4.07,29.05
11632,-6.82,-0.60,8.95,1.78,-0.26,2.22,-57.91,-4.07,29.05
11643,-5.39,1.98,7.97,1.37,0.12,1.46,-57.91,-4.07,29.05
11654,-5.39,1.98,7.97,1.37,0.12,1.46,-57.91,-4.07,29.05
11665,-5.44,-0.68,10.36,0.98,0.43,0.72,-57.91,-4.07,29.05
11676,-5.44,-0.68,10.36,0.98,0.43,0.72,-57.91,-4.07,29.05
11687,-6.78,-2.96,11.40,0.93,0.96,0.61,-57.91,-4.07,29.05
11698,-6.78,-2.96,11.40,0.93,0.96,0.61,-57.91,-4.07,29.05
11709,-5.18,-5.63,11.11,0.82,1.52,1.12,-57.91,-4.07,29.05
11720,-5.06,-4.29,5.98,-1.10,1.74,2.22,-60.05,6.42,28.01
11731,-5.06,-4.29,5.98,-1.10,1.74,2.22,-60.05,6.42,28.01
11742,-6.51,2.47,5.15,-3.22,1.17,2.79,-60.05,6.42,28.01
11753,-6.51,2.47,5.15,-3.22,1.17,2.79,-60.05,6.42,28.01
11764,-5.50,3.40,6.31,-2.60,0.76,1.80,-60.05,6.42,28.01
11775,-5.50,3.40,6.31,-2.60,0.76,1.80,-60.05,6.42,28.01
11786,-8.16,-0.79,5.34,-1.11,0.61,0.66,-60.05,6.42,28.01
11797,-8.16,-0.79,5.34,-1.11,0.61,0.66,-60.05,6.42,28.01
11808,-5.96,-4.95,6.95,0.16,0.40,0.58,-60.05,6.42,28.01
11819,-6.36,-5.70,3.52,0.05,0.41,1.57,-60.05,6.42,28.01
11830,-6.36,-5.70,3.52,0.05,0.41,1.57,-60.05,6.42,28.01
11841,-7.08,-2.30,2.77,1.16,0.22,2.73,-60.05,6.42,28.01
11852,-7.08,-2.30,2.77,1.16,0.22,2.73,-60.05,6.42,28.01
11863,-5.76,-0.96,2.11,-0.03,-0.31,2.92,-59.34,12.07,25.78
11874,-5.76,-0.96,2.11,-0.03,-0.31,2.92,-59.34,12.07,25.78
11885,-6.09,-0.70,0.98,-0.68,-1.25,2.88,-59.34,12.07,25.78
11896,-6.09,-0.70,0.98,-0.68,-1.25,2.88,-59.34,12.07,25.78
11907,-4.99,-0.47,1.21,-0.59,-2.37,2.97,-59.34,12.07,25.78
11918,-4.99,-0.47,1.21,-0.59,-2.37,2.97,-59.34,12.07,25.78
11929,-5.08,0.89,7.94,-3.46,-3.81,2.92,-59.34,12.07,25.78
11940,-11.93,8.62,22.11,-7.57,-3.72,1.74,-59.34,12.07,25.78
11951,-11.93,8.62,22.11,-7.57,-3.72,1.74,-59.34,12.07,25.78
11962,-7.14,5.53,6.71,-5.46,-0.56,0.29,-59.34,12.07,25.78
11973,-7.14,5.53,6.71,-5.46,-0.56,0.29,-59.34,12.07,25.78
11984,-4.64,0.29,8.77,-4.32,-0.09,-0.95,-44.12,4.00,38.27
11995,-4.64,0.29,8.77,-4.32,-0.09,-0.95,-44.12,4.00,38.27
12006,-8.05,-1.42,5.16,-5.08,0.12,-1.63,-44.12,4.00,38.27
12017,-8.05,-1.42,5.16,-5.08,0.12,-1.63,-44.12,4.00,38.27
12028,-4.56,-3.88,3.59,-3.26,-0.14,-1.48,-44.12,4.00,38.27
12039,-6.71,-3.29,8.50,-3.03,-0.81,-1.16,-44.12,4.00,38.27
12050,-6.71,-3.29,8.50,-3.03,-0.81,-1.16,-44.12,4.00,38.27
12061,-6.17,-0.97,8.38,-4.13,-0.49,-1.23,-44.12,4.00,38.27
12072,-6.17,-0.97,8.38,-4.13,-0.49,-1.23,-44.12,4.00,38.27
12083,-4.90,-5.59,5.73,-3.27,0.49,-1.34,-44.12,4.00,38.27
12094,-4.90,-5.59,5.73,-3.27,0.49,-1.34,-44.12,4.00,38.27
12105,-4.13,-6.66,3.52,-1.66,0.70,-0.87,-44.36,-13.26,37.83
12116,-4.13,-6.66,3.52,-1.66,0.70,-0.87,-44.36,-13.26,37.83
12127,-3.47,-6.54,4.54,0.03,0.25,-0.37,-44.36,-13.26,37.83
12138,-3.47,-6.54,4.54,0.03,0.25,-0.37,-44.36,-13.26,37.83
12149,-3.98,-5.75,7.09,0.47,-0.10,-0.23,-44.36,-13.26,37.83
12160,-6.46,-6.68,7.71,0.28,0.04,-0.12,-44.36,-13.26,37.83
12171,-6.46,-6.68,7.71,0.28,0.04,-0.12,-44.36,-13.26,37.83
12182,-4.81,-6.00,5.59,0.45,0.17,0.34,-44.36,-13.26,37.83
12193,-4.81,-6.00,5.59,0.45,0.17,0.34,-44.36,-13.26,37.83
12204,-4.35,-4.07,6.17,0.66,0.01,0.20,-44.36,-13.26,37.83
12215,-4.35,-4.07,6.17,0.66,0.01,0.20,-44.36,-13.26,37.83
12226,-3.97,-4.54,3.80,1.86,0.19,0.01,-44.36,-13.26,37.83
12238,-3.97,-4.54,3.80,1.86,0.19,0.01,-44.36,-13.26,37.83
12248,-3.76,-4.26,5.30,3.62,0.06,0.30,-44.36,-11.97,37.83
12259,-6.21,-2.84,5.66,4.37,0.00,0.30,-44.36,-11.97,37.83
12270,-6.21,-2.84,5.66,4.37,0.00,0.30,-44.36,-11.97,37.83
12281,-7.94,-3.52,6.89,5.28,0.20,0.15,-44.36,-11.97,37.83
12292,-7.94,-3.52,6.89,5.28,0.20,0.15,-44.36,-11.97,37.83
12303,-11.07,-4.21,5.40,4.41,0.23,0.05,-44.36,-11.97,37.83
12314,-11.07,-4.21,5.40,4.41,0.23,0.05,-44.36,-11.97,37.83
12325,-5.45,-2.37,9.83,1.64,-0.13,0.08,-44.36,-11.97,37.83
12336,-5.45,-2.37,9.83,1.64,-0.13,0.08,-44.36,-11.97,37.83
12347,-6.67,-2.95,9.20,-1.33,0.34,-0.10,-44.36,-11.97,37.83
12358,-6.67,-2.95,9.20,-1.33,0.34,-0.10,-44.36,-11.97,37.83
12369,-5.63,-3.81,7.08,-2.85,0.96,-0.19,-46.74,-0.68,36.64
12380,-6.33,-3.29,3.53,-2.41,1.16,0.13,-46.74,-0.68,36.64
12391,-6.33,-3.29,3.53,-2.41,1.16,0.13,-46.74,-0.68,36.64
12402,-7.23,-4.46,7.75,-0.06,1.24,0.33,-46.74,-0.68,36.64
12413,-7.23,-4.46,7.75,-0.06,1.24,0.33,-46.74,-0.68,36.64
12424,-7.90,-3.13,7.40,-1.32,1.49,0.39,-46.74,-0.68,36.64
12435,-7.90,-3.13,7.40,-1.32,1.49,0.39,-46.74,-0.68,36.64
12446,-7.20,-3.35,4.55,-2.30,1.62,0.38,-46.74,-0.68,36.64
12457,-7.20,-3.35,4.55,-2.30,1.62,0.38,-46.74,-0.68,36.64
12468,-7.97,-3.60,4.87,-2.08,1.32,0.44,-46.74,-0.68,36.64
12479,-7.97,-3.60,4.87,-2.08,1.32,0.44,-46.74,-0.68,36.64
12490,-8.37,-3.50,6.63,-2.16,1.09,0.35,-52.92,-5.20,33.66
12501,-9.31,-4.87,5.59,-2.39,1.28,0.17,-52.92,-5.20,33.66
12512,-9.31,-4.87,5.59,-2.39,1.28,0.17,-52.92,-5.20,33.66
12523,-7.22,-5.47,2.72,-4.17,1.27,0.17,-52.92,-5.20,33.66
12534,-7.22,-5.47,2.72,-4.17,1.27,0.17,-52.92,-5.20,33.66
12545,-7.79,-5.58,1.23,-3.98,0.98,0.44,-52.92,-5.20,33.66
12556,-7.79,-5.58,1.23,-3.98,0.98,0.44,-52.92,-5.20,33.66
12567,-8.46,-4.96,0.83,-3.00,0.51,0.65,-52.92,-5.20,33.66
12578,-8.46,-4.96,0.83,-3.00,0.51,0.65,-52.92,-5.20,33.66
12589,-8.62,-5.11,0.25,-2.76,-0.01,0.52,-52.92,-5.20,33.66
12600,-6.49,-7.54,3.81,-3.14,-0.47,0.42,-52.92,-5.20,33.66
12611,-6.49,-7.54,3.81,-3.14,-0.47,0.42,-52.92,-5.20,33.66
12622,-6.60,-6.12,-0.70,-4.02,-0.62,0.74,-52.92,-5.20,33.66
12633,-6.60,-6.12,-0.70,-4.02,-0.62,0.74,-52.92,-5.20,33.66
12644,-6.31,-4.45,-0.98,-1.20,-0.96,1.09,-52.92,-5.20,33.66
12655,-6.31,-4.45,-0.98,-1.20,-0.96,1.09,-52.92,-5.20,33.66
12666,-6.95,-4.63,1.91,0.96,-1.40,1.10,-52.92,-5.20,33.66
12677,-6.95,-4.63,1.91,0.96,-1.40,1.10,-52.92,-5.20,33.66
12688,-6.52,-4.95,6.90,1.34,-1.54,0.95,-52.92,-5.20,33.66
12699,-6.52,-4.95,6.90,1.34,-1.54,0.95,-52.92,-5.20,33.66
12710,-8.43,-4.24,6.99,1.22,-1.04,0.76,-52.92,-5.20,33.66
12721,-8.71,-3.87,2.21,2.06,-0.49,0.60,-52.92,-5.20,33.66
12732,-8.71,-3.87,2.21,2.06,-0.49,0.60,-52.92,-5.20,33.66
12743,-8.88,-3.54,3.80,3.18,-0.75,0.54,-53.87,-10.68,32.17
12759,-8.88,-3.54,3.80,3.18,-0.75,0.54,-53.87,-10.68,32.17
12765,-9.53,-2.97,8.21,2.93,-0.87,0.46,-53.87,-10.68,32.17
12776,-9.53,-2.97,8.21,2.93,-0.87,0.46,-53.87,-10.68,32.17
12787,-8.56,-1.79,8.05,0.52,-0.40,0.07,-53.87,-10.68,32.17
12798,-8.56,-1.79,8.05,0.52,-0.40,0.07,-53.87,-10.68,32.17
12809,-6.55,-2.14,4.17,-0.53,0.18,-0.28,-53.87,-10.68,32.17
12820,-6.51,-4.41,3.87,0.45,0.32,-0.30,-53.87,-10.68,32.17
12831,-6.51,-4.41,3.87,0.45,0.32,-0.30,-53.87,-10.68,32.17
12842,-7.85,-4.36,6.38,0.68,0.09,-0.07,-53.87,-10.68,32.17
12853,-7.85,-4.36,6.38,0.68,0.09,-0.07,-53.87,-10.68,32.17
12864,-8.02,-2.98,5.57,0.03,0.29,-0.08,-53.16,-5.68,34.11
12875,-8.02,-2.98,5.57,0.03,0.29,-0.08,-53.16,-5.68,34.11
12886,-8.42,-3.82,5.92,-1.01,0.65,-0.35,-53.16,-5.68,34.11
12897,-8.42,-3.82,5.92,-1.01,0.65,-0.35,-53.16,-5.68,34.11
12908,-7.58,-3.39,2.98,-1.86,1.26,-0.62,-53.16,-5.68,34.11
12919,-7.58,-3.39,2.98,-1.86,1.26,-0.62,-53.16,-5.68,34.11
12930,-8.13,-4.94,0.38,-1.21,1.36,-0.71,-53.16,-5.68,34.11
12941,-9.01,-7.45,0.74,-0.17,0.60,-0.37,-53.16,-5.68,34.11
12952,-9.01,-7.45,0.74,-0.17,0.60,-0.37,-53.16,-5.68,34.11
12963,-7.70,-6.33,3.09,-0.35,-0.30,0.30,-53.16,-5.68,34.11
12974,-7.70,-6.33,3.09,-0.35,-0.30,0.30,-53.16,-5.68,34.11
12985,-7.99,-4.48,4.92,-0.38,-0.17,0.66,-55.77,-8.42,31.28
12996,-7.99,-4.48,4.92,-0.38,-0.17,0.66,-55.77,-8.42,31.28
13007,-8.51,-2.87,1.44,-0.47,0.24,0.68,-55.77,-8.42,31.28
13018,-8.51,-2.87,1.44,-0.47,0.24,0.68,-55.77,-8.42,31.28
13029,-8.07,-2.56,0.31,-0.08,-0.09,0.61,-55.77,-8.42,31.28
13040,-8.19,-3.97,3.28,0.72,-0.75,0.64,-55.77,-8.42,31.28
13051,-8.19,-3.97,3.28,0.72,-0.75,0.64,-55.77,-8.42,31.28
13062,-9.01,-3.73,5.76,0.72,-0.79,0.76,-55.77,-8.42,31.28
13073,-9.01,-3.73,5.76,0.72,-0.79,0.76,-55.77,-8.42,31.28
13089,-8.51,-2.37,4.93,0.17,-0.40,0.52,-55.77,-8.42,31.28
13095,-8.51,-2.37,4.93,0.17,-0.40,0.52,-55.77,-8.42,31.28
13106,-7.77,-3.87,4.11,-0.09,-0.24,0.10,-55.77,-8.42,31.28
13117,-7.77,-3.87,4.11,-0.09,-0.24,0.10,-55.77,-8.42,31.28
13128,-8.30,-3.81,4.40,-0.23,-0.32,0.10,-55.29,-6.16,33.36
13139,-8.30,-3.81,4.40,-0.23,-0.32,0.10,-55.29,-6.16,33.36
13150,-8.80,-3.72,5.71,-0.46,-0.31,0.16,-55.29,-6.16,33.36
13161,-8.16,-3.41,2.19,-1.66,-0.01,0.20,-55.29,-6.16,33.36
13172,-8.16,-3.41,2.19,-1.66,-0.01,0.20,-55.29,-6.16,33.36
13183,-7.18,-3.29,2.36,-0.10,-0.11,0.05,-55.29,-6.16,33.36
13194,-7.18,-3.29,2.36,-0.10,-0.11,0.05,-55.29,-6.16,33.36
13205,-7.70,-5.99,4.22,0.70,-0.08,-0.08,-55.29,-6.16,33.36
13216,-7.70,-5.99,4.22,0.70,-0.08,-0.08,-55.29,-6.16,33.36
13227,-8.29,-2.70,3.54,0.83,0.04,0.16,-55.29,-6.16,33.36
13238,-8.29,-2.70,3.54,0.83,0.04,0.16,-55.29,-6.16,33.36
13250,-8.66,-2.61,4.29,0.82,-0.16,0.02,-52.68,-6.00,32.03
13260,-8.66,-2.61,4.29,0.82,-0.16,0.02,-52.68,-6.00,32.03
13271,-8.06,-3.51,4.58,0.67,-0.32,-0.03,-52.68,-6.00,32.03
13282,-8.62,-3.28,4.97,0.49,-0.30,0.03,-52.68,-6.00,32.03
13293,-8.62,-3.28,4.97,0.49,-0.30,0.03,-52.68,-6.00,32.03
13304,-8.20,-3.63,4.57,0.21,-0.17,-0.09,-52.68,-6.00,32.03
13315,-8.20,-3.63,4.57,0.21,-0.17,-0.09,-52.68,-6.00,32.03
13326,-7.96,-3.71,4.21,0.04,-0.06,-0.12,-52.68,-6.00,32.03
13337,-7.96,-3.71,4.21,0.04,-0.06,-0.12,-52.68,-6.00,32.03
13348,-7.90,-3.55,3.95,0.03,-0.06,-0.06,-52.68,-6.00,32.03
13359,-7.90,-3.55,3.95,0.03,-0.06,-0.06,-52.68,-6.00,32.03
13370,-7.99,-3.60,4.21,0.12,-0.16,0.04,-54.34,-5.84,32.77
13381,-7.97,-3.44,4.31,0.24,-0.18,0.12,-54.34,-5.84,32.77
13392,-7.97,-3.44,4.31,0.24,-0.18,0.12,-54.34,-5.84,32.77
13403,-8.11,-3.30,4.57,0.29,-0.18,0.12,-54.34,-5.84,32.77
13414,-8.11,-3.30,4.57,0.29,-0.18,0.12,-54.34,-5.84,32.77
13425,-7.86,-3.38,4.66,0.24,-0.14,0.06,-54.34,-5.84,32.77
13436,-7.86,-3.38,4.66,0.24,-0.14,0.06,-54.34,-5.84,32.77
13447,-8.12,-3.31,4.56,0.21,-0.07,0.01,-54.34,-5.84,32.77
13458,-8.12,-3.31,4.56,0.21,-0.07,0.01,-54.34,-5.84,32.77
13469,-8.16,-3.44,4.62,0.18,-0.03,0.01,-54.34,-5.84,32.77
13480,-8.16,-3.44,4.62,0.18,-0.03,0.01,-54.34,-5.84,32.77
13491,-7.84,-3.61,4.35,0.11,-0.01,0.03,-54.34,-5.84,32.77
13502,-8.17,-3.62,4.17,0.17,0.00,0.10,-52.20,-3.42,34.11
13513,-8.17,-3.62,4.17,0.17,0.00,0.10,-52.20,-3.42,34.11
13524,-8.21,-2.92,4.73,0.15,-0.12,0.08,-52.20,-3.42,34.11
13535,-8.21,-2.92,4.73,0.15,-0.12,0.08,-52.20,-3.42,34.11
13546,-8.48,-3.22,4.71,0.05,-0.15,-0.02,-52.20,-3.42,34.11
13557,-8.48,-3.22,4.71,0.05,-0.15,-0.02,-52.20,-3.42,34.11
13568,-8.27,-3.13,4.44,-0.01,-0.11,-0.00,-52.20,-3.42,34.11
13579,-8.27,-3.13,4.44,-0.01,-0.11,-0.00,-52.20,-3.42,34.11
13590,-8.55,-2.77,5.44,0.00,-0.04,0.02,-52.20,-3.42,34.11
13601,-8.16,-3.00,4.91,-0.02,0.11,-0.02,-52.20,-3.42,34.11
13612,-8.16,-3.00,4.91,-0.02,0.11,-0.02,-52.20,-3.42,34.11
13623,-8.35,-3.33,4.96,-0.11,0.20,0.07,-52.44,-3.90,34.55
13634,-8.35,-3.33,4.96,-0.11,0.20,0.07,-52.44,-3.90,34.55
13645,-8.20,-3.65,4.98,-0.18,0.23,0.21,-52.44,-3.90,34.55
13656,-8.20,-3.65,4.98,-0.18,0.23,0.21,-52.44,-3.90,34.55
13667,-7.62,-4.28,4.53,-0.29,0.16,0.44,-52.44,-3.90,34.55
13678,-7.62,-4.28,4.53,-0.29,0.16,0.44,-52.44,-3.90,34.55
13689,-7.43,-2.55,4.34,-0.27,-0.05,0.67,-52.44,-3.90,34.55
13705,-7.43,-2.55,4.34,-0.27,-0.05,0.67,-52.44,-3.90,34.55
13711,-7.44,-1.92,3.93,-0.11,-0.26,0.53,-52.44,-3.90,34.55
13722,-8.32,-2.68,4.74,-0.07,-0.41,0.27,-52.44,-3.90,34.55
13733,-8.32,-2.68,4.74,-0.07,-0.41,0.27,-52.44,-3.90,34.55
13744,-8.28,-3.45,4.16,-0.14,-0.34,-0.02,-52.68,-3.42,34.11
13755,-8.28,-3.45,4.16,-0.14,-0.34,-0.02,-52.68,-3.42,34.11
13766,-8.65,-3.13,4.54,-0.13,-0.23,-0.19,-52.68,-3.42,34.11
13777,-8.65,-3.13,4.54,-0.13,-0.23,-0.19,-52.68,-3.42,34.11
13788,-8.72,-2.87,5.31,-0.08,-0.04,-0.30,-52.68,-3.42,34.11
13799,-8.72,-2.87,5.31,-0.08,-0.04,-0.30,-52.68,-3.42,34.11
13810,-8.77,-4.03,3.99,-0.09,0.30,-0.48,-52.68,-3.42,34.11
13821,-8.95,-3.02,5.45,-0.05,0.52,-0.39,-52.68,-3.42,34.11
13832,-8.95,-3.02,5.45,-0.05,0.52,-0.39,-52.68,-3.42,34.11
13843,-7.79,-3.70,4.54,0.05,0.75,-0.31,-52.68,-3.42,34.11
13854,-7.79,-3.70,4.54,0.05,0.75,-0.31,-52.68,-3.42,34.11
13865,-7.98,-3.97,4.39,0.32,0.71,-0.20,-52.68,-3.42,34.11
13876,-7.98,-3.97,4.39,0.32,0.71,-0.20,-52.68,-3.42,34.11
13887,-7.98,-2.23,3.67,0.43,0.69,-0.23,-51.73,-4.39,32.62
13898,-7.98,-2.23,3.67,0.43,0.69,-0.23,-51.73,-4.39,32.62
13909,-7.47,-2.34,4.02,0.45,0.59,-0.50,-51.73,-4.39,32.62
13920,-7.47,-2.34,4.02,0.45,0.59,-0.50,-51.73,-4.39,32.62
13931,-7.72,-3.44,4.13,0.24,0.35,-0.60,-51.73,-4.39,32.62
13942,-7.72,-3.21,3.06,-0.14,0.06,-0.46,-51.73,-4.39,32.62
13953,-7.72,-3.21,3.06,-0.14,0.06,-0.46,-51.73,-4.39,32.62
13964,-8.40,-5.53,4.43,-0.27,-0.22,-0.28,-51.73,-4.39,32.62
13975,-8.40,-5.53,4.43,-0.27,-0.22,-0.28,-51.73,-4.39,32.62
13986,-8.42,-3.69,4.08,-0.42,-0.38,0.20,-51.73,-4.39,32.62
13997,-8.42,-3.69,4.08,-0.42,-0.38,0.20,-51.73,-4.39,32.62
14009,-8.72,-3.88,4.48,-0.58,-0.38,0.34,-53.39,-6.16,32.17
14019,-8.72,-3.88,4.48,-0.58,-0.38,0.34,-53.39,-6.16,32.17
14030,-8.86,-2.95,4.89,-0.42,-0.13,0.33,-53.39,-6.16,32.17
14041,-8.53,-3.49,4.27,-0.33,0.17,0.23,-53.39,-6.16,32.17
14052,-8.53,-3.49,4.27,-0.33,0.17,0.23,-53.39,-6.16,32.17
14063,-8.37,-3.43,4.08,-0.15,0.35,0.13,-53.39,-6.16,32.17
14074,-8.37,-3.43,4.08,-0.15,0.35,0.13,-53.39,-6.16,32.17
14085,-8.14,-2.66,2.92,-0.09,0.40,0.13,-53.39,-6.16,32.17
14096,-8.14,-2.66,2.92,-0.09,0.40,0.13,-53.39,-6.16,32.17
14107,-8.21,-4.12,3.60,-0.01,0.22,0.22,-53.39,-6.16,32.17
14118,-8.21,-4.12,3.60,-0.01,0.22,0.22,-53.39,-6.16,32.17
14129,-8.12,-3.34,3.42,0.16,0.02,0.52,-57.91,-5.36,32.32
14140,-8.12,-3.34,3.42,0.16,0.02,0.52,-57.91,-5.36,32.32
14151,-7.92,-1.95,3.77,0.36,-0.25,0.57,-57.91,-5.36,32.32
14162,-7.96,-2.97,3.89,0.22,-0.35,0.28,-57.91,-5.36,32.32
14173,-7.96,-2.97,3.89,0.22,-0.35,0.28,-57.91,-5.36,32.32
14184,-8.44,-3.50,3.92,-0.05,-0.40,-0.05,-57.91,-5.36,32.32
14195,-8.44,-3.50,3.92,-0.05,-0.40,-0.05,-57.91,-5.36,32.32
14206,-9.02,-2.25,3.94,-0.14,-0.27,-0.27,-57.91,-5.36,32.32
14217,-9.02,-2.25,3.94,-0.14,-0.27,-0.27,-57.91,-5.36,32.32
14228,-9.07,-2.04,5.15,0.11,-0.03,-0.41,-57.91,-5.36,32.32
14239,-9.07,-2.04,5.15,0.11,-0.03,-0.41,-57.91,-5.36,32.32
14250,-9.26,-2.55,5.15,0.13,0.26,-0.52,-55.53,-4.71,34.11
14261,-9.26,-2.55,5.15,0.13,0.26,-0.52,-55.53,-4.71,34.11
14272,-9.53,-1.20,3.69,-0.31,0.25,-0.56,-55.53,-4.71,34.11
14283,-6.82,-4.61,3.48,-0.71,-0.17,-0.70,-55.53,-4.71,34.11
14294,-6.82,-4.61,3.48,-0.71,-0.17,-0.70,-55.53,-4.71,34.11
14305,-5.65,-4.79,1.64,-0.44,-0.53,-0.23,-55.53,-4.71,34.11
14316,-5.65,-4.79,1.64,-0.44,-0.53,-0.23,-55.53,-4.71,34.11
14327,-5.90,-5.97,3.47,0.55,-0.92,0.09,-55.53,-4.71,34.11
14338,-5.90,-5.97,3.47,0.55,-0.92,0.09,-55.53,-4.71,34.11
14349,-6.69,-7.14,6.07,0.64,-0.90,0.39,-55.53,-4.71,34.11
14360,-6.69,-7.14,6.07,0.64,-0.90,0.39,-55.53,-4.71,34.11
14371,-13.92,-4.82,3.14,0.21,-0.13,1.02,-55.53,-4.71,34.11
14382,-9.68,-2.84,5.27,-0.01,-0.23,0.92,-51.25,-5.03,33.51
14393,-9.68,-2.84,5.27,-0.01,-0.23,0.92,-51.25,-5.03,33.51
14404,-10.60,0.41,9.06,0.15,0.12,0.55,-51.25,-5.03,33.51
14415,-10.60,0.41,9.06,0.15,0.12,0.55,-51.25,-5.03,33.51
14426,-8.78,1.25,5.79,-0.43,1.26,-0.31,-51.25,-5.03,33.51
14437,-8.78,1.25,5.79,-0.43,1.26,-0.31,-51.25,-5.03,33.51
14448,-10.60,-0.20,-0.47,-0.50,1.38,-1.16,-51.25,-5.03,33.51
14459,-10.60,-0.20,-0.47,-0.50,1.38,-1.16,-51.25,-5.03,33.51
14470,-8.38,-0.86,6.18,-0.62,-0.04,-1.73,-51.25,-5.03,33.51
14481,-8.38,-0.86,6.18,-0.62,-0.04,-1.73,-51.25,-5.03,33.51
14492,-7.10,-4.37,2.37,-1.30,-0.36,-2.05,-51.25,-5.03,33.51
14503,-5.92,-8.45,3.49,-1.30,-0.59,-1.27,-53.63,-9.55,32.62
14514,-5.92,-8.45,3.49,-1.30,-0.59,-1.27,-53.63,-9.55,32.62
14526,-3.28,-9.04,2.03,-0.82,-0.37,0.04,-53.63,-9.55,32.62
14536,-3.28,-9.04,2.03,-0.82,-0.37,0.04,-53.63,-9.55,32.62
14553,-4.63,-6.54,1.37,0.41,-0.09,1.44,-53.63,-9.55,32.62
14558,-4.63,-6.54,1.37,0.41,-0.09,1.44,-53.63,-9.55,32.62
14569,-8.91,-3.99,5.75,1.03,-0.11,1.70,-53.63,-9.55,32.62
14580,-8.91,-3.99,5.75,1.03,-0.11,1.70,-53.63,-9.55,32.62
14591,-7.75,-4.83,2.61,0.75,0.18,0.78,-53.63,-9.55,32.62
14602,-8.19,-3.65,3.38,0.97,-0.03,0.57,-53.63,-9.55,32.62
14613,-8.19,-3.65,3.38,0.97,-0.03,0.57,-53.63,-9.55,32.62
14624,-9.92,-0.29,5.65,1.00,-0.21,0.57,-51.02,-4.23,32.77
14635,-9.92,-0.29,5.65,1.00,-0.21,0.57,-51.02,-4.23,32.77
14646,-10.11,0.28,6.02,0.52,-0.13,0.06,-51.02,-4.23,32.77
14657,-10.11,0.28,6.02,0.52,-0.13,0.06,-51.02,-4.23,32.77
14668,-9.40,-0.60,5.00,0.02,0.01,-0.62,-51.02,-4.23,32.77
14679,-9.40,-0.60,5.00,0.02,0.01,-0.62,-51.02,-4.23,32.77
14690,-7.38,-5.32,4.01,-0.31,0.05,-1.11,-51.02,-4.23,32.77
14701,-7.38,-5.32,4.01,-0.31,0.05,-1.11,-51.02,-4.23,32.77
14712,-6.53,-6.15,3.64,-0.25,0.08,-0.71,-51.02,-4.23,32.77
14723,-6.99,-5.88,3.76,0.11,0.13,-0.23,-51.02,-4.23,32.77
14734,-6.99,-5.88,3.76,0.11,0.13,-0.23,-51.02,-4.23,32.77
14745,-7.77,-3.95,4.27,0.34,0.15,0.04,-51.02,-4.23,32.77
14756,-7.77,-3.95,4.27,0.34,0.15,0.04,-51.02,-4.23,32.77
14767,-8.69,-2.88,4.57,0.36,0.15,0.07,-53.16,-6.32,33.81
14778,-8.69,-2.88,4.57,0.36,0.15,0.07,-53.16,-6.32,33.81
14789,-8.58,-2.55,4.49,0.15,0.10,-0.04,-53.16,-6.32,33.81
14800,-8.58,-2.55,4.49,0.15,0.10,-0.04,-53.16,-6.32,33.81
14811,-7.82,-3.21,4.40,-0.14,-0.00,-0.15,-53.16,-6.32,33.81
14822,-7.83,-4.34,4.03,-0.17,-0.03,-0.19,-53.16,-6.32,33.81
14838,-7.83,-4.34,4.03,-0.17,-0.03,-0.19,-53.16,-6.32,33.81
14844,-7.66,-4.64,3.96,0.01,0.02,-0.10,-53.16,-6.32,33.81
14855,-7.66,-4.64,3.96,0.01,0.02,-0.10,-53.16,-6.32,33.81
14866,-7.79,-3.88,4.23,0.21,0.08,0.03,-53.16,-6.32,33.81
14877,-7.79,-3.88,4.23,0.21,0.08,0.03,-53.16,-6.32,33.81
14888,-8.03,-3.59,4.38,0.20,0.10,0.06,-51.97,-4.87,33.07
14899,-8.03,-3.59,4.38,0.20,0.10,0.06,-51.97,-4.87,33.07
14910,-7.80,-4.11,4.00,0.16,0.10,0.12,-51.97,-4.87,33.07
14921,-7.80,-4.11,4.00,0.16,0.10,0.12,-51.97,-4.87,33.07
14933,-8.70,-3.57,3.37,0.26,0.10,0.24,-51.97,-4.87,33.07
14943,-8.76,-3.05,4.30,0.22,-0.03,0.20,-51.97,-4.87,33.07
14954,-8.76,-3.05,4.30,0.22,-0.03,0.20,-51.97,-4.87,33.07
14965,-8.45,-3.12,4.99,0.13,-0.04,0.14,-51.97,-4.87,33.07
14976,-8.45,-3.12,4.99,0.13,-0.04,0.14,-51.97,-4.87,33.07
14987,-8.23,-3.49,4.44,-0.05,0.05,0.12,-51.97,-4.87,33.07
14998,-8.23,-3.49,4.44,-0.05,0.05,0.12,-51.97,-4.87,33.07
15009,-7.95,-3.80,4.08,-0.11,0.02,0.22,-53.87,-5.20,32.47
15020,-7.95,-3.80,4.08,-0.11,0.02,0.22,-53.87,-5.20,32.47
15031,-7.72,-3.23,3.91,-0.10,-0.13,0.33,-53.87,-5.20,32.47
15042,-7.99,-3.17,4.33,-0.08,-0.21,0.21,-53.87,-5.20,32.47
15053,-7.99,-3.17,4.33,-0.08,-0.21,0.21,-53.87,-5.20,32.47
15064,-8.09,-3.34,4.46,-0.16,-0.15,0.02,-53.87,-5.20,32.47
15075,-8.09,-3.34,4.46,-0.16,-0.15,0.02,-53.87,-5.20,32.47
15086,-8.13,-3.41,4.48,-0.23,-0.07,-0.14,-53.87,-5.20,32.47
15097,-8.13,-3.41,4.48,-0.23,-0.07,-0.14,-53.87,-5.20,32.47
15108,-8.55,-3.66,4.29,-0.26,0.02,-0.23,-53.87,-5.20,32.47
15119,-8.55,-3.66,4.29,-0.26,0.02,-0.23,-53.87,-5.20,32.47
15130,-8.58,-3.78,4.52,-0.19,0.21,-0.26,-53.87,-5.20,32.47
15141,-8.58,-3.78,4.52,-0.19,0.21,-0.26,-53.87,-5.20,32.47
15152,-7.99,-3.35,3.87,-0.15,0.42,-0.26,-52.44,-5.52,32.77
15163,-8.16,-3.01,4.59,-0.00,0.40,-0.18,-52.44,-5.52,32.77
15174,-8.16,-3.01,4.59,-0.00,0.40,-0.18,-52.44,-5.52,32.77
15185,-8.02,-4.70,5.20,-0.01,0.40,-0.08,-52.44,-5.52,32.77
15196,-8.02,-4.70,5.20,-0.01,0.40,-0.08,-52.44,-5.52,32.77
15207,-8.06,-4.51,3.58,-0.11,0.35,0.16,-52.44,-5.52,32.77
15218,-8.06,-4.51,3.58,-0.11,0.35,0.16,-52.44,-5.52,32.77
15229,-7.86,-3.64,2.84,-0.16,0.09,0.46,-52.44,-5.52,32.77
15240,-7.86,-3.64,2.84,-0.16,0.09,0.46,-52.44,-5.52,32.77
15251,-9.55,-1.90,3.85,-0.09,-0.34,0.62,-52.44,-5.52,32.77
15262,-9.55,-1.90,3.85,-0.09,-0.34,0.62,-52.44,-5.52,32.77
15273,-9.71,0.78,5.40,-0.79,-0.80,0.12,-53.87,-5.84,33.36
15284,-7.53,-4.01,3.97,-1.36,-0.82,-0.50,-53.87,-5.84,33.36
15295,-7.53,-4.01,3.97,-1.36,-0.82,-0.50,-53.87,-5.84,33.36
15306,-5.85,-6.58,2.76,-0.90,-0.64,-0.03,-53.87,-5.84,33.36
15317,-5.85,-6.58,2.76,-0.90,-0.64,-0.03,-53.87,-5.84,33.36
15328,-8.60,-1.00,6.85,-0.22,-0.40,0.66,-53.87,-5.84,33.36
15339,-8.60,-1.00,6.85,-0.22,-0.40,0.66,-53.87,-5.84,33.36
15350,-7.63,-6.07,3.41,-0.26,0.34,-0.23,-53.87,-5.84,33.36
15361,-7.63,-6.07,3.41,-0.26,0.34,-0.23,-53.87,-5.84,33.36
15372,-6.12,-8.65,2.06,0.00,0.59,-0.68,-53.87,-5.84,33.36
15383,-7.39,-5.50,0.85,0.59,0.45,-0.17,-54.11,-8.58,33.51
15394,-7.39,-5.50,0.85,0.59,0.45,-0.17,-54.11,-8.58,33.51
15405,-8.89,-2.36,5.80,0.81,-0.04,0.05,-54.11,-8.58,33.51
15416,-8.89,-2.36,5.80,0.81,-0.04,0.05,-54.11,-8.58,33.51
15427,-8.47,-3.34,3.52,0.52,0.15,-0.32,-54.11,-8.58,33.51
15438,-8.47,-3.34,3.52,0.52,0.15,-0.32,-54.11,-8.58,33.51
15449,-8.22,-3.32,4.76,0.46,0.04,-0.31,-54.11,-8.58,33.51
15460,-8.22,-3.32,4.76,0.46,0.04,-0.31,-54.11,-8.58,33.51
15471,-7.98,-3.62,4.06,0.37,0.07,-0.19,-54.11,-8.58,33.51
15482,-7.98,-3.62,4.06,0.37,0.07,-0.19,-54.11,-8.58,33.51
15493,-8.01,-3.19,4.64,0.33,0.02,-0.06,-54.11,-8.58,33.51
15504,-8.32,-3.55,4.47,0.28,0.03,0.03,-54.34,-8.10,32.77
15515,-8.32,-3.55,4.47,0.28,0.03,0.03,-54.34,-8.10,32.77
15526,-8.19,-3.49,4.18,0.17,0.06,0.07,-54.34,-8.10,32.77
15537,-8.19,-3.49,4.18,0.17,0.06,0.07,-54.34,-8.10,32.77
15548,-8.05,-3.88,3.95,0.15,0.08,0.07,-54.34,-8.10,32.77
15559,-8.05,-3.88,3.95,0.15,0.08,0.07,-54.34,-8.10,32.77
15570,-7.90,-3.94,4.07,0.17,0.06,0.17,-54.34,-8.10,32.77
15581,-7.90,-3.94,4.07,0.17,0.06,0.17,-54.34,-8.10,32.77
15592,-8.31,-3.30,4.27,0.16,0.01,0.21,-54.34,-8.10,32.77
15603,-8.27,-3.49,4.25,0.12,-0.04,0.19,-54.34,-8.10,32.77
15614,-8.27,-3.49,4.25,0.12,-0.04,0.19,-54.34,-8.10,32.77
15625,-8.10,-3.10,4.49,0.12,-0.06,0.20,-54.34,-8.10,32.77
15636,-8.10,-3.10,4.49,0.12,-0.06,0.20,-54.34,-8.10,32.77
15647,-7.78,-3.45,3.76,0.04,-0.11,0.11,-53.63,-6.65,33.51
15658,-7.78,-3.45,3.76,0.04,-0.11,0.11,-53.63,-6.65,33.51
15670,-8.07,-3.43,4.49,0.02,-0.20,0.08,-53.63,-6.65,33.51
15680,-8.07,-3.43,4.49,0.02,-0.20,0.08,-53.63,-6.65,33.51
15691,-8.30,-3.45,4.32,0.03,-0.16,-0.04,-53.63,-6.65,33.51
15702,-8.30,-3.45,4.32,0.03,-0.16,-0.04,-53.63,-6.65,33.51
15713,-8.50,-2.92,4.44,-0.08,-0.05,-0.18,-53.63,-6.65,33.51
15724,-8.39,-3.51,4.77,-0.19,0.07,-0.27,-53.63,-6.65,33.51
15735,-8.39,-3.51,4.77,-0.19,0.07,-0.27,-53.63,-6.65,33.51
15746,-8.09,-4.23,3.85,-0.24,0.26,-0.31,-53.63,-6.65,33.51
15757,-8.09,-4.23,3.85,-0.24,0.26,-0.31,-53.63,-6.65,33.51
15768,-8.62,-3.12,5.20,-0.20,0.34,-0.26,-53.87,-6.49,33.36
15779,-8.62,-3.12,5.20,-0.20,0.34,-0.26,-53.87,-6.49,33.36
15790,-7.79,-4.17,3.60,-0.06,0.44,-0.23,-53.87,-6.49,33.36
15801,-7.79,-4.17,3.60,-0.06,0.44,-0.23,-53.87,-6.49,33.36
15812,-8.04,-3.80,3.29,0.09,0.29,-0.04,-53.87,-6.49,33.36
15823,-8.00,-4.38,4.15,0.08,0.13,0.10,-53.87,-6.49,33.36
15834,-8.00,-4.38,4.15,0.08,0.13,0.10,-53.87,-6.49,33.36
15845,-8.02,-2.60,3.55,-0.01,-0.02,0.28,-53.87,-6.49,33.36
15856,-8.02,-2.60,3.55,-0.01,-0.02,0.28,-53.87,-6.49,33.36
15867,-7.99,-3.38,4.33,0.03,-0.22,0.23,-53.87,-6.49,33.36
15878,-7.99,-3.38,4.33,0.03,-0.22,0.23,-53.87,-6.49,33.36
15889,-7.79,-3.11,4.05,-0.07,-0.31,0.20,-54.82,-6.16,30.98
15901,-7.79,-3.11,4.05,-0.07,-0.31,0.20,-54.82,-6.16,30.98
15911,-8.23,-3.88,4.36,-0.07,-0.32,0.07,-54.82,-6.16,30.98
15922,-8.23,-3.88,4.36,-0.07,-0.32,0.07,-54.82,-6.16,30.98
15933,-8.61,-3.71,4.42,-0.19,-0.24,0.00,-54.82,-6.16,30.98
15944,-8.42,-3.51,3.81,-0.24,-0.05,-0.03,-54.82,-6.16,30.98
15955,-8.42,-3.51,3.81,-0.24,-0.05,-0.03,-54.82,-6.16,30.98
15966,-8.59,-3.44,4.54,-0.04,0.06,-0.07,-54.82,-6.16,30.98
15977,-8.59,-3.44,4.54,-0.04,0.06,-0.07,-54.82,-6.16,30.98
15988,-8.37,-3.54,5.00,0.05,0.25,-0.14,-54.82,-6.16,30.98
15999,-8.37,-3.54,5.00,0.05,0.25,-0.14,-54.82,-6.16,30.98
16010,-7.88,-3.59,3.60,0.02,0.39,-0.16,-54.82,-6.16,30.98
16021,-7.88,-3.59,3.60,0.02,0.39,-0.16,-54.82,-6.16,30.98
16032,-8.06,-4.69,4.25,0.02,0.24,-0.06,-52.92,-6.49,32.17
16043,-8.20,-3.79,3.93,-0.04,0.12,0.18,-52.92,-6.49,32.17
16054,-8.20,-3.79,3.93,-0.04,0.12,0.18,-52.92,-6.49,32.17
16065,-7.44,-3.01,2.94,-0.07,-0.04,0.32,-52.92,-6.49,32.17
16076,-7.44,-3.01,2.94,-0.07,-0.04,0.32,-52.92,-6.49,32.17
16087,-8.16,-3.04,5.09,-0.06,-0.30,0.28,-52.92,-6.49,32.17
16098,-8.16,-3.04,5.09,-0.06,-0.30,0.28,-52.92,-6.49,32.17
16109,-7.88,-3.19,3.35,-0.24,-0.28,0.08,-52.92,-6.49,32.17
16120,-7.88,-3.19,3.35,-0.24,-0.28,0.08,-52.92,-6.49,32.17
16131,-8.31,-4.52,4.17,-0.24,-0.28,-0.09,-52.92,-6.49,32.17
16142,-8.31,-4.52,4.17,-0.24,-0.28,-0.09,-52.92,-6.49,32.17
16153,-8.56,-4.02,3.81,-0.27,-0.11,-0.06,-52.68,-5.68,32.32
16164,-8.65,-2.71,4.86,-0.11,0.03,-0.05,-52.68,-5.68,32.32
16175,-8.65,-2.71,4.86,-0.11,0.03,-0.05,-52.68,-5.68,32.32
16186,-8.49,-3.40,4.32,-0.08,0.24,-0.17,-52.68,-5.68,32.32
16197,-8.49,-3.40,4.32,-0.08,0.24,-0.17,-52.68,-5.68,32.32
16208,-8.34,-3.94,4.28,-0.01,0.32,-0.14,-52.68,-5.68,32.32
16219,-8.34,-3.94,4.28,-0.01,0.32,-0.14,-52.68,-5.68,32.32
16230,-7.97,-3.80,3.11,-0.01,0.32,-0.03,-52.68,-5.68,32.32
16241,-7.97,-3.80,3.11,-0.01,0.32,-0.03,-52.68,-5.68,32.32
16252,-8.31,-4.13,4.10,0.00,0.16,0.10,-52.68,-5.68,32.32
16263,-8.31,-4.13,4.10,0.00,0.16,0.10,-52.68,-5.68,32.32
16274,-8.07,-3.07,3.10,-0.09,0.06,0.36,-53.87,-7.78,32.17
16285,-7.84,-2.28,3.97,0.07,-0.16,0.43,-53.87,-7.78,32.17
16296,-7.84,-2.28,3.97,0.07,-0.16,0.43,-53.87,-7.78,32.17
16307,-7.66,-3.74,3.52,-0.11,-0.22,0.15,-53.87,-7.78,32.17
16318,-7.66,-3.74,3.52,-0.11,-0.22,0.15,-53.87,-7.78,32.17
16329,-7.84,-3.20,3.77,-0.12,-0.31,0.03,-53.87,-7.78,32.17
16340,-7.84,-3.20,3.77,-0.12,-0.31,0.03,-53.87,-7.78,32.17
16351,-8.52,-4.29,4.55,-0.11,-0.30,-0.08,-53.87,-7.78,32.17
16362,-8.52,-4.29,4.55,-0.11,-0.30,-0.08,-53.87,-7.78,32.17
16373,-8.48,-3.85,3.59,-0.17,-0.09,-0.06,-53.87,-7.78,32.17
16384,-8.68,-3.30,4.25,-0.05,-0.00,-0.02,-53.87,-7.78,32.17
16395,-8.68,-3.30,4.25,-0.05,-0.00,-0.02,-53.87,-7.78,32.17
16406,-8.46,-4.02,4.19,-0.05,0.19,-0.07,-54.82,-6.49,32.17
16417,-8.46,-4.02,4.19,-0.05,0.19,-0.07,-54.82,-6.49,32.17
16428,-8.35,-3.95,4.38,-0.01,0.31,-0.00,-54.82,-6.49,32.17
16439,-8.35,-3.95,4.38,-0.01,0.31,-0.00,-54.82,-6.49,32.17
16450,-8.43,-4.04,5.10,0.15,0.31,0.10,-54.82,-6.49,32.17
16461,-8.43,-4.04,5.10,0.15,0.31,0.10,-54.82,-6.49,32.17
16472,-8.39,-2.96,3.11,-0.15,0.35,0.25,-54.82,-6.49,32.17
16483,-8.39,-2.96,3.11,-0.15,0.35,0.25,-54.82,-6.49,32.17
16494,-8.76,-2.16,3.16,-0.19,0.13,0.45,-54.82,-6.49,32.17
16505,-12.09,5.19,4.64,-0.65,-0.53,0.15,-54.82,-6.49,32.17
16516,-12.09,5.19,4.64,-0.65,-0.53,0.15,-54.82,-6.49,32.17
16527,-7.81,-2.61,5.45,-1.54,-0.94,-1.15,-54.82,-8.75,32.17
16538,-7.81,-2.61,5.45,-1.54,-0.94,-1.15,-54.82,-8.75,32.17
16549,-5.44,-6.22,2.60,-1.69,-0.82,-1.32,-54.82,-8.75,32.17
16560,-5.44,-6.22,2.60,-1.69,-0.82,-1.32,-54.82,-8.75,32.17
16571,-5.26,-8.33,0.94,-0.47,-0.29,-0.27,-54.82,-8.75,32.17
16582,-5.26,-8.33,0.94,-0.47,-0.29,-0.27,-54.82,-8.75,32.17
16593,-7.24,-4.38,6.03,0.47,-0.43,0.58,-54.82,-8.75,32.17
16604,-7.57,-6.11,2.87,0.67,0.40,-0.03,-54.82,-8.75,32.17
16615,-7.57,-6.11,2.87,0.67,0.40,-0.03,-54.82,-8.75,32.17
16626,-6.01,-9.20,2.64,1.03,0.72,-0.27,-54.82,-8.75,32.17
16637,-6.01,-9.20,2.64,1.03,0.72,-0.27,-54.82,-8.75,32.17
16648,-9.64,-1.96,3.05,1.39,0.45,0.44,-52.92,-8.42,33.07
16659,-9.64,-1.96,3.05,1.39,0.45,0.44,-52.92,-8.42,33.07
16670,-9.41,-1.59,5.46,0.94,0.16,0.14,-52.92,-8.42,33.07
16681,-9.41,-1.59,5.46,0.94,0.16,0.14,-52.92,-8.42,33.07
16692,-9.07,-2.20,4.09,0.32,0.13,-0.24,-52.92,-8.42,33.07
16703,-9.07,-2.20,4.09,0.32,0.13,-0.24,-52.92,-8.42,33.07
16714,-8.37,-3.68,4.07,0.05,0.04,-0.44,-52.92,-8.42,33.07
16725,-7.59,-5.16,3.26,0.01,0.07,-0.45,-52.92,-8.42,33.07
16736,-7.59,-5.16,3.26,0.01,0.07,-0.45,-52.92,-8.42,33.07
16747,-7.77,-4.49,3.95,0.17,0.03,-0.16,-52.92,-8.42,33.07
16758,-7.77,-4.49,3.95,0.17,0.03,-0.16,-52.92,-8.42,33.07
16769,-7.78,-3.84,4.33,0.27,0.01,0.00,-55.06,-6.97,31.13
16780,-7.78,-3.84,4.33,0.27,0.01,0.00,-55.06,-6.97,31.13
16791,-8.08,-3.44,4.91,0.25,0.03,0.09,-55.06,-6.97,31.13
16802,-8.08,-3.44,4.91,0.25,0.03,0.09,-55.06,-6.97,31.13
16813,-7.91,-3.82,4.34,0.15,0.16,0.07,-55.06,-6.97,31.13
16824,-7.67,-4.18,3.79,0.16,0.25,0.09,-55.06,-6.97,31.13
16835,-7.67,-4.18,3.79,0.16,0.25,0.09,-55.06,-6.97,31.13
16846,-8.78,-2.90,2.99,0.20,0.17,0.15,-55.06,-6.97,31.13
16857,-8.78,-2.90,2.99,0.20,0.17,0.15,-55.06,-6.97,31.13
16868,-8.33,-3.43,4.72,-0.01,-0.08,0.05,-55.06,-6.97,31.13
16879,-8.33,-3.43,4.72,-0.01,-0.08,0.05,-55.06,-6.97,31.13
16890,-8.03,-4.03,3.42,-0.31,-0.13,0.06,-55.06,-6.97,31.13
16901,-8.03,-4.03,3.42,-0.31,-0.13,0.06,-55.06,-6.97,31.13
16912,-8.29,-4.03,3.96,-0.24,-0.28,0.19,-52.68,-5.36,32.92
16924,-8.29,-4.03,3.96,-0.24,-0.28,0.19,-52.68,-5.36,32.92
16934,-8.46,-3.09,4.57,-0.16,-0.30,0.28,-52.68,-5.36,32.92
16945,-8.34,-4.01,4.60,-0.23,-0.15,0.16,-52.68,-5.36,32.92
16956,-8.34,-4.01,4.60,-0.23,-0.15,0.16,-52.68,-5.36,32.92
16967,-8.43,-3.92,3.60,-0.16,0.03,0.08,-52.68,-5.36,32.92
16978,-8.43,-3.92,3.60,-0.16,0.03,0.08,-52.68,-5.36,32.92
16989,-8.38,-3.64,4.58,0.02,0.20,0.02,-52.68,-5.36,32.92
17000,-8.38,-3.64,4.58,0.02,0.20,0.02,-52.68,-5.36,32.92
17011,-8.30,-2.75,3.63,0.14,0.37,-0.05,-52.68,-5.36,32.92
17022,-8.30,-2.75,3.63,0.14,0.37,-0.05,-52.68,-5.36,32.92
17033,-8.22,-3.40,4.06,0.21,0.28,-0.08,-55.53,-8.58,33.22
17044,-8.07,-4.62,3.73,0.11,0.18,0.07,-55.53,-8.58,33.22
17055,-8.07,-4.62,3.73,0.11,0.18,0.07,-55.53,-8.58,33.22
17066,-7.67,-4.29,2.96,0.02,0.02,0.34,-55.53,-8.58,33.22
17077,-7.67,-4.29,2.96,0.02,0.02,0.34,-55.53,-8.58,33.22
17088,-8.03,-3.16,4.53,0.05,-0.26,0.47,-55.53,-8.58,33.22
17099,-8.03,-3.16,4.53,0.05,-0.26,0.47,-55.53,-8.58,33.22
17110,-8.02,-2.36,4.16,-0.25,-0.30,0.30,-55.53,-8.58,33.22
17121,-8.02,-2.36,4.16,-0.25,-0.30,0.30,-55.53,-8.58,33.22
17132,-7.99,-3.48,4.20,-0.43,-0.32,0.03,-55.53,-8.58,33.22
17143,-7.99,-3.48,4.20,-0.43,-0.32,0.03,-55.53,-8.58,33.22
17154,-8.63,-4.01,4.04,-0.56,-0.28,-0.10,-52.68,-6.65,33.51
17165,-8.65,-3.85,4.00,-0.20,-0.10,-0.12,-52.68,-6.65,33.51
17176,-8.65,-3.85,4.00,-0.20,-0.10,-0.12,-52.68,-6.65,33.51
17187,-8.37,-3.19,4.38,0.10,0.14,-0.18,-52.68,-6.65,33.51
17198,-8.37,-3.19,4.38,0.10,0.14,-0.18,-52.68,-6.65,33.51
17209,-8.27,-3.38,4.13,0.12,0.21,-0.19,-52.68,-6.65,33.51
17220,-8.27,-3.38,4.13,0.12,0.21,-0.19,-52.68,-6.65,33.51
17231,-8.16,-4.54,4.21,-0.02,0.13,-0.05,-52.68,-6.65,33.51
17242,-8.16,-4.54,4.21,-0.02,0.13,-0.05,-52.68,-6.65,33.51
17253,-8.19,-4.33,3.06,-0.20,0.01,0.26,-52.68,-6.65,33.51
17264,-8.19,-4.33,3.06,-0.20,0.01,0.26,-52.68,-6.65,33.51
17275,-8.46,-2.96,4.97,0.02,-0.22,0.59,-52.68,-6.65,33.51
17286,-11.84,1.66,5.08,0.04,-0.18,0.40,-52.68,-5.68,32.92
17297,-11.84,1.66,5.08,0.04,-0.18,0.40,-52.68,-5.68,32.92
17308,-8.85,-0.61,5.40,-1.09,-0.42,-0.90,-52.68,-5.68,32.92
17319,-8.85,-0.61,5.40,-1.09,-0.42,-0.90,-52.68,-5.68,32.92
17330,-7.14,-4.56,3.57,-1.75,-0.49,-1.27,-52.68,-5.68,32.92
17341,-7.14,-4.56,3.57,-1.75,-0.49,-1.27,-52.68,-5.68,32.92
17352,-3.97,-10.47,1.91,-1.16,-0.17,-0.60,-52.68,-5.68,32.92
17363,-3.97,-10.47,1.91,-1.16,-0.17,-0.60,-52.68,-5.68,32.92
17374,-7.76,-2.96,4.51,-0.02,-0.40,0.76,-52.68,-5.68,32.92
17385,-7.38,-7.32,3.15,0.44,0.22,0.20,-52.68,-5.68,32.92
17396,-7.38,-7.32,3.15,0.44,0.22,0.20,-52.68,-5.68,32.92
17407,-6.22,-7.55,2.12,0.69,0.41,0.08,-53.16,-11.17,33.81
17419,-6.22,-7.55,2.12,0.69,0.41,0.08,-53.16,-11.17,33.81
17429,-9.19,-1.98,4.77,1.15,0.21,0.50,-53.16,-11.17,33.81
17440,-9.19,-1.98,4.77,1.15,0.21,0.50,-53.16,-11.17,33.81
17451,-9.32,-1.32,4.85,0.79,0.18,0.18,-53.16,-11.17,33.81
17462,-9.32,-1.32,4.85,0.79,0.18,0.18,-53.16,-11.17,33.81
17473,-9.10,-2.34,4.35,0.26,0.12,-0.20,-53.16,-11.17,33.81
17484,-9.10,-2.34,4.35,0.26,0.12,-0.20,-53.16,-11.17,33.81
17495,-7.94,-4.07,3.81,-0.04,0.05,-0.42,-53.16,-11.17,33.81
17506,-7.69,-4.94,3.43,0.03,0.04,-0.34,-53.16,-11.17,33.81
17517,-7.69,-4.94,3.43,0.03,0.04,-0.34,-53.16,-11.17,33.81
17528,-7.72,-4.12,4.12,0.16,-0.00,-0.10,-54.34,-8.75,32.47
17539,-7.72,-4.12,4.12,0.16,-0.00,-0.10,-54.34,-8.75,32.47
17550,-8.57,-3.34,4.18,0.26,-0.01,0.05,-54.34,-8.75,32.47
17561,-8.57,-3.34,4.18,0.26,-0.01,0.05,-54.34,-8.75,32.47
17572,-8.25,-2.82,4.68,0.14,-0.06,0.01,-54.34,-8.75,32.47
17583,-8.25,-2.82,4.68,0.14,-0.06,0.01,-54.34,-8.75,32.47
17594,-8.04,-4.06,4.20,0.00,-0.00,-0.10,-54.34,-8.75,32.47
17605,-7.79,-4.24,3.88,0.00,0.07,-0.07,-54.34,-8.75,32.47
17616,-7.79,-4.24,3.88,0.00,0.07,-0.07,-54.34,-8.75,32.47
17627,-7.95,-3.94,3.96,0.12,0.10,-0.02,-54.34,-8.75,32.47
17638,-7.95,-3.94,3.96,0.12,0.10,-0.02,-54.34,-8.75,32.47
17649,-8.10,-4.24,3.60,0.17,0.10,0.04,-54.34,-8.75,32.47
17660,-8.10,-4.24,3.60,0.17,0.10,0.04,-54.34,-8.75,32.47
17671,-8.34,-3.25,4.17,0.22,0.02,0.09,-52.92,-8.42,33.66
17682,-8.34,-3.25,4.17,0.22,0.02,0.09,-52.92,-8.42,33.66
17693,-8.25,-3.58,4.35,0.08,-0.05,0.03,-52.92,-8.42,33.66
17704,-8.25,-3.58,4.35,0.08,-0.05,0.03,-52.92,-8.42,33.66
17715,-8.11,-3.85,3.78,0.02,-0.04,0.06,-52.92,-8.42,33.66
17726,-8.20,-3.68,4.42,0.11,-0.08,0.12,-52.92,-8.42,33.66
17737,-8.20,-3.68,4.42,0.11,-0.08,0.12,-52.92,-8.42,33.66
17748,-8.12,-3.51,4.05,0.09,-0.06,0.15,-52.92,-8.42,33.66
17759,-8.12,-3.51,4.05,0.09,-0.06,0.15,-52.92,-8.42,33.66
17770,-8.08,-3.29,4.86,0.04,-0.08,0.17,-52.92,-8.42,33.66
17781,-8.08,-3.29,4.86,0.04,-0.08,0.17,-52.92,-8.42,33.66
17792,-7.91,-3.12,4.14,-0.15,-0.10,0.12,-53.87,-7.78,31.58
17803,-7.91,-3.12,4.14,-0.15,-0.10,0.12,-53.87,-7.78,31.58
17814,-7.98,-3.43,4.57,-0.15,-0.14,0.01,-53.87,-7.78,31.58
17825,-8.20,-4.22,3.82,-0.13,-0.03,-0.15,-53.87,-7.78,31.58
17836,-8.20,-4.22,3.82,-0.13,-0.03,-0.15,-53.87,-7.78,31.58
17847,-8.59,-3.52,4.18,-0.19,0.05,-0.19,-53.87,-7.78,31.58
17858,-8.59,-3.52,4.18,-0.19,0.05,-0.19,-53.87,-7.78,31.58
17869,-8.50,-3.88,4.43,-0.22,0.22,-0.25,-53.87,-7.78,31.58
17880,-8.50,-3.88,4.43,-0.22,0.22,-0.25,-53.87,-7.78,31.58
17891,-8.35,-2.93,3.47,-0.20,0.38,-0.20,-53.87,-7.78,31.58
17902,-8.35,-2.93,3.47,-0.20,0.38,-0.20,-53.87,-7.78,31.58
17913,-8.08,-3.85,4.02,0.00,0.37,-0.18,-54.34,-8.42,33.96
17924,-8.08,-3.85,4.02,0.00,0.37,-0.18,-54.34,-8.42,33.96
17935,-8.12,-4.14,3.65,0.15,0.29,-0.05,-54.34,-8.42,33.96
17946,-7.98,-4.40,3.91,0.18,0.15,0.16,-54.34,-8.42,33.96
17957,-7.98,-4.40,3.91,0.18,0.15,0.16,-54.34,-8.42,33.96
17968,-7.84,-3.38,4.00,0.05,-0.03,0.35,-54.34,-8.42,33.96
17979,-7.84,-3.38,4.00,0.05,-0.03,0.35,-54.34,-8.42,33.96
17990,-7.60,-3.59,3.41,-0.09,-0.23,0.29,-54.34,-8.42,33.96
18001,-7.60,-3.59,3.41,-0.09,-0.23,0.29,-54.34,-8.42,33.96
18012,-8.10,-3.38,4.34,-0.27,-0.40,0.21,-54.34,-8.42,33.96
18023,-8.10,-3.38,4.34,-0.27,-0.40,0.21,-54.34,-8.42,33.96
18034,-8.38,-3.75,4.12,-0.42,-0.35,0.04,-53.39,-7.78,32.47
18045,-8.66,-4.40,3.95,-0.51,-0.18,-0.01,-53.39,-7.78,32.47
18056,-8.66,-4.40,3.95,-0.51,-0.18,-0.01,-53.39,-7.78,32.47
18067,-8.44,-3.70,3.68,-0.32,-0.00,0.03,-53.39,-7.78,32.47
18078,-8.44,-3.70,3.68,-0.32,-0.00,0.03,-53.39,-7.78,32.47
18089,-8.56,-3.25,4.05,-0.09,0.13,-0.02,-53.39,-7.78,32.47
18100,-8.56,-3.25,4.05,-0.09,0.13,-0.02,-53.39,-7.78,32.47
18111,-8.34,-3.73,4.12,0.02,0.31,-0.10,-53.39,-7.78,32.47
18122,-8.34,-3.73,4.12,0.02,0.31,-0.10,-53.39,-7.78,32.47
18133,-8.06,-3.77,3.30,0.16,0.30,-0.05,-53.39,-7.78,32.47
18144,-8.06,-3.77,3.30,0.16,0.30,-0.05,-53.39,-7.78,32.47
18155,-7.92,-4.00,3.67,0.18,0.18,0.08,-53.39,-7.78,32.47
18166,-7.98,-3.97,4.31,0.00,0.05,0.17,-53.87,-7.13,33.07
18177,-7.98,-3.97,4.31,0.00,0.05,0.17,-53.87,-7.13,33.07
18188,-8.24,-2.71,3.48,-0.20,-0.17,0.26,-53.87,-7.13,33.07
18199,-8.24,-2.71,3.48,-0.20,-0.17,0.26,-53.87,-7.13,33.07
18210,-7.90,-3.29,4.02,-0.33,-0.36,0.18,-53.87,-7.13,33.07
18221,-7.90,-3.29,4.02,-0.33,-0.36,0.18,-53.87,-7.13,33.07
18232,-8.58,-3.89,3.65,-0.35,-0.33,0.04,-53.87,-7.13,33.07
18243,-8.58,-3.89,3.65,-0.35,-0.33,0.04,-53.87,-7.13,33.07
18254,-8.58,-4.13,4.68,-0.21,-0.18,-0.00,-53.87,-7.13,33.07
18265,-8.58,-4.13,4.68,-0.21,-0.18,-0.00,-53.87,-7.13,33.07
18276,-8.50,-3.59,3.71,-0.20,0.04,-0.01,-53.87,-7.13,33.07
18287,-8.60,-3.67,4.16,-0.08,0.17,-0.03,-54.34,-8.42,32.17
18298,-8.60,-3.67,4.16,-0.08,0.17,-0.03,-54.34,-8.42,32.17
18309,-8.32,-3.68,3.85,0.05,0.32,-0.03,-54.34,-8.42,32.17
18320,-8.32,-3.68,3.85,0.05,0.32,-0.03,-54.34,-8.42,32.17
18331,-8.33,-4.53,4.51,0.14,0.28,0.04,-54.34,-8.42,32.17
18342,-8.33,-4.53,4.51,0.14,0.28,0.04,-54.34,-8.42,32.17
18353,-8.16,-4.41,3.30,-0.05,0.25,0.22,-54.34,-8.42,32.17
18364,-8.16,-4.41,3.30,-0.05,0.25,0.22,-54.34,-8.42,32.17
18375,-9.18,-1.32,3.09,-0.06,-0.03,0.40,-54.34,-8.42,32.17
18391,-10.35,1.75,5.65,-0.70,-0.68,-0.23,-54.34,-8.42,32.17
18397,-10.35,1.75,5.65,-0.70,-0.68,-0.23,-54.34,-8.42,32.17
18408,-7.89,-2.54,4.41,-1.64,-0.91,-0.97,-53.63,-10.84,34.11
18419,-7.89,-2.54,4.41,-1.64,-0.91,-0.97,-53.63,-10.84,34.11
18430,-4.86,-8.96,1.92,-1.26,-0.60,-0.66,-53.63,-10.84,34.11
18441,-4.86,-8.96,1.92,-1.26,-0.60,-0.66,-53.63,-10.84,34.11
18452,-7.75,-3.03,5.48,-0.12,-0.59,0.40,-53.63,-10.84,34.11
18463,-7.75,-3.03,5.48,-0.12,-0.59,0.40,-53.63,-10.84,34.11
18474,-6.89,-8.01,2.73,0.25,0.26,-0.28,-53.63,-10.84,34.11
18486,-6.89,-8.01,2.73,0.25,0.26,-0.28,-53.63,-10.84,34.11
18496,-5.92,-8.72,1.48,0.65,0.59,-0.30,-53.63,-10.84,34.11
18507,-8.76,-2.74,4.51,1.24,0.34,0.21,-53.63,-10.84,34.11
18518,-8.76,-2.74,4.51,1.24,0.34,0.21,-53.63,-10.84,34.11
18529,-9.06,-2.65,4.62,1.02,0.43,-0.10,-53.63,-10.84,34.11
18540,-9.06,-2.65,4.62,1.02,0.43,-0.10,-53.63,-10.84,34.11
18551,-9.03,-2.22,4.36,0.50,0.24,-0.19,-53.39,-8.75,32.77
18562,-9.03,-2.22,4.36,0.50,0.24,-0.19,-53.39,-8.75,32.77
18573,-8.32,-3.68,3.98,0.09,0.06,-0.24,-53.39,-8.75,32.77
18584,-8.32,-3.68,3.98,0.09,0.06,-0.24,-53.39,-8.75,32.77
18595,-7.86,-4.11,3.96,0.03,0.04,-0.10,-53.39,-8.75,32.77
18606,-7.41,-5.12,3.57,0.07,0.05,0.04,-53.39,-8.75,32.77
18617,-7.41,-5.12,3.57,0.07,0.05,0.04,-53.39,-8.75,32.77
18628,-7.62,-4.76,3.51,0.25,0.07,0.27,-53.39,-8.75,32.77
18639,-7.62,-4.76,3.51,0.25,0.07,0.27,-53.39,-8.75,32.77
18650,-8.12,-4.06,3.76,0.48,0.11,0.45,-53.39,-8.75,32.77
18661,-8.12,-4.06,3.76,0.48,0.11,0.45,-53.39,-8.75,32.77
18672,-8.74,-1.66,5.11,0.50,-0.05,0.36,-53.63,-8.26,32.32
18683,-8.74,-1.66,5.11,0.50,-0.05,0.36,-53.63,-8.26,32.32
18694,-8.63,-2.96,4.67,0.33,-0.06,0.06,-53.63,-8.26,32.32
18705,-8.63,-2.96,4.67,0.33,-0.06,0.06,-53.63,-8.26,32.32
18716,-7.69,-4.16,3.15,0.17,-0.01,0.01,-53.63,-8.26,32.32
18727,-8.04,-3.85,4.35,0.16,-0.17,0.10,-53.63,-8.26,32.32
18738,-8.04,-3.85,4.35,0.16,-0.17,0.10,-53.63,-8.26,32.32
18749,-8.08,-2.91,3.83,0.05,-0.17,0.04,-53.63,-8.26,32.32
18760,-8.08,-2.91,3.83,0.05,-0.17,0.04,-53.63,-8.26,32.32
18771,-8.38,-3.59,5.23,0.06,-0.14,-0.17,-53.63,-8.26,32.32
18782,-8.38,-3.59,5.23,0.06,-0.14,-0.17,-53.63,-8.26,32.32
18793,-8.60,-3.53,4.13,-0.33,0.08,-0.31,-52.92,-7.13,33.66
18804,-8.60,-3.53,4.13,-0.33,0.08,-0.31,-52.92,-7.13,33.66
18815,-8.48,-4.12,3.88,-0.41,0.25,-0.33,-52.92,-7.13,33.66
18826,-8.52,-3.57,3.88,-0.28,0.35,-0.24,-52.92,-7.13,33.66
18837,-8.52,-3.57,3.88,-0.28,0.35,-0.24,-52.92,-7.13,33.66
18848,-8.27,-3.47,3.91,-0.07,0.36,-0.20,-52.92,-7.13,33.66
18859,-8.27,-3.47,3.91,-0.07,0.36,-0.20,-52.92,-7.13,33.66
18870,-8.11,-4.08,3.88,0.15,0.28,-0.09,-52.92,-7.13,33.66
18881,-8.11,-4.08,3.88,0.15,0.28,-0.09,-52.92,-7.13,33.66
18892,-8.05,-4.60,3.95,0.20,0.15,0.09,-52.92,-7.13,33.66
18903,-8.05,-4.60,3.95,0.20,0.15,0.09,-52.92,-7.13,33.66
18914,-7.86,-3.01,3.15,0.09,-0.03,0.30,-52.92,-7.13,33.66
18925,-7.86,-3.01,3.15,0.09,-0.03,0.30,-52.92,-7.13,33.66
18936,-7.68,-3.41,3.80,0.03,-0.28,0.29,-52.68,-8.91,32.03
18947,-7.94,-3.51,4.20,-0.15,-0.37,0.17,-52.68,-8.91,32.03
18958,-7.94,-3.51,4.20,-0.15,-0.37,0.17,-52.68,-8.91,32.03
18969,-8.43,-4.21,4.50,-0.33,-0.26,-0.01,-52.68,-8.91,32.03
18980,-8.43,-4.21,4.50,-0.33,-0.26,-0.01,-52.68,-8.91,32.03
18991,-8.47,-4.00,3.27,-0.52,-0.04,-0.08,-52.68,-8.91,32.03
19002,-8.47,-4.00,3.27,-0.52,-0.04,-0.08,-52.68,-8.91,32.03
19013,-8.54,-3.71,4.30,-0.26,0.07,-0.07,-52.68,-8.91,32.03
19024,-8.54,-3.71,4.30,-0.26,0.07,-0.07,-52.68,-8.91,32.03
19035,-8.53,-3.44,3.87,-0.06,0.24,-0.11,-52.68,-8.91,32.03
19046,-8.28,-3.91,4.18,0.16,0.27,-0.07,-52.68,-8.26,32.62
19057,-8.28,-3.91,4.18,0.16,0.27,-0.07,-52.68,-8.26,32.62
19068,-8.20,-4.97,4.19,0.20,0.16,0.04,-52.68,-8.26,32.62
19079,-8.20,-4.97,4.19,0.20,0.16,0.04,-52.68,-8.26,32.62
19090,-7.98,-3.75,2.81,0.07,0.07,0.31,-52.68,-8.26,32.62
19101,-7.98,-3.75,2.81,0.07,0.07,0.31,-52.68,-8.26,32.62
19112,-7.79,-2.70,4.47,0.11,-0.23,0.48,-52.68,-8.26,32.62
19123,-7.79,-2.70,4.47,0.11,-0.23,0.48,-52.68,-8.26,32.62
19134,-7.75,-3.34,4.27,-0.14,-0.33,0.26,-52.68,-8.26,32.62
19145,-7.75,-3.34,4.27,-0.14,-0.33,0.26,-52.68,-8.26,32.62
19156,-8.04,-3.91,3.54,-0.28,-0.28,0.02,-52.68,-8.26,32.62
19167,-8.67,-4.43,3.89,-0.35,-0.22,-0.09,-54.11,-7.94,32.92
19178,-8.67,-4.43,3.89,-0.35,-0.22,-0.09,-54.11,-7.94,32.92
19189,-8.60,-3.40,4.26,-0.26,-0.04,-0.04,-54.11,-7.94,32.92
19200,-8.60,-3.40,4.26,-0.26,-0.04,-0.04,-54.11,-7.94,32.92
19211,-8.55,-3.45,4.57,-0.23,0.16,-0.09,-54.11,-7.94,32.92
19222,-8.55,-3.45,4.57,-0.23,0.16,-0.09,-54.11,-7.94,32.92
19233,-8.14,-4.20,2.87,-0.20,0.27,-0.10,-54.11,-7.94,32.92
19244,-8.14,-4.20,2.87,-0.20,0.27,-0.10,-54.11,-7.94,32.92
19255,-8.05,-4.14,3.01,0.02,0.15,0.05,-54.11,-7.94,32.92
19266,-8.05,-4.14,3.01,0.02,0.15,0.05,-54.11,-7.94,32.92
19277,-8.54,-4.21,4.54,0.18,0.02,0.17,-54.11,-7.94,32.92
19288,-8.12,-3.55,3.38,0.06,0.04,0.31,-55.29,-9.07,32.47
19299,-8.12,-3.55,3.38,0.06,0.04,0.31,-55.29,-9.07,32.47
19310,-7.93,-2.47,4.27,0.16,-0.09,0.28,-55.29,-9.07,32.47
19321,-7.93,-2.47,4.27,0.16,-0.09,0.28,-55.29,-9.07,32.47
19332,-9.10,-1.81,4.23,-0.09,-0.19,-0.03,-55.29,-9.07,32.47
19343,-9.10,-1.81,4.23,-0.09,-0.19,-0.03,-55.29,-9.07,32.47
19354,-7.21,-3.82,3.33,-0.45,-0.36,-0.60,-55.29,-9.07,32.47
19365,-7.21,-3.82,3.33,-0.45,-0.36,-0.60,-55.29,-9.07,32.47
19376,-7.17,-6.34,2.70,-0.35,-0.48,-0.62,-55.29,-9.07,32.47
19387,-6.78,-7.72,3.66,0.00,-0.25,-0.06,-55.29,-9.07,32.47
19398,-6.78,-7.72,3.66,0.00,-0.25,-0.06,-55.29,-9.07,32.47
19409,-10.00,-2.61,1.68,0.44,0.04,0.58,-55.29,-9.07,32.47
19420,-10.00,-2.61,1.68,0.44,0.04,0.58,-55.29,-9.07,32.47
19431,-9.43,0.04,7.54,0.28,-0.27,0.36,-52.20,-8.58,33.22
19442,-9.43,0.04,7.54,0.28,-0.27,0.36,-52.20,-8.58,33.22
19453,-8.55,-3.44,5.19,-0.21,0.18,-0.15,-52.20,-8.58,33.22
19464,-8.55,-3.44,5.19,-0.21,0.18,-0.15,-52.20,-8.58,33.22
19475,-8.09,-4.36,1.88,-0.44,0.22,-0.12,-52.20,-8.58,33.22
19486,-8.09,-4.36,1.88,-0.44,0.22,-0.12,-52.20,-8.58,33.22
19497,-7.19,-4.39,3.75,-0.33,-0.29,-0.04,-52.20,-8.58,33.22
19508,-7.52,-4.37,3.59,-0.10,-0.38,0.07,-52.20,-8.58,33.22
19519,-7.52,-4.37,3.59,-0.10,-0.38,0.07,-52.20,-8.58,33.22
19530,-7.06,-4.52,4.23,0.02,-0.35,0.14,-52.20,-8.58,33.22
19541,-7.06,-4.52,4.23,0.02,-0.35,0.14,-52.20,-8.58,33.22
19552,-9.42,-3.81,3.91,-0.17,-0.23,0.23,-51.73,-9.23,34.11
19563,-9.42,-3.81,3.91,-0.17,-0.23,0.23,-51.73,-9.23,34.11
19574,-8.98,-3.44,3.95,-0.40,-0.18,0.17,-51.73,-9.23,34.11
19585,-8.98,-3.44,3.95,-0.40,-0.18,0.17,-51.73,-9.23,34.11
19596,-8.68,-3.62,3.89,-0.02,-0.04,0.09,-51.73,-9.23,34.11
19607,-8.84,-3.68,5.44,0.26,0.20,0.01,-51.73,-9.23,34.11
19618,-8.84,-3.68,5.44,0.26,0.20,0.01,-51.73,-9.23,34.11
19629,-8.78,-3.88,3.81,0.24,0.64,-0.11,-51.73,-9.23,34.11
19640,-8.78,-3.88,3.81,0.24,0.64,-0.11,-51.73,-9.23,34.11
19651,-7.86,-3.92,4.08,0.36,0.94,-0.11,-51.73,-9.23,34.11
19662,-7.86,-3.92,4.08,0.36,0.94,-0.11,-51.73,-9.23,34.11
19673,-7.73,-3.88,3.69,0.42,0.89,0.00,-54.58,-9.23,31.73
19684,-7.73,-3.88,3.69,0.42,0.89,0.00,-54.58,-9.23,31.73
19695,-7.79,-3.86,3.16,0.14,0.56,0.19,-54.58,-9.23,31.73
19706,-7.79,-3.86,3.16,0.14,0.56,0.19,-54.58,-9.23,31.73
19717,-7.61,-4.53,2.96,-0.12,0.17,0.33,-54.58,-9.23,31.73
19728,-7.98,-1.62,2.64,-0.22,-0.27,0.46,-54.58,-9.23,31.73
19739,-7.98,-1.62,2.64,-0.22,-0.27,0.46,-54.58,-9.23,31.73
19750,-9.45,-1.02,4.43,-0.23,-0.61,0.03,-54.58,-9.23,31.73
19761,-9.45,-1.02,4.43,-0.23,-0.61,0.03,-54.58,-9.23,31.73
19772,-7.78,-2.76,4.21,-0.40,-0.64,-0.69,-54.58,-9.23,31.73
19784,-7.78,-2.76,4.21,-0.40,-0.64,-0.69,-54.58,-9.23,31.73
19794,-7.24,-7.38,4.65,-0.32,-0.20,-0.84,-54.58,-9.23,31.73
19805,-7.24,-7.38,4.65,-0.32,-0.20,-0.84,-54.58,-9.23,31.73
19816,-6.62,-6.88,1.75,0.12,0.34,-0.24,-54.11,-9.23,33.22
19827,-9.78,-2.93,1.68,0.60,0.07,0.48,-54.11,-9.23,33.22
19838,-9.78,-2.93,1.68,0.60,0.07,0.48,-54.11,-9.23,33.22
19849,-9.10,-0.53,7.27,0.27,-0.31,0.47,-54.11,-9.23,33.22
19860,-9.10,-0.53,7.27,0.27,-0.31,0.47,-54.11,-9.23,33.22
19871,-8.73,-3.52,4.04,-0.40,0.08,0.10,-54.11,-9.23,33.22
19882,-8.73,-3.52,4.04,-0.40,0.08,0.10,-54.11,-9.23,33.22
19893,-10.38,-1.07,4.18,-0.28,-0.01,0.26,-54.11,-9.23,33.22
19904,-10.38,-1.07,4.18,-0.28,-0.01,0.26,-54.11,-9.23,33.22
19915,-10.06,2.33,6.06,-0.87,-0.30,-0.49,-54.11,-9.23,33.22
19926,-10.06,2.33,6.06,-0.87,-0.30,-0.49,-54.11,-9.23,33.22
19937,-5.35,-5.35,3.98,-1.54,-0.15,-1.55,-52.92,-10.68,32.77
19948,-6.30,-4.75,0.05,-0.73,0.17,-0.37,-52.92,-10.68,32.77
19959,-6.30,-4.75,0.05,-0.73,0.17,-0.37,-52.92,-10.68,32.77
19970,-7.69,-3.78,7.08,0.00,-0.36,0.33,-52.92,-10.68,32.77
19981,-7.69,-3.78,7.08,0.00,-0.36,0.33,-52.92,-10.68,32.77
19992,-7.61,-4.80,2.05,0.12,0.38,0.06,-52.92,-10.68,32.77
20003,-7.61,-4.80,2.05,0.12,0.38,0.06,-52.92,-10.68,32.77
20014,-7.29,-6.66,2.47,0.52,0.46,-0.01,-52.92,-10.68,32.77
20025,-7.29,-6.66,2.47,0.52,0.46,-0.01,-52.92,-10.68,32.77
20036,-7.79,-5.30,1.74,0.92,0.40,0.01,-52.92,-10.68,32.77
20047,-7.79,-5.30,1.74,0.92,0.40,0.01,-52.92,-10.68,32.77
20058,-8.55,-4.96,3.49,1.07,0.20,-0.18,-52.44,-10.68,32.77
20069,-8.05,-6.57,3.48,0.74,0.28,-0.50,-52.44,-10.68,32.77
20080,-8.05,-6.57,3.48,0.74,0.28,-0.50,-52.44,-10.68,32.77
20091,-7.86,-5.47,1.25,0.38,0.30,-0.32,-52.44,-10.68,32.77
20102,-7.86,-5.47,1.25,0.38,0.30,-0.32,-52.44,-10.68,32.77
20113,-8.32,-4.07,2.91,0.46,-0.07,-0.08,-52.44,-10.68,32.77
20124,-8.32,-4.07,2.91,0.46,-0.07,-0.08,-52.44,-10.68,32.77
20135,-8.62,-3.33,3.93,0.47,-0.21,-0.04,-52.44,-10.68,32.77
20146,-8.62,-3.33,3.93,0.47,-0.21,-0.04,-52.44,-10.68,32.77
20157,-8.09,-3.67,4.50,0.32,-0.21,-0.14,-52.44,-10.68,32.77
20168,-7.77,-4.54,4.18,0.27,-0.11,-0.18,-53.87,-9.71,33.07
20179,-7.77,-4.54,4.18,0.27,-0.11,-0.18,-53.87,-9.71,33.07
20190,-7.79,-4.25,4.32,0.26,-0.04,-0.10,-53.87,-9.71,33.07
20201,-7.79,-4.25,4.32,0.26,-0.04,-0.10,-53.87,-9.71,33.07
20212,-7.93,-3.90,4.15,0.31,0.04,-0.07,-53.87,-9.71,33.07
20223,-7.93,-3.90,4.15,0.31,0.04,-0.07,-53.87,-9.71,33.07
20234,-8.01,-3.92,4.26,0.30,0.05,-0.06,-53.87,-9.71,33.07
20245,-8.01,-3.92,4.26,0.30,0.05,-0.06,-53.87,-9.71,33.07
20256,-8.20,-3.56,4.15,0.25,0.07,-0.07,-53.87,-9.71,33.07
20267,-8.20,-3.56,4.15,0.25,0.07,-0.07,-53.87,-9.71,33.07
20278,-8.07,-4.10,3.96,0.25,0.07,-0.06,-53.87,-9.71,33.07
20289,-8.44,-3.06,4.48,0.28,0.02,0.07,-53.87,-9.71,33.07
20301,-8.44,-3.06,4.48,0.28,0.02,0.07,-53.87,-9.71,33.07
20311,-7.88,-4.40,3.74,0.24,0.08,-0.06,-52.44,-9.39,33.36
20322,-7.88,-4.40,3.74,0.24,0.08,-0.06,-52.44,-9.39,33.36
20333,-7.95,-3.63,4.16,0.34,0.05,0.05,-52.44,-9.39,33.36
20344,-7.95,-3.63,4.16,0.34,0.05,0.05,-52.44,-9.39,33.36
20355,-7.93,-3.77,4.51,0.36,0.07,0.09,-52.44,-9.39,33.36
20366,-7.93,-3.77,4.51,0.36,0.07,0.09,-52.44,-9.39,33.36
20377,-8.51,-3.15,3.87,0.25,0.10,0.09,-52.44,-9.39,33.36
20388,-8.18,-3.79,3.79,0.13,0.03,-0.02,-52.44,-9.39,33.36
20399,-8.18,-3.79,3.79,0.13,0.03,-0.02,-52.44,-9.39,33.36
20410,-8.19,-3.36,4.20,0.14,-0.04,0.05,-52.44,-9.39,33.36
20421,-8.19,-3.36,4.20,0.14,-0.04,0.05,-52.44,-9.39,33.36
20432,-8.10,-4.27,4.34,0.18,-0.04,0.04,-51.97,-7.13,31.88
20443,-8.10,-4.27,4.34,0.18,-0.04,0.04,-51.97,-7.13,31.88
20454,-7.52,-3.47,3.31,0.07,-0.13,0.20,-51.97,-7.13,31.88
20465,-7.52,-3.47,3.31,0.07,-0.13,0.20,-51.97,-7.13,31.88
20476,-8.13,-3.13,4.71,0.11,-0.44,0.32,-51.97,-7.13,31.88
20487,-8.13,-3.13,4.71,0.11,-0.44,0.32,-51.97,-7.13,31.88
20498,-8.07,-3.31,5.23,0.09,-0.49,0.28,-51.97,-7.13,31.88
20509,-8.05,-3.62,5.24,-0.28,-0.25,0.09,-51.97,-7.13,31.88
20520,-8.05,-3.62,5.24,-0.28,-0.25,0.09,-51.97,-7.13,31.88
20531,-8.35,-4.65,3.27,-0.59,0.02,-0.13,-51.97,-7.13,31.88
20542,-8.35,-4.65,3.27,-0.59,0.02,-0.13,-51.97,-7.13,31.88
20553,-8.46,-3.18,3.99,-0.36,0.06,-0.06,-51.73,-7.62,33.81
20564,-8.46,-3.18,3.99,-0.36,0.06,-0.06,-51.73,-7.62,33.81
20575,-8.25,-3.66,3.51,-0.24,0.20,-0.14,-51.73,-7.62,33.81
20586,-8.25,-3.66,3.51,-0.24,0.20,-0.14,-51.73,-7.62,33.81
20597,-8.48,-3.63,4.32,-0.01,0.16,-0.06,-51.73,-7.62,33.81
20608,-8.12,-4.76,3.82,0.09,0.15,0.09,-51.73,-7.62,33.81
20619,-8.12,-4.76,3.82,0.09,0.15,0.09,-51.73,-7.62,33.81
20630,-7.88,-3.59,3.99,0.12,0.14,0.32,-51.73,-7.62,33.81
20641,-7.88,-3.59,3.99,0.12,0.14,0.32,-51.73,-7.62,33.81
20652,-7.92,-3.51,4.99,0.37,0.13,0.22,-51.73,-7.62,33.81
20663,-7.92,-3.51,4.99,0.37,0.13,0.22,-51.73,-7.62,33.81
20674,-7.80,-2.55,4.40,0.20,0.22,-0.02,-51.73,-7.62,33.81
20685,-7.80,-2.55,4.40,0.20,0.22,-0.02,-51.73,-7.62,33.81
20696,-7.94,-3.38,4.66,-0.11,0.15,-0.22,-53.87,-9.07,32.17
20707,-7.94,-3.38,4.66,-0.11,0.15,-0.22,-53.87,-9.07,32.17
20718,-7.95,-3.37,3.37,-0.43,0.04,-0.21,-53.87,-9.07,32.17
20730,-8.39,-4.46,4.07,-0.28,-0.12,-0.14,-53.87,-9.07,32.17
20740,-8.39,-4.46,4.07,-0.28,-0.12,-0.14,-53.87,-9.07,32.17
20751,-8.82,-3.00,4.16,-0.06,-0.16,0.08,-53.87,-9.07,32.17
20762,-8.82,-3.00,4.16,-0.06,-0.16,0.08,-53.87,-9.07,32.17
20773,-8.65,-2.13,4.44,-0.22,-0.27,-0.02,-53.87,-9.07,32.17
20784,-8.65,-2.13,4.44,-0.22,-0.27,-0.02,-53.87,-9.07,32.17
20795,-7.29,-4.60,4.31,-0.49,-0.29,-0.21,-53.87,-9.07,32.17
20806,-7.29,-4.60,4.31,-0.49,-0.29,-0.21,-53.87,-9.07,32.17
20817,-6.86,-5.49,3.90,-0.41,-0.15,0.01,-51.97,-10.04,32.17
20828,-6.81,-6.02,3.51,-0.11,0.08,0.23,-51.97,-10.04,32.17
20839,-6.81,-6.02,3.51,-0.11,0.08,0.23,-51.97,-10.04,32.17
20850,-8.77,-2.86,3.83,0.12,0.06,0.34,-51.97,-10.04,32.17
20861,-8.77,-2.86,3.83,0.12,0.06,0.34,-51.97,-10.04,32.17
20872,-9.05,-1.94,5.20,0.03,-0.04,0.08,-51.97,-10.04,32.17
20883,-9.05,-1.94,5.20,0.03,-0.04,0.08,-51.97,-10.04,32.17
20894,-8.39,-3.34,4.28,-0.07,0.23,-0.16,-51.97,-10.04,32.17
20905,-8.39,-3.34,4.28,-0.07,0.23,-0.16,-51.97,-10.04,32.17
20916,-8.20,-4.32,4.01,0.03,0.31,-0.15,-51.97,-10.04,32.17
20927,-8.20,-4.32,4.01,0.03,0.31,-0.15,-51.97,-10.04,32.17
20938,-8.14,-4.36,3.85,0.15,0.21,-0.00,-52.92,-8.42,31.58
20949,-7.82,-3.85,3.36,0.15,0.09,0.19,-52.92,-8.42,31.58
20960,-7.82,-3.85,3.36,0.15,0.09,0.19,-52.92,-8.42,31.58
20971,-7.82,-3.94,4.45,0.15,-0.09,0.26,-52.92,-8.42,31.58
20982,-7.82,-3.94,4.45,0.15,-0.09,0.26,-52.92,-8.42,31.58
20993,-7.83,-3.19,4.35,-0.05,-0.20,0.24,-52.92,-8.42,31.58
21004,-7.83,-3.19,4.35,-0.05,-0.20,0.24,-52.92,-8.42,31.58
21015,-7.92,-3.35,3.77,-0.25,-0.26,0.11,-52.92,-8.42,31.58
21026,-7.92,-3.35,3.77,-0.25,-0.26,0.11,-52.92,-8.42,31.58
21037,-8.44,-3.92,4.53,-0.35,-0.27,-0.01,-52.92,-8.42,31.58
21048,-8.44,-3.92,4.53,-0.35,-0.27,-0.01,-52.92,-8.42,31.58
21059,-8.59,-3.85,4.22,-0.41,-0.13,-0.03,-52.92,-8.42,31.58
21070,-8.42,-3.64,3.56,-0.21,0.04,-0.03,-54.58,-8.58,32.92
21081,-8.42,-3.64,3.56,-0.21,0.04,-0.03,-54.58,-8.58,32.92
21092,-8.57,-3.74,4.45,-0.04,0.16,-0.04,-54.58,-8.58,32.92
21103,-8.57,-3.74,4.45,-0.04,0.16,-0.04,-54.58,-8.58,32.92
21114,-8.06,-3.28,3.51,-0.00,0.31,-0.04,-54.58,-8.58,32.92
21125,-8.06,-3.28,3.51,-0.00,0.31,-0.04,-54.58,-8.58,32.92
21136,-8.00,-4.42,4.50,0.10,0.22,-0.00,-54.58,-8.58,32.92
21147,-8.00,-4.42,4.50,0.10,0.22,-0.00,-54.58,-8.58,32.92
21158,-8.12,-4.38,4.25,-0.00,0.15,0.15,-54.58,-8.58,32.92
21169,-7.74,-3.37,3.09,-0.05,0.06,0.31,-54.58,-8.58,32.92
21180,-7.74,-3.37,3.09,-0.05,0.06,0.31,-54.58,-8.58,32.92
21191,-7.83,-2.79,3.84,0.10,-0.18,0.30,-54.82,-8.10,31.88
21202,-7.83,-2.79,3.84,0.10,-0.18,0.30,-54.82,-8.10,31.88
21213,-8.21,-3.10,4.16,-0.00,-0.34,0.14,-54.82,-8.10,31.88
21224,-8.21,-3.10,4.16,-0.00,-0.34,0.14,-54.82,-8.10,31.88
21235,-8.52,-3.80,3.90,-0.10,-0.31,-0.04,-54.82,-8.10,31.88
21246,-8.52,-3.80,3.90,-0.10,-0.31,-0.04,-54.82,-8.10,31.88
21257,-8.44,-4.46,4.21,-0.12,-0.22,-0.07,-54.82,-8.10,31.88
21268,-8.44,-4.46,4.21,-0.12,-0.22,-0.07,-54.82,-8.10,31.88
21279,-8.38,-3.68,3.84,-0.19,-0.05,0.01,-54.82,-8.10,31.88
21290,-8.70,-4.07,4.65,-0.06,0.05,0.02,-54.82,-8.10,31.88
21301,-8.70,-4.07,4.65,-0.06,0.05,0.02,-54.82,-8.10,31.88
21312,-8.34,-2.68,3.34,0.03,0.24,0.05,-51.97,-8.42,33.96
21323,-8.34,-2.68,3.34,0.03,0.24,0.05,-51.97,-8.42,33.96
21334,-8.41,-2.72,4.48,0.20,0.25,0.01,-51.97,-8.42,33.96
21345,-8.41,-2.72,4.48,0.20,0.25,0.01,-51.97,-8.42,33.96
21356,-8.51,-4.67,3.86,0.11,0.29,0.01,-51.97,-8.42,33.96
21367,-8.51,-4.67,3.86,0.11,0.29,0.01,-51.97,-8.42,33.96
21378,-8.18,-2.18,3.04,0.02,0.15,0.40,-51.97,-8.42,33.96
21389,-10.91,0.03,4.29,-0.07,-0.25,0.36,-51.97,-8.42,33.96
21400,-10.91,0.03,4.29,-0.07,-0.25,0.36,-51.97,-8.42,33.96
21411,-8.39,-0.69,5.63,-0.91,-0.72,-0.47,-51.97,-8.42,33.96
21422,-8.39,-0.69,5.63,-0.91,-0.72,-0.47,-51.97,-8.42,33.96
21433,-6.66,-3.87,3.46,-1.41,-0.72,-0.84,-51.97,-8.42,33.96
21444,-6.66,-3.87,3.46,-1.41,-0.72,-0.84,-51.97,-8.42,33.96
21455,-7.36,-5.59,4.44,-1.04,-0.70,-0.30,-51.97,-8.42,33.96
21466,-7.36,-5.59,4.44,-1.04,-0.70,-0.30,-51.97,-8.42,33.96
21477,-7.71,-4.40,3.59,-0.50,-0.24,0.16,-51.97,-8.42,33.96
21489,-7.71,-4.40,3.59,-0.50,-0.24,0.16,-51.97,-8.42,33.96
21499,-6.84,-7.51,3.04,-0.12,0.17,-0.16,-51.97,-8.42,33.96
21510,-6.49,-7.68,1.91,0.34,0.49,-0.32,-51.97,-8.42,33.96
21521,-6.49,-7.68,1.91,0.34,0.49,-0.32,-51.97,-8.42,33.96
21532,-6.94,-6.61,1.49,0.95,0.53,-0.07,-51.97,-8.42,33.96
21543,-6.94,-6.61,1.49,0.95,0.53,-0.07,-51.97,-8.42,33.96
21554,-9.01,-1.76,5.45,1.19,0.15,0.36,-51.97,-8.42,33.96
21565,-9.01,-1.76,5.45,1.19,0.15,0.36,-51.97,-8.42,33.96
21576,-9.11,-1.60,4.87,0.77,0.19,0.08,-51.97,-9.39,32.17
21587,-9.11,-1.60,4.87,0.77,0.19,0.08,-51.97,-9.39,32.17
21598,-8.64,-1.86,4.91,0.24,0.14,-0.22,-51.97,-9.39,32.17
21609,-7.85,-4.36,3.40,-0.01,0.15,-0.47,-51.97,-9.39,32.17
21620,-7.85,-4.36,3.40,-0.01,0.15,-0.47,-51.97,-9.39,32.17
21631,-7.66,-4.65,3.71,0.05,0.06,-0.34,-51.97,-9.39,32.17
21642,-7.66,-4.65,3.71,0.05,0.06,-0.34,-51.97,-9.39,32.17
21653,-7.76,-4.76,3.80,0.14,0.05,-0.12,-51.97,-9.39,32.17
21664,-7.76,-4.76,3.80,0.14,0.05,-0.12,-51.97,-9.39,32.17
21675,-8.00,-4.23,4.13,0.21,0.07,0.16,-51.97,-9.39,32.17
21686,-8.00,-4.23,4.13,0.21,0.07,0.16,-51.97,-9.39,32.17
21697,-8.68,-2.79,3.26,0.18,0.06,0.24,-54.82,-10.36,32.17
21708,-8.68,-2.79,3.26,0.18,0.06,0.24,-54.82,-10.36,32.17
21719,-8.36,-3.09,5.01,0.03,-0.09,0.12,-54.82,-10.36,32.17
21730,-8.36,-3.33,4.37,-0.20,0.01,0.08,-54.82,-10.36,32.17
21742,-8.36,-3.33,4.37,-0.20,0.01,0.08,-54.82,-10.36,32.17
21752,-7.85,-4.69,3.35,-0.18,-0.01,0.17,-54.82,-10.36,32.17
21763,-7.85,-4.69,3.35,-0.18,-0.01,0.17,-54.82,-10.36,32.17
21774,-7.58,-3.75,3.63,-0.01,-0.30,0.39,-54.82,-10.36,32.17
21785,-7.58,-3.75,3.63,-0.01,-0.30,0.39,-54.82,-10.36,32.17
21796,-7.66,-3.02,4.28,0.10,-0.60,0.40,-54.82,-10.36,32.17
21807,-7.66,-3.02,4.28,0.10,-0.60,0.40,-54.82,-10.36,32.17
21818,-7.94,-3.32,5.04,0.09,-0.67,0.27,-50.54,-8.10,33.66
21829,-8.04,-3.58,4.48,-0.11,-0.52,0.06,-50.54,-8.10,33.66
21840,-8.04,-3.58,4.48,-0.11,-0.52,0.06,-50.54,-8.10,33.66
21851,-8.90,-4.22,4.76,-0.64,-0.34,-0.10,-50.54,-8.10,33.66
21862,-8.90,-4.22,4.76,-0.64,-0.34,-0.10,-50.54,-8.10,33.66
21873,-8.68,-3.55,4.48,-0.64,-0.02,-0.08,-50.54,-8.10,33.66
21884,-8.68,-3.55,4.48,-0.64,-0.02,-0.08,-50.54,-8.10,33.66
21895,-8.50,-3.78,4.76,-0.40,0.27,-0.19,-50.54,-8.10,33.66
21906,-8.50,-3.78,4.76,-0.40,0.27,-0.19,-50.54,-8.10,33.66
21917,-8.05,-3.58,4.22,-0.25,0.58,-0.21,-50.54,-8.10,33.66
21928,-8.05,-3.58,4.22,-0.25,0.58,-0.21,-50.54,-8.10,33.66
21939,-8.23,-4.24,4.72,-0.02,0.73,-0.23,-50.54,-8.10,33.66
21950,-7.81,-3.60,2.14,0.11,0.77,-0.11,-51.97,-8.42,33.96
21961,-7.81,-3.60,2.14,0.11,0.77,-0.11,-51.97,-8.42,33.96
21972,-7.83,-4.10,3.51,0.32,0.49,0.08,-51.97,-8.42,33.96
21983,-7.83,-4.10,3.51,0.32,0.49,0.08,-51.97,-8.42,33.96
21994,-7.85,-3.92,3.75,0.25,0.22,0.22,-51.97,-8.42,33.96
22005,-7.85,-3.92,3.75,0.25,0.22,0.22,-51.97,-8.42,33.96
22016,-7.52,-3.84,3.53,0.04,-0.01,0.30,-51.97,-8.42,33.96
22027,-7.52,-3.84,3.53,0.04,-0.01,0.30,-51.97,-8.42,33.96
22038,-7.97,-3.20,3.29,-0.22,-0.35,0.36,-51.97,-8.42,33.96
22049,-7.97,-3.20,3.29,-0.22,-0.35,0.36,-51.97,-8.42,33.96
22060,-7.94,-3.14,4.26,-0.23,-0.55,0.27,-51.97,-8.42,33.96
22071,-8.54,-4.33,4.36,-0.29,-0.38,0.01,-53.39,-10.04,33.07
22082,-8.54,-4.33,4.36,-0.29,-0.38,0.01,-53.39,-10.04,33.07
22093,-8.69,-3.78,3.90,-0.38,-0.13,-0.06,-53.39,-10.04,33.07
22104,-8.69,-3.78,3.90,-0.38,-0.13,-0.06,-53.39,-10.04,33.07
22115,-8.61,-3.16,4.03,-0.21,0.04,-0.09,-53.39,-10.04,33.07
22126,-8.61,-3.16,4.03,-0.21,0.04,-0.09,-53.39,-10.04,33.07
22137,-8.34,-3.90,3.86,-0.08,0.26,-0.21,-53.39,-10.04,33.07
22148,-8.34,-3.90,3.86,-0.08,0.26,-0.21,-53.39,-10.04,33.07
22159,-8.20,-3.99,3.14,0.01,0.35,-0.18,-53.39,-10.04,33.07
22170,-8.41,-3.93,4.41,0.21,0.25,-0.02,-53.39,-10.04,33.07
22181,-8.41,-3.93,4.41,0.21,0.25,-0.02,-53.39,-10.04,33.07
22192,-8.25,-4.14,3.22,0.19,0.21,0.07,-53.16,-9.55,32.03
22203,-8.25,-4.14,3.22,0.19,0.21,0.07,-53.16,-9.55,32.03
22214,-8.13,-3.17,3.49,0.14,0.10,0.30,-53.16,-9.55,32.03
22225,-8.13,-3.17,3.49,0.14,0.10,0.30,-53.16,-9.55,32.03
22236,-7.75,-3.66,3.34,0.17,-0.06,0.37,-53.16,-9.55,32.03
22247,-7.75,-3.66,3.34,0.17,-0.06,0.37,-53.16,-9.55,32.03
22259,-7.60,-3.29,3.78,0.14,-0.28,0.29,-53.16,-9.55,32.03
22269,-7.60,-3.29,3.78,0.14,-0.28,0.29,-53.16,-9.55,32.03
22280,-7.85,-3.18,3.81,-0.09,-0.36,0.13,-53.16,-9.55,32.03
22291,-8.49,-4.29,3.42,-0.03,-0.39,0.00,-53.16,-9.55,32.03
22302,-8.49,-4.29,3.42,-0.03,-0.39,0.00,-53.16,-9.55,32.03
22313,-8.60,-4.23,4.45,0.03,-0.32,0.06,-53.16,-9.55,32.03
22324,-8.60,-4.23,4.45,0.03,-0.32,0.06,-53.16,-9.55,32.03
22335,-8.52,-2.98,4.51,-0.06,-0.12,0.11,-52.20,-9.55,32.62
22346,-8.52,-2.98,4.51,-0.06,-0.12,0.11,-52.20,-9.55,32.62
22357,-8.61,-4.18,4.86,-0.21,0.02,0.07,-52.20,-9.55,32.62
22368,-8.61,-4.18,4.86,-0.21,0.02,0.07,-52.20,-9.55,32.62
22379,-8.47,-3.68,3.26,-0.21,0.17,0.20,-52.20,-9.55,32.62
22390,-8.21,-4.16,4.17,0.26,0.22,0.28,-52.20,-9.55,32.62
22401,-8.21,-4.16,4.17,0.26,0.22,0.28,-52.20,-9.55,32.62
22412,-8.38,-2.13,4.39,0.59,0.24,0.25,-52.20,-9.55,32.62
22423,-8.38,-2.13,4.39,0.59,0.24,0.25,-52.20,-9.55,32.62
22434,-8.09,-1.22,4.86,0.55,0.29,-0.09,-52.20,-9.55,32.62
22445,-8.09,-1.22,4.86,0.55,0.29,-0.09,-52.20,-9.55,32.62
22456,-8.03,-2.50,4.45,0.05,0.25,-0.39,-52.68,-7.94,32.03
22467,-8.03,-2.50,4.45,0.05,0.25,-0.39,-52.68,-7.94,32.03
22478,-10.50,-1.92,3.43,-0.40,-0.07,-0.60,-52.68,-7.94,32.03
22489,-10.50,-1.92,3.43,-0.40,-0.07,-0.60,-52.68,-7.94,32.03
22500,-9.49,-0.31,6.24,-0.95,-0.47,-1.01,-52.68,-7.94,32.03
22511,-8.16,-3.67,3.68,-1.23,-0.33,-1.32,-52.68,-7.94,32.03
22522,-8.16,-3.67,3.68,-1.23,-0.33,-1.32,-52.68,-7.94,32.03
22533,-4.94,-8.16,2.43,-0.97,-0.27,-0.86,-52.68,-7.94,32.03
22544,-4.94,-8.16,2.43,-0.97,-0.27,-0.86,-52.68,-7.94,32.03
22555,-8.67,-1.52,3.17,-0.10,-0.47,0.76,-52.68,-7.94,32.03
22566,-8.67,-1.52,3.17,-0.10,-0.47,0.76,-52.68,-7.94,32.03
22577,-8.00,-5.12,4.96,0.02,-0.38,0.56,-52.68,-11.81,33.22
22588,-8.00,-5.12,4.96,0.02,-0.38,0.56,-52.68,-11.81,33.22
22599,-6.71,-6.72,2.20,-0.11,0.11,0.13,-52.68,-11.81,33.22
22610,-6.92,-7.33,2.28,0.27,0.24,-0.00,-52.68,-11.81,33.22
22621,-6.92,-7.33,2.28,0.27,0.24,-0.00,-52.68,-11.81,33.22
22632,-6.28,-7.78,2.07,0.57,0.27,-0.01,-52.68,-11.81,33.22
22643,-6.28,-7.78,2.07,0.57,0.27,-0.01,-52.68,-11.81,33.22
22654,-8.67,-3.47,4.01,0.92,0.13,0.48,-52.68,-11.81,33.22
22665,-8.67,-3.47,4.01,0.92,0.13,0.48,-52.68,-11.81,33.22
22676,-9.38,-1.22,5.11,0.74,0.12,0.33,-52.68,-11.81,33.22
22687,-9.38,-1.22,5.11,0.74,0.12,0.33,-52.68,-11.81,33.22
22698,-9.10,-1.46,4.49,0.41,0.16,-0.12,-52.68,-11.81,33.22
22709,-9.10,-1.46,4.49,0.41,0.16,-0.12,-52.68,-11.81,33.22
22720,-8.67,-2.51,4.67,0.07,0.04,-0.34,-53.39,-8.75,33.36
22731,-7.79,-4.83,3.71,-0.12,0.02,-0.44,-53.39,-8.75,33.36
22742,-7.79,-4.83,3.71,-0.12,0.02,-0.44,-53.39,-8.75,33.36
22753,-7.61,-5.23,3.52,-0.02,0.04,-0.17,-53.39,-8.75,33.36
22764,-7.61,-5.23,3.52,-0.02,0.04,-0.17,-53.39,-8.75,33.36
22775,-7.55,-4.61,3.98,0.15,0.05,0.08,-53.39,-8.75,33.36
22786,-7.55,-4.61,3.98,0.15,0.05,0.08,-53.39,-8.75,33.36
22797,-7.94,-4.22,4.02,0.26,0.13,0.27,-53.39,-8.75,33.36
22808,-7.94,-4.22,4.02,0.26,0.13,0.27,-53.39,-8.75,33.36
22819,-8.59,-1.95,4.95,0.18,0.05,0.23,-53.39,-8.75,33.36
