time,ax,ay,az,gx,gy,gz,mx,my,mz
402,-0.34,6.26,-8.20,0.04,0.03,0.02,-35.22,23.16,-24.14
412,-0.34,6.26,-8.20,0.04,0.03,0.02,-35.22,23.16,-24.14
424,-0.52,6.34,-8.09,-0.13,-0.11,-0.03,-36.37,22.08,-25.24
434,-0.52,6.34,-8.09,-0.13,-0.11,-0.03,-36.37,22.08,-25.24
445,-1.02,6.27,-8.09,0.02,-0.05,0.08,-36.37,22.08,-25.24
456,-1.02,6.27,-8.09,0.02,-0.05,0.08,-36.37,22.08,-25.24
467,-0.44,6.32,-8.16,0.02,0.01,0.02,-36.37,22.08,-25.24
478,-0.44,6.32,-8.16,0.02,0.01,0.02,-36.37,22.08,-25.24
489,-0.53,6.45,-8.00,-0.03,-0.01,-0.01,-36.37,22.08,-25.24
500,-0.53,6.45,-8.00,-0.03,-0.01,-0.01,-36.37,22.08,-25.24
511,-0.45,6.34,-8.14,0.03,0.02,0.01,-36.37,22.08,-25.24
522,-0.51,6.40,-8.03,-0.03,-0.01,-0.01,-36.37,22.08,-25.24
533,-0.51,6.40,-8.03,-0.03,-0.01,-0.01,-36.37,22.08,-25.24
544,-0.43,6.33,-8.13,0.02,0.02,0.01,-34.99,23.01,-23.66
555,-0.43,6.33,-8.13,0.02,0.02,0.01,-34.99,23.01,-23.66
566,-0.48,6.40,-8.04,-0.02,-0.01,-0.01,-34.99,23.01,-23.66
577,-0.48,6.40,-8.04,-0.02,-0.01,-0.01,-34.99,23.01,-23.66
588,-0.45,6.34,-8.10,0.01,0.01,0.01,-34.99,23.01,-23.66
599,-0.45,6.34,-8.10,0.01,0.01,0.01,-34.99,23.01,-23.66
610,-0.51,6.39,-8.06,-0.01,-0.00,-0.00,-34.99,23.01,-23.66
621,-0.45,6.36,-8.07,0.01,0.01,0.00,-34.99,23.01,-23.66
632,-0.45,6.36,-8.07,0.01,0.01,0.00,-34.99,23.01,-23.66
643,-0.46,6.38,-8.04,-0.00,0.00,-0.00,-34.99,23.01,-23.66
654,-0.46,6.38,-8.04,-0.00,0.00,-0.00,-34.99,23.01,-23.66
665,-0.45,6.38,-8.10,0.00,0.01,0.00,-34.76,22.86,-23.82
676,-0.45,6.38,-8.10,0.00,0.01,0.00,-34.76,22.86,-23.82
687,-0.48,6.36,-8.07,-0.00,0.00,0.00,-34.76,22.86,-23.82
698,-0.48,6.36,-8.07,-0.00,0.00,0.00,-34.76,22.86,-23.82
713,-0.49,6.38,-8.05,-0.00,0.00,0.00,-34.76,22.86,-23.82
720,-0.49,6.38,-8.05,-0.00,0.00,0.00,-34.76,22.86,-23.82
731,-0.45,6.38,-8.07,0.00,0.00,0.00,-34.76,22.86,-23.82
742,-0.44,6.38,-8.08,0.00,0.00,0.00,-34.76,22.86,-23.82
753,-0.44,6.38,-8.08,0.00,0.00,0.00,-34.76,22.86,-23.82
764,-0.46,6.35,-8.08,0.00,0.00,0.00,-34.76,22.86,-23.82
775,-0.46,6.35,-8.08,0.00,0.00,0.00,-34.76,22.86,-23.82
787,-0.49,6.36,-8.09,-0.00,0.00,0.00,-34.76,22.86,-23.82
797,-0.49,6.36,-8.09,-0.00,0.00,0.00,-34.76,22.86,-23.82
808,-0.47,6.39,-8.08,0.00,0.01,0.00,-35.45,21.77,-23.66
819,-0.47,6.39,-8.08,0.00,0.01,0.00,-35.45,21.77,-23.66
830,-0.46,6.40,-8.05,-0.00,0.00,0.00,-35.45,21.77,-23.66
841,-0.45,6.37,-8.11,0.00,0.00,0.00,-35.45,21.77,-23.66
852,-0.45,6.37,-8.11,0.00,0.00,0.00,-35.45,21.77,-23.66
863,-0.47,6.35,-8.10,-0.00,0.00,0.00,-35.45,21.77,-23.66
874,-0.47,6.35,-8.10,-0.00,0.00,0.00,-35.45,21.77,-23.66
885,-0.49,6.36,-8.07,0.00,0.00,0.00,-35.45,21.77,-23.66
896,-0.49,6.36,-8.07,0.00,0.00,0.00,-35.45,21.77,-23.66
907,-0.48,6.40,-8.07,-0.00,0.00,0.00,-35.45,21.77,-23.66
918,-0.48,6.40,-8.07,-0.00,0.00,0.00,-35.45,21.77,-23.66
929,-0.43,6.38,-8.09,0.00,0.00,0.00,-37.30,22.39,-22.71
940,-0.43,6.38,-8.09,0.00,0.00,0.00,-37.30,22.39,-22.71
951,-0.45,6.37,-8.09,0.00,0.00,0.00,-37.30,22.39,-22.71
962,-0.48,6.37,-8.10,0.00,0.00,0.00,-37.30,22.39,-22.71
973,-0.48,6.37,-8.10,0.00,0.00,0.00,-37.30,22.39,-22.71
984,-0.49,6.38,-8.07,-0.00,0.00,0.00,-37.30,22.39,-22.71
995,-0.49,6.38,-8.07,-0.00,0.00,0.00,-37.30,22.39,-22.71
1006,-0.47,6.38,-8.09,0.00,0.00,0.00,-37.30,22.39,-22.71
1017,-0.47,6.38,-8.09,0.00,0.00,0.00,-37.30,22.39,-22.71
1028,-0.44,6.38,-8.08,0.00,0.00,0.00,-37.30,22.39,-22.71
1039,-0.44,6.38,-8.08,0.00,0.00,0.00,-37.30,22.39,-22.71
1050,-0.44,6.37,-8.09,0.00,0.01,0.00,-35.45,22.08,-24.29
1061,-0.48,6.38,-8.10,0.00,0.00,0.00,-35.45,22.08,-24.29
1072,-0.48,6.38,-8.10,0.00,0.00,0.00,-35.45,22.08,-24.29
1083,-0.48,6.36,-8.09,0.00,0.00,0.00,-35.45,22.08,-24.29
1094,-0.48,6.36,-8.09,0.00,0.00,0.00,-35.45,22.08,-24.29
1105,-0.46,6.38,-8.09,0.00,0.00,0.00,-35.45,22.08,-24.29
1116,-0.46,6.38,-8.09,0.00,0.00,0.00,-35.45,22.08,-24.29
1127,-0.45,6.39,-8.05,0.00,0.00,0.00,-35.45,22.08,-24.29
1138,-0.45,6.39,-8.05,0.00,0.00,0.00,-35.45,22.08,-24.29
1153,-0.45,6.40,-8.06,0.00,0.00,0.00,-35.45,22.08,-24.29
1160,-0.45,6.40,-8.06,0.00,0.00,0.00,-35.45,22.08,-24.29
1171,-0.48,6.37,-8.09,0.00,0.00,0.00,-35.45,23.32,-23.34
1182,-0.49,6.38,-8.10,0.00,0.00,0.00,-35.45,23.32,-23.34
1193,-0.49,6.38,-8.10,0.00,0.00,0.00,-35.45,23.32,-23.34
1204,-0.45,6.38,-8.08,0.00,0.00,0.00,-35.45,23.32,-23.34
1215,-0.45,6.38,-8.08,0.00,0.00,0.00,-35.45,23.32,-23.34
1226,-0.44,6.40,-8.06,0.00,0.00,0.00,-35.45,23.32,-23.34
1237,-0.44,6.40,-8.06,0.00,0.00,0.00,-35.45,23.32,-23.34
1248,-0.45,6.36,-8.09,0.00,0.00,0.00,-35.45,23.32,-23.34
1259,-0.45,6.36,-8.09,0.00,0.00,0.00,-35.45,23.32,-23.34
1270,-0.48,6.35,-8.10,0.00,0.00,0.00,-35.45,23.32,-23.34
1281,-0.47,6.36,-8.07,0.00,0.00,0.00,-35.45,23.32,-23.34
1292,-0.47,6.36,-8.07,0.00,0.00,0.00,-35.45,23.32,-23.34
1303,-0.44,6.38,-8.07,0.00,0.00,0.00,-34.99,22.08,-23.34
1314,-0.44,6.38,-8.07,0.00,0.00,0.00,-34.99,22.08,-23.34
1325,-0.45,6.40,-8.08,0.00,0.00,0.00,-34.99,22.08,-23.34
1336,-0.45,6.40,-8.08,0.00,0.00,0.00,-34.99,22.08,-23.34
1347,-0.46,6.37,-8.08,0.00,0.00,0.00,-34.99,22.08,-23.34
1358,-0.46,6.37,-8.08,0.00,0.00,0.00,-34.99,22.08,-23.34
1369,-0.48,6.36,-8.10,0.00,0.00,0.00,-34.99,22.08,-23.34
1380,-0.48,6.36,-8.10,0.00,0.00,0.00,-34.99,22.08,-23.34
1391,-0.47,6.37,-8.09,-0.00,0.00,0.00,-34.99,22.08,-23.34
1402,-0.45,6.39,-8.06,0.00,0.00,0.00,-34.99,22.08,-23.34
1413,-0.45,6.39,-8.06,0.00,0.00,0.00,-34.99,22.08,-23.34
1424,-0.45,6.39,-8.08,0.00,0.00,0.00,-36.14,22.24,-23.82
1435,-0.45,6.39,-8.08,0.00,0.00,0.00,-36.14,22.24,-23.82
1446,-0.45,6.37,-8.11,0.00,0.00,0.00,-36.14,22.24,-23.82
1457,-0.45,6.37,-8.11,0.00,0.00,0.00,-36.14,22.24,-23.82
1468,-0.49,6.36,-8.10,0.00,0.00,0.00,-36.14,22.24,-23.82
1479,-0.49,6.36,-8.10,0.00,0.00,0.00,-36.14,22.24,-23.82
1490,-0.45,6.37,-8.06,0.00,0.00,0.00,-36.14,22.24,-23.82
1501,-0.45,6.37,-8.06,0.00,0.00,0.00,-36.14,22.24,-23.82
1512,-0.43,6.37,-8.09,0.00,0.00,0.00,-36.14,22.24,-23.82
1523,-0.45,6.38,-8.09,0.00,0.00,0.00,-36.14,22.24,-23.82
1534,-0.45,6.38,-8.09,0.00,0.00,0.00,-36.14,22.24,-23.82
1545,-0.46,6.37,-8.09,0.00,0.00,0.00,-35.91,22.08,-24.29
1556,-0.46,6.37,-8.09,0.00,0.00,0.00,-35.91,22.08,-24.29
1567,-0.48,6.38,-8.10,0.00,0.00,0.00,-35.91,22.08,-24.29
1578,-0.48,6.38,-8.10,0.00,0.00,0.00,-35.91,22.08,-24.29
1590,-0.45,6.36,-8.09,0.00,0.00,0.00,-35.91,22.08,-24.29
1600,-0.45,6.36,-8.09,0.00,0.00,0.00,-35.91,22.08,-24.29
1611,-0.43,6.36,-8.10,0.00,0.00,0.00,-35.91,22.08,-24.29
1622,-0.45,6.38,-8.07,0.00,0.00,0.00,-35.91,22.08,-24.29
1633,-0.45,6.38,-8.07,0.00,0.00,0.00,-35.91,22.08,-24.29
1644,-0.47,6.38,-8.05,0.00,0.00,0.00,-35.91,22.08,-24.29
1655,-0.47,6.38,-8.05,0.00,0.00,0.00,-35.91,22.08,-24.29
1666,-0.48,6.38,-8.11,0.00,0.00,0.00,-35.91,22.08,-24.29
1677,-0.48,6.38,-8.11,0.00,0.00,0.00,-35.91,22.08,-24.29
1688,-0.45,6.36,-8.11,0.00,0.00,0.00,-35.45,21.46,-24.93
1699,-0.45,6.36,-8.11,0.00,0.00,0.00,-35.45,21.46,-24.93
1710,-0.44,6.38,-8.10,0.00,0.00,0.00,-35.45,21.46,-24.93
1721,-0.44,6.38,-8.10,0.00,0.00,0.00,-35.45,21.46,-24.93
1732,-0.46,6.39,-8.06,-0.00,0.00,0.00,-35.45,21.46,-24.93
1743,-0.48,6.38,-8.06,0.00,0.00,0.00,-35.45,21.46,-24.93
1754,-0.48,6.38,-8.06,0.00,0.00,0.00,-35.45,21.46,-24.93
1765,-0.46,6.36,-8.10,0.00,0.00,0.00,-35.45,21.46,-24.93
1776,-0.46,6.36,-8.10,0.00,0.00,0.00,-35.45,21.46,-24.93
1787,-0.45,6.35,-8.08,0.00,0.00,0.00,-35.45,21.46,-24.93
1798,-0.45,6.35,-8.08,0.00,0.00,0.00,-35.45,21.46,-24.93
1809,-0.45,6.37,-8.09,0.00,0.00,0.00,-36.60,22.55,-23.50
1820,-0.45,6.37,-8.09,0.00,0.00,0.00,-36.60,22.55,-23.50
1831,-0.46,6.39,-8.05,0.00,0.00,0.00,-36.60,22.55,-23.50
1842,-0.48,6.38,-8.09,0.00,0.00,0.00,-36.60,22.55,-23.50
1853,-0.48,6.38,-8.09,0.00,0.00,0.00,-36.60,22.55,-23.50
1864,-0.47,6.35,-8.10,0.00,0.00,0.00,-36.60,22.55,-23.50
1875,-0.47,6.35,-8.10,0.00,0.00,0.00,-36.60,22.55,-23.50
1886,-0.45,6.36,-8.09,0.00,0.00,0.00,-36.60,22.55,-23.50
1897,-0.45,6.36,-8.09,0.00,0.00,0.00,-36.60,22.55,-23.50
1908,-0.45,6.39,-8.06,-0.00,0.00,0.00,-36.60,22.55,-23.50
1919,-0.45,6.39,-8.06,-0.00,0.00,0.00,-36.60,22.55,-23.50
1930,-0.46,6.39,-8.10,0.00,0.00,0.00,-36.37,23.94,-23.34
1941,-0.46,6.39,-8.10,0.00,0.00,0.00,-36.37,23.94,-23.34
1952,-0.48,6.36,-8.10,0.00,0.00,0.00,-36.37,23.94,-23.34
1963,-0.47,6.36,-8.09,0.00,0.00,0.00,-36.37,23.94,-23.34
1974,-0.47,6.36,-8.09,0.00,0.00,0.00,-36.37,23.94,-23.34
1985,-0.45,6.36,-8.08,0.00,0.00,0.00,-36.37,23.94,-23.34
1997,-0.45,6.36,-8.08,0.00,0.00,0.00,-36.37,23.94,-23.34
2007,-0.45,6.38,-8.07,0.00,0.00,0.00,-36.37,23.94,-23.34
2018,-0.45,6.38,-8.07,0.00,0.00,0.00,-36.37,23.94,-23.34
2029,-0.46,6.37,-8.08,0.00,0.00,0.00,-36.37,23.94,-23.34
2040,-0.46,6.37,-8.08,0.00,0.00,0.00,-36.37,23.94,-23.34
2051,-0.47,6.37,-8.07,0.00,0.00,0.00,-36.37,23.94,-23.34
2062,-0.44,6.35,-8.10,0.00,0.00,0.00,-37.07,22.86,-23.82
2073,-0.44,6.35,-8.10,0.00,0.00,0.00,-37.07,22.86,-23.82
2084,-0.45,6.38,-8.08,0.00,0.00,0.00,-37.07,22.86,-23.82
2095,-0.45,6.38,-8.08,0.00,0.00,0.00,-37.07,22.86,-23.82
2106,-0.46,6.38,-8.09,0.00,0.00,0.00,-37.07,22.86,-23.82
2117,-0.46,6.38,-8.09,0.00,0.00,0.00,-37.07,22.86,-23.82
2128,-0.45,6.37,-8.09,0.00,0.00,0.00,-37.07,22.86,-23.82
2139,-0.45,6.37,-8.09,0.00,0.00,0.00,-37.07,22.86,-23.82
2150,-0.47,6.36,-8.10,0.00,0.00,0.00,-37.07,22.86,-23.82
2161,-0.47,6.36,-8.10,0.00,0.00,0.00,-37.07,22.86,-23.82
2172,-0.44,6.35,-8.09,0.00,0.00,0.00,-37.07,22.86,-23.82
2183,-0.44,6.37,-8.12,0.00,0.00,0.00,-36.14,23.16,-23.50
2194,-0.44,6.37,-8.12,0.00,0.00,0.00,-36.14,23.16,-23.50
2205,-0.46,6.37,-8.09,-0.00,0.00,0.00,-36.14,23.16,-23.50
2216,-0.46,6.37,-8.09,-0.00,0.00,0.00,-36.14,23.16,-23.50
2227,-0.46,6.37,-8.05,-0.00,0.00,0.00,-36.14,23.16,-23.50
2238,-0.46,6.37,-8.05,-0.00,0.00,0.00,-36.14,23.16,-23.50
2249,-0.47,6.37,-8.11,0.00,0.00,0.00,-36.14,23.16,-23.50
2260,-0.47,6.37,-8.11,0.00,0.00,0.00,-36.14,23.16,-23.50
2271,-0.46,6.36,-8.07,0.00,0.00,0.00,-36.14,23.16,-23.50
2282,-0.44,6.37,-8.09,-0.00,0.00,0.00,-36.14,23.16,-23.50
2293,-0.44,6.37,-8.09,-0.00,0.00,0.00,-36.14,23.16,-23.50
2304,-0.46,6.39,-8.07,-0.00,0.00,0.00,-37.07,21.93,-22.55
2315,-0.46,6.39,-8.07,-0.00,0.00,0.00,-37.07,21.93,-22.55
2326,-0.46,6.38,-8.09,0.00,0.00,0.00,-37.07,21.93,-22.55
2337,-0.46,6.38,-8.09,0.00,0.00,0.00,-37.07,21.93,-22.55
2348,-0.44,6.37,-8.09,0.00,0.00,0.00,-37.07,21.93,-22.55
2359,-0.44,6.37,-8.09,0.00,0.00,0.00,-37.07,21.93,-22.55
2370,-0.44,6.35,-8.08,0.00,0.00,0.00,-37.07,21.93,-22.55
2381,-0.44,6.35,-8.08,0.00,0.00,0.00,-37.07,21.93,-22.55
2392,-0.45,6.35,-8.08,0.00,0.00,0.00,-37.07,21.93,-22.55
2403,-0.46,6.36,-8.06,-0.00,0.00,0.00,-37.07,21.93,-22.55
2414,-0.46,6.36,-8.06,-0.00,0.00,0.00,-37.07,21.93,-22.55
2425,-0.46,6.38,-8.06,-0.00,0.00,0.00,-37.07,21.93,-22.55
2436,-0.46,6.38,-8.06,-0.00,0.00,0.00,-37.07,21.93,-22.55
2447,-0.45,6.36,-8.12,0.00,0.00,0.00,-37.07,21.93,-22.55
2458,-0.45,6.36,-8.12,0.00,0.00,0.00,-37.07,21.93,-22.55
2469,-0.45,6.35,-8.12,0.00,0.00,0.00,-37.07,21.93,-22.55
2480,-0.45,6.35,-8.12,0.00,0.00,0.00,-37.07,21.93,-22.55
2491,-0.45,6.37,-8.08,-0.00,0.00,0.00,-37.07,21.93,-22.55
2502,-0.47,6.37,-8.08,0.00,0.00,0.00,-37.07,21.93,-22.55
2513,-0.47,6.37,-8.08,0.00,0.00,0.00,-37.07,21.93,-22.55
2524,-0.47,6.36,-8.09,0.00,0.00,0.00,-37.07,21.93,-22.55
2535,-0.47,6.36,-8.09,0.00,0.00,0.00,-37.07,21.93,-22.55
2546,-0.45,6.36,-8.09,0.00,0.00,0.00,-37.07,21.93,-22.55
2557,-0.45,6.36,-8.09,0.00,0.00,0.00,-37.07,21.93,-22.55
2568,-0.45,6.37,-8.12,0.00,0.00,0.00,-35.68,22.55,-23.82
2580,-0.45,6.37,-8.12,0.00,0.00,0.00,-35.68,22.55,-23.82
2590,-0.46,6.38,-8.07,-0.00,0.00,0.00,-35.68,22.55,-23.82
2601,-0.46,6.38,-8.07,-0.00,0.00,0.00,-35.68,22.55,-23.82
2612,-0.48,6.39,-8.07,-0.00,0.00,0.00,-35.68,22.55,-23.82
2623,-0.46,6.37,-8.08,0.00,0.00,0.00,-35.68,22.55,-23.82
2634,-0.46,6.37,-8.08,0.00,0.00,0.00,-35.68,22.55,-23.82
2645,-0.44,6.36,-8.10,0.00,0.00,0.00,-35.68,22.55,-23.82
2656,-0.44,6.36,-8.10,0.00,0.00,0.00,-35.68,22.55,-23.82
2667,-0.45,6.35,-8.09,-0.00,0.00,0.00,-35.68,22.55,-23.82
2678,-0.45,6.35,-8.09,-0.00,0.00,0.00,-35.68,22.55,-23.82
2689,-0.45,6.38,-8.10,-0.00,0.00,0.00,-35.22,22.55,-23.19
2700,-0.45,6.38,-8.10,-0.00,0.00,0.00,-35.22,22.55,-23.19
2711,-0.46,6.38,-8.09,0.00,0.00,0.00,-35.22,22.55,-23.19
2722,-0.46,6.38,-8.09,0.00,0.00,0.00,-35.22,22.55,-23.19
2733,-0.45,6.37,-8.11,0.00,0.00,0.00,-35.22,22.55,-23.19
2744,-0.45,6.37,-8.10,0.00,0.00,0.00,-35.22,22.55,-23.19
2755,-0.45,6.37,-8.10,0.00,0.00,0.00,-35.22,22.55,-23.19
2766,-0.45,6.36,-8.11,0.00,0.00,0.00,-35.22,22.55,-23.19
2777,-0.45,6.36,-8.11,0.00,0.00,0.00,-35.22,22.55,-23.19
2788,-0.46,6.37,-8.07,-0.00,0.00,0.00,-35.22,22.55,-23.19
2799,-0.46,6.37,-8.07,-0.00,0.00,0.00,-35.22,22.55,-23.19
2810,-0.47,6.37,-8.09,-0.00,0.00,0.00,-34.99,22.39,-23.03
2821,-0.47,6.37,-8.09,-0.00,0.00,0.00,-34.99,22.39,-23.03
2832,-0.45,6.37,-8.09,0.00,0.00,0.00,-34.99,22.39,-23.03
2848,-0.44,6.36,-8.10,0.00,0.00,0.00,-34.99,22.39,-23.03
2854,-0.44,6.36,-8.10,0.00,0.00,0.00,-34.99,22.39,-23.03
2865,-0.45,6.37,-8.10,0.00,0.00,0.00,-34.99,22.39,-23.03
2876,-0.45,6.37,-8.10,0.00,0.00,0.00,-34.99,22.39,-23.03
2887,-0.45,6.36,-8.07,-0.00,0.00,0.00,-34.99,22.39,-23.03
2898,-0.45,6.36,-8.07,-0.00,0.00,0.00,-34.99,22.39,-23.03
2909,-0.47,6.36,-8.06,-0.00,0.00,0.00,-34.99,22.39,-23.03
2920,-0.47,6.36,-8.06,-0.00,0.00,0.00,-34.99,22.39,-23.03
2931,-0.45,6.37,-8.05,0.00,0.00,0.00,-34.99,22.39,-23.03
2942,-0.45,6.37,-8.05,0.00,0.00,0.00,-34.99,22.39,-23.03
2953,-0.44,6.36,-8.12,0.00,0.00,0.00,-34.76,22.24,-23.82
2965,-0.44,6.37,-8.08,0.00,0.00,0.00,-34.76,22.24,-23.82
2975,-0.44,6.37,-8.08,0.00,0.00,0.00,-34.76,22.24,-23.82
2986,-0.46,6.37,-8.08,0.00,0.00,0.00,-34.76,22.24,-23.82
2997,-0.46,6.37,-8.08,0.00,0.00,0.00,-34.76,22.24,-23.82
3008,-0.45,6.37,-8.08,-0.00,0.00,0.00,-34.76,22.24,-23.82
3019,-0.45,6.37,-8.08,-0.00,0.00,0.00,-34.76,22.24,-23.82
3030,-0.45,6.37,-8.07,0.00,0.00,0.00,-34.76,22.24,-23.82
3041,-0.45,6.37,-8.07,0.00,0.00,0.00,-34.76,22.24,-23.82
3052,-0.45,6.35,-8.10,0.00,0.00,0.00,-34.76,22.24,-23.82
3063,-0.44,6.36,-8.09,-0.00,0.00,0.00,-35.68,22.86,-24.45
3074,-0.44,6.36,-8.09,-0.00,0.00,0.00,-35.68,22.86,-24.45
3085,-0.46,6.37,-8.08,-0.00,0.00,0.00,-35.68,22.86,-24.45
3096,-0.46,6.37,-8.08,-0.00,0.00,0.00,-35.68,22.86,-24.45
3107,-0.46,6.37,-8.07,0.00,0.00,0.00,-35.68,22.86,-24.45
3118,-0.46,6.37,-8.07,0.00,0.00,0.00,-35.68,22.86,-24.45
3129,-0.44,6.37,-8.08,0.00,0.00,0.00,-35.68,22.86,-24.45
3140,-0.44,6.37,-8.08,0.00,0.00,0.00,-35.68,22.86,-24.45
3151,-0.45,6.35,-8.10,-0.00,0.00,0.00,-35.68,22.86,-24.45
3162,-0.45,6.35,-8.10,-0.00,0.00,0.00,-35.68,22.86,-24.45
3173,-0.46,6.39,-8.07,-0.00,0.00,0.00,-35.68,22.86,-24.45
3184,-0.46,6.37,-8.09,0.00,0.00,0.00,-34.30,22.55,-23.50
3195,-0.46,6.37,-8.09,0.00,0.00,0.00,-34.30,22.55,-23.50
3206,-0.46,6.37,-8.06,0.00,0.00,0.00,-34.30,22.55,-23.50
3217,-0.46,6.37,-8.06,0.00,0.00,0.00,-34.30,22.55,-23.50
3228,-0.45,6.35,-8.10,0.00,0.00,0.00,-34.30,22.55,-23.50
3239,-0.45,6.35,-8.10,0.00,0.00,0.00,-34.30,22.55,-23.50
3250,-0.46,6.36,-8.07,0.00,0.00,0.00,-34.30,22.55,-23.50
3261,-0.46,6.36,-8.07,0.00,0.00,0.00,-34.30,22.55,-23.50
3272,-0.47,6.35,-8.09,0.00,0.00,0.00,-34.30,22.55,-23.50
3283,-0.46,6.35,-8.08,-0.00,0.00,0.00,-34.30,22.55,-23.50
3294,-0.46,6.35,-8.08,-0.00,0.00,0.00,-34.30,22.55,-23.50
3305,-0.45,6.37,-8.10,0.00,0.00,0.00,-34.30,22.55,-23.50
3316,-0.45,6.37,-8.10,0.00,0.00,0.00,-34.30,22.55,-23.50
3327,-0.44,6.37,-8.10,0.00,0.00,0.00,-34.99,22.70,-23.66
3338,-0.44,6.37,-8.10,0.00,0.00,0.00,-34.99,22.70,-23.66
3349,-0.44,6.36,-8.09,0.00,0.00,0.00,-34.99,22.70,-23.66
3360,-0.44,6.36,-8.09,0.00,0.00,0.00,-34.99,22.70,-23.66
3371,-0.45,6.36,-8.07,-0.00,0.00,0.00,-34.99,22.70,-23.66
3382,-0.45,6.36,-8.07,-0.00,0.00,0.00,-34.99,22.70,-23.66
3393,-0.45,6.37,-8.07,-0.00,0.00,0.00,-34.99,22.70,-23.66
3404,-0.45,6.37,-8.10,0.00,0.00,0.00,-34.99,22.70,-23.66
3415,-0.45,6.37,-8.10,0.00,0.00,0.00,-34.99,22.70,-23.66
3426,-0.45,6.37,-8.10,0.00,0.00,0.00,-34.99,22.70,-23.66
3437,-0.45,6.37,-8.10,0.00,0.00,0.00,-34.99,22.70,-23.66
3448,-0.45,6.36,-8.08,-0.00,0.00,0.00,-34.53,22.39,-23.66
3459,-0.45,6.36,-8.08,-0.00,0.00,0.00,-34.53,22.39,-23.66
3470,-0.45,6.37,-8.09,-0.00,0.00,0.00,-34.53,22.39,-23.66
3481,-0.45,6.37,-8.09,-0.00,0.00,0.00,-34.53,22.39,-23.66
3492,-0.46,6.38,-8.08,0.00,0.00,0.00,-34.53,22.39,-23.66
3503,-0.45,6.38,-8.06,0.00,0.00,0.00,-34.53,22.39,-23.66
3514,-0.45,6.38,-8.06,0.00,0.00,0.00,-34.53,22.39,-23.66
3525,-0.44,6.37,-8.10,0.00,0.00,0.00,-34.53,22.39,-23.66
3536,-0.44,6.37,-8.10,0.00,0.00,0.00,-34.53,22.39,-23.66
3547,-0.46,6.35,-8.11,0.00,0.00,0.00,-34.53,22.39,-23.66
3558,-0.46,6.35,-8.11,0.00,0.00,0.00,-34.53,22.39,-23.66
3569,-0.46,6.36,-8.08,0.00,0.00,0.00,-35.91,22.70,-23.66
3580,-0.46,6.36,-8.08,0.00,0.00,0.00,-35.91,22.70,-23.66
3591,-0.45,6.35,-8.08,-0.00,0.00,0.00,-35.91,22.70,-23.66
3602,-0.45,6.35,-8.08,-0.00,0.00,0.00,-35.91,22.70,-23.66
3613,-0.43,6.36,-8.08,-0.00,0.00,0.00,-35.91,22.70,-23.66
3624,-0.44,6.37,-8.08,0.00,0.00,0.00,-35.91,22.70,-23.66
3635,-0.44,6.37,-8.08,0.00,0.00,0.00,-35.91,22.70,-23.66
3646,-0.45,6.36,-8.10,0.00,0.00,0.00,-35.91,22.70,-23.66
3657,-0.45,6.36,-8.10,0.00,0.00,0.00,-35.91,22.70,-23.66
3668,-0.46,6.35,-8.10,0.00,0.00,0.00,-35.91,22.70,-23.66
3679,-0.46,6.35,-8.10,0.00,0.00,0.00,-35.91,22.70,-23.66
3690,-0.46,6.36,-8.12,-0.00,0.00,0.00,-35.91,22.70,-23.66
3701,-0.46,6.36,-8.12,-0.00,0.00,0.00,-35.91,22.70,-23.66
3717,-0.44,6.37,-8.10,0.00,0.00,0.00,-35.22,23.16,-22.87
3723,-0.44,6.37,-8.10,0.00,0.00,0.00,-35.22,23.16,-22.87
3734,-0.44,6.37,-8.11,0.00,0.00,0.00,-35.22,23.16,-22.87
3745,-0.46,6.37,-8.09,-0.00,0.00,0.00,-35.22,23.16,-22.87
3756,-0.46,6.37,-8.09,-0.00,0.00,0.00,-35.22,23.16,-22.87
3767,-0.44,6.36,-8.08,0.00,0.00,0.00,-35.22,23.16,-22.87
3778,-0.44,6.36,-8.08,0.00,0.00,0.00,-35.22,23.16,-22.87
3789,-0.44,6.36,-8.09,0.00,0.00,0.00,-35.22,23.16,-22.87
3800,-0.44,6.36,-8.09,0.00,0.00,0.00,-35.22,23.16,-22.87
3811,-0.45,6.37,-8.07,0.00,0.00,0.00,-35.22,23.16,-22.87
3822,-0.45,6.37,-8.07,0.00,0.00,0.00,-35.22,23.16,-22.87
3833,-0.44,6.37,-8.13,0.00,0.00,0.00,-35.45,21.77,-24.29
3844,-0.45,6.37,-8.09,-0.00,0.00,0.00,-35.45,21.77,-24.29
3855,-0.45,6.37,-8.09,-0.00,0.00,0.00,-35.45,21.77,-24.29
3866,-0.45,6.36,-8.07,0.00,0.00,0.00,-35.45,21.77,-24.29
3877,-0.45,6.36,-8.07,0.00,0.00,0.00,-35.45,21.77,-24.29
3888,-0.45,6.36,-8.07,0.00,0.00,0.00,-35.45,21.77,-24.29
3899,-0.45,6.36,-8.07,0.00,0.00,0.00,-35.45,21.77,-24.29
3910,-0.46,6.38,-8.08,0.00,0.00,0.00,-35.45,21.77,-24.29
3921,-0.46,6.38,-8.08,0.00,0.00,0.00,-35.45,21.77,-24.29
3932,-0.45,6.37,-8.08,0.00,0.00,0.00,-35.45,21.77,-24.29
3943,-0.45,6.37,-8.08,0.00,0.00,0.00,-35.45,21.77,-24.29
3959,-0.46,6.37,-8.10,0.00,0.00,0.00,-34.53,23.94,-23.66
3965,-0.44,6.37,-8.09,0.00,0.00,0.00,-34.53,23.94,-23.66
3976,-0.44,6.37,-8.09,0.00,0.00,0.00,-34.53,23.94,-23.66
3987,-0.45,6.37,-8.08,0.00,0.00,0.00,-34.53,23.94,-23.66
3998,-0.45,6.37,-8.08,0.00,0.00,0.00,-34.53,23.94,-23.66
4009,-0.45,6.37,-8.08,0.00,0.00,0.00,-34.53,23.94,-23.66
4020,-0.45,6.37,-8.08,0.00,0.00,0.00,-34.53,23.94,-23.66
4031,-0.45,6.35,-8.08,0.00,0.00,0.00,-34.53,23.94,-23.66
4042,-0.45,6.35,-8.08,0.00,0.00,0.00,-34.53,23.94,-23.66
4053,-0.45,6.36,-8.09,-0.00,0.00,0.00,-34.53,23.94,-23.66
4064,-0.46,6.36,-8.09,-0.00,0.00,0.00,-35.45,22.39,-23.98
4075,-0.46,6.36,-8.09,-0.00,0.00,0.00,-35.45,22.39,-23.98
4086,-0.45,6.36,-8.09,0.00,0.00,0.00,-35.45,22.39,-23.98
4097,-0.45,6.36,-8.09,0.00,0.00,0.00,-35.45,22.39,-23.98
4108,-0.45,6.37,-8.09,0.00,0.00,0.00,-35.45,22.39,-23.98
4119,-0.45,6.37,-8.09,0.00,0.00,0.00,-35.45,22.39,-23.98
4130,-0.44,6.36,-8.09,0.00,0.00,0.00,-35.45,22.39,-23.98
4141,-0.44,6.36,-8.09,0.00,0.00,0.00,-35.45,22.39,-23.98
4152,-0.45,6.38,-8.09,0.00,0.00,0.00,-35.45,22.39,-23.98
4163,-0.45,6.38,-8.09,0.00,0.00,0.00,-35.45,22.39,-23.98
4174,-0.45,6.37,-8.09,-0.00,0.00,0.00,-35.45,22.39,-23.98
4185,-0.44,6.36,-8.08,-0.00,0.00,0.00,-35.45,22.39,-23.98
4196,-0.44,6.36,-8.08,-0.00,0.00,0.00,-35.45,22.39,-23.98
4207,-0.45,6.38,-8.08,-0.00,0.00,0.00,-34.99,22.39,-24.29
4218,-0.45,6.38,-8.08,-0.00,0.00,0.00,-34.99,22.39,-24.29
4229,-0.44,6.36,-8.09,-0.00,0.00,0.00,-34.99,22.39,-24.29
4240,-0.44,6.36,-8.09,-0.00,0.00,0.00,-34.99,22.39,-24.29
4251,-0.46,6.37,-8.07,-0.00,0.00,0.00,-34.99,22.39,-24.29
4262,-0.46,6.37,-8.07,-0.00,0.00,0.00,-34.99,22.39,-24.29
4273,-0.46,6.36,-8.07,0.00,0.00,0.00,-34.99,22.39,-24.29
4284,-0.46,6.38,-8.09,0.00,0.00,0.00,-34.99,22.39,-24.29
4295,-0.46,6.38,-8.09,0.00,0.00,0.00,-34.99,22.39,-24.29
4306,-0.45,6.37,-8.10,0.00,0.00,0.00,-34.99,22.39,-24.29
4317,-0.45,6.37,-8.10,0.00,0.00,0.00,-34.99,22.39,-24.29
4328,-0.46,6.36,-8.11,0.00,0.00,0.00,-35.91,22.08,-23.66
4339,-0.46,6.36,-8.11,0.00,0.00,0.00,-35.91,22.08,-23.66
4350,-0.46,6.36,-8.11,-0.00,0.00,0.00,-35.91,22.08,-23.66
4361,-0.46,6.36,-8.11,-0.00,0.00,0.00,-35.91,22.08,-23.66
4372,-0.46,6.38,-8.11,-0.00,0.00,0.00,-35.91,22.08,-23.66
4383,-0.46,6.38,-8.11,-0.00,0.00,0.00,-35.91,22.08,-23.66
4394,-0.46,6.37,-8.09,-0.00,0.00,0.00,-35.91,22.08,-23.66
4405,-0.45,6.37,-8.09,0.00,0.00,0.00,-35.91,22.08,-23.66
4417,-0.45,6.37,-8.09,0.00,0.00,0.00,-35.91,22.08,-23.66
4427,-0.46,6.36,-8.09,0.00,0.00,0.00,-35.91,22.08,-23.66
4438,-0.46,6.36,-8.09,0.00,0.00,0.00,-35.91,22.08,-23.66
4449,-0.46,6.36,-8.08,0.00,0.00,0.00,-34.99,22.39,-23.34
4460,-0.46,6.36,-8.08,0.00,0.00,0.00,-34.99,22.39,-23.34
4471,-0.46,6.36,-8.11,0.00,0.00,0.00,-34.99,22.39,-23.34
4482,-0.46,6.36,-8.11,0.00,0.00,0.00,-34.99,22.39,-23.34
4493,-0.45,6.37,-8.09,0.00,0.00,0.00,-34.99,22.39,-23.34
4504,-0.46,6.37,-8.08,0.00,0.00,0.00,-34.99,22.39,-23.34
4515,-0.46,6.37,-8.08,0.00,0.00,0.00,-34.99,22.39,-23.34
4526,-0.46,6.36,-8.08,0.00,0.00,0.00,-34.99,22.39,-23.34
4537,-0.46,6.36,-8.08,0.00,0.00,0.00,-34.99,22.39,-23.34
4548,-0.45,6.38,-8.08,0.00,0.00,0.00,-34.99,22.39,-23.34
4559,-0.45,6.38,-8.08,0.00,0.00,0.00,-34.99,22.39,-23.34
4570,-0.44,6.36,-8.07,-0.00,0.00,0.00,-34.99,22.39,-23.34
4581,-0.44,6.36,-8.07,-0.00,0.00,0.00,-34.99,22.39,-23.34
4592,-0.44,6.36,-8.09,0.00,0.00,0.00,-36.83,22.08,-23.34
4603,-0.44,6.36,-8.09,0.00,0.00,0.00,-36.83,22.08,-23.34
4614,-0.45,6.37,-8.11,0.00,0.00,0.00,-36.83,22.08,-23.34
4625,-0.45,6.38,-8.08,0.00,0.00,0.00,-36.83,22.08,-23.34
4636,-0.45,6.38,-8.08,0.00,0.00,0.00,-36.83,22.08,-23.34
4647,-0.44,6.36,-8.09,0.00,0.00,0.00,-36.83,22.08,-23.34
4658,-0.44,6.36,-8.09,0.00,0.00,0.00,-36.83,22.08,-23.34
4669,-0.44,6.36,-8.10,0.00,0.00,0.00,-36.83,22.08,-23.34
4680,-0.44,6.36,-8.10,0.00,0.00,0.00,-36.83,22.08,-23.34
4691,-0.44,6.36,-8.07,0.00,0.00,0.00,-36.83,22.08,-23.34
4702,-0.44,6.36,-8.07,0.00,0.00,0.00,-36.83,22.08,-23.34
4713,-0.45,6.37,-8.12,0.00,0.00,0.00,-35.22,22.86,-23.19
4724,-0.45,6.37,-8.12,0.00,0.00,0.00,-35.22,22.86,-23.19
4735,-0.45,6.38,-8.10,0.00,0.00,0.00,-35.22,22.86,-23.19
4746,-0.44,6.37,-8.12,0.00,0.00,0.00,-35.22,22.86,-23.19
4757,-0.44,6.37,-8.12,0.00,0.00,0.00,-35.22,22.86,-23.19
4768,-0.45,6.38,-8.09,0.00,0.00,0.00,-35.22,22.86,-23.19
4779,-0.45,6.38,-8.09,0.00,0.00,0.00,-35.22,22.86,-23.19
4790,-0.44,6.38,-8.11,-0.00,0.00,0.00,-35.22,22.86,-23.19
4802,-0.44,6.38,-8.11,-0.00,0.00,0.00,-35.22,22.86,-23.19
4812,-0.45,6.37,-8.08,0.00,0.00,0.00,-35.22,22.86,-23.19
4823,-0.45,6.37,-8.08,0.00,0.00,0.00,-35.22,22.86,-23.19
4834,-0.45,6.37,-8.09,0.00,0.00,0.00,-34.99,22.08,-23.03
4845,-0.45,6.37,-8.10,-0.00,0.00,0.00,-34.99,22.08,-23.03
4856,-0.45,6.37,-8.10,-0.00,0.00,0.00,-34.99,22.08,-23.03
4867,-0.43,6.36,-8.08,-0.00,0.00,0.00,-34.99,22.08,-23.03
4878,-0.43,6.36,-8.08,-0.00,0.00,0.00,-34.99,22.08,-23.03
4889,-0.44,6.37,-8.09,0.00,0.00,0.00,-34.99,22.08,-23.03
4900,-0.44,6.37,-8.09,0.00,0.00,0.00,-34.99,22.08,-23.03
4911,-0.45,6.37,-8.07,-0.00,0.00,0.00,-34.99,22.08,-23.03
4922,-0.45,6.37,-8.07,-0.00,0.00,0.00,-34.99,22.08,-23.03
4933,-0.44,6.37,-8.10,0.00,0.00,0.00,-34.99,22.08,-23.03
4944,-0.44,6.37,-8.10,0.00,0.00,0.00,-34.99,22.08,-23.03
4955,-0.44,6.36,-8.08,0.00,0.00,0.00,-34.99,22.08,-23.03
4966,-0.45,6.37,-8.08,0.00,0.00,0.00,-34.30,22.55,-24.45
4977,-0.45,6.37,-8.08,0.00,0.00,0.00,-34.30,22.55,-24.45
4988,-0.47,6.37,-8.07,-0.00,0.00,0.00,-34.30,22.55,-24.45
4999,-0.47,6.37,-8.07,-0.00,0.00,0.00,-34.30,22.55,-24.45
5010,-0.46,6.38,-8.10,0.00,0.00,0.00,-34.30,22.55,-24.45
5021,-0.46,6.38,-8.10,0.00,0.00,0.00,-34.30,22.55,-24.45
5032,-0.45,6.37,-8.08,0.00,0.00,0.00,-34.30,22.55,-24.45
5043,-0.45,6.37,-8.08,0.00,0.00,0.00,-34.30,22.55,-24.45
5054,-0.45,6.37,-8.10,0.00,0.00,0.00,-34.30,22.55,-24.45
5070,-0.45,6.37,-8.09,-0.00,0.00,0.00,-34.30,22.55,-24.45
5076,-0.45,6.37,-8.09,-0.00,0.00,0.00,-34.30,22.55,-24.45
5087,-0.45,6.36,-8.12,0.00,0.00,0.00,-35.22,22.24,-23.50
5098,-0.45,6.36,-8.12,0.00,0.00,0.00,-35.22,22.24,-23.50
5109,-0.44,6.36,-8.10,0.00,0.00,0.00,-35.22,22.24,-23.50
5120,-0.44,6.36,-8.10,0.00,0.00,0.00,-35.22,22.24,-23.50
5131,-0.46,6.36,-8.09,0.00,0.00,0.00,-35.22,22.24,-23.50
5142,-0.46,6.36,-8.09,0.00,0.00,0.00,-35.22,22.24,-23.50
5153,-0.45,6.36,-8.07,0.00,0.00,0.00,-35.22,22.24,-23.50
5164,-0.45,6.36,-8.07,0.00,0.00,0.00,-35.22,22.24,-23.50
5175,-0.45,6.36,-8.09,-0.00,0.00,0.00,-35.22,22.24,-23.50
5186,-0.46,6.36,-8.09,0.00,0.00,0.00,-35.22,22.24,-23.50
5197,-0.46,6.36,-8.09,0.00,0.00,0.00,-35.22,22.24,-23.50
5208,-0.46,6.35,-8.10,0.00,0.00,0.00,-34.99,22.39,-24.61
5219,-0.46,6.35,-8.10,0.00,0.00,0.00,-34.99,22.39,-24.61
5230,-0.45,6.36,-8.09,0.00,0.00,0.00,-34.99,22.39,-24.61
5241,-0.45,6.36,-8.09,0.00,0.00,0.00,-34.99,22.39,-24.61
5252,-0.44,6.38,-8.10,0.00,0.00,0.00,-34.99,22.39,-24.61
5263,-0.44,6.38,-8.10,0.00,0.00,0.00,-34.99,22.39,-24.61
5274,-0.45,6.37,-8.07,0.00,0.00,0.00,-34.99,22.39,-24.61
5285,-0.46,6.36,-8.08,0.00,0.00,0.00,-34.99,22.39,-24.61
5296,-0.46,6.36,-8.08,0.00,0.00,0.00,-34.99,22.39,-24.61
5307,-0.45,6.37,-8.10,0.00,0.00,0.00,-34.99,22.39,-24.61
5318,-0.45,6.37,-8.10,0.00,0.00,0.00,-34.99,22.39,-24.61
5329,-0.44,6.36,-8.10,0.00,0.00,0.00,-34.99,22.39,-24.61
5340,-0.44,6.36,-8.10,0.00,0.00,0.00,-34.99,22.39,-24.61
5351,-0.43,6.38,-8.09,0.00,0.00,0.00,-34.53,22.39,-24.61
5362,-0.43,6.38,-8.09,0.00,0.00,0.00,-34.53,22.39,-24.61
5373,-0.44,6.37,-8.10,0.00,0.00,0.00,-34.53,22.39,-24.61
5385,-0.44,6.37,-8.10,0.00,0.00,0.00,-34.53,22.39,-24.61
5395,-0.45,6.37,-8.09,0.00,0.00,0.00,-34.53,22.39,-24.61
5406,-0.45,6.37,-8.10,0.00,0.00,0.00,-34.53,22.39,-24.61
5417,-0.45,6.37,-8.10,0.00,0.00,0.00,-34.53,22.39,-24.61
5428,-0.44,6.37,-8.09,0.00,0.00,0.00,-34.53,22.39,-24.61
5439,-0.44,6.37,-8.09,0.00,0.00,0.00,-34.53,22.39,-24.61
5450,-0.44,6.36,-8.10,0.00,0.00,0.00,-34.53,22.39,-24.61
5461,-0.44,6.36,-8.10,0.00,0.00,0.00,-34.53,22.39,-24.61
5472,-0.45,6.38,-8.11,0.00,0.00,0.00,-36.37,23.01,-23.66
5483,-0.45,6.38,-8.11,0.00,0.00,0.00,-36.37,23.01,-23.66
5494,-0.46,6.37,-8.11,-0.00,0.00,0.00,-36.37,23.01,-23.66
5505,-0.45,6.35,-8.10,0.00,0.00,0.00,-36.37,23.01,-23.66
5516,-0.45,6.35,-8.10,0.00,0.00,0.00,-36.37,23.01,-23.66
5527,-0.45,6.36,-8.07,0.00,0.00,0.00,-36.37,23.01,-23.66
5538,-0.45,6.36,-8.07,0.00,0.00,0.00,-36.37,23.01,-23.66
5549,-0.44,6.38,-8.09,0.00,0.00,0.00,-36.37,23.01,-23.66
5560,-0.44,6.38,-8.09,0.00,0.00,0.00,-36.37,23.01,-23.66
5571,-0.45,6.38,-8.09,0.00,0.00,0.00,-36.37,23.01,-23.66
5582,-0.45,6.38,-8.09,0.00,0.00,0.00,-36.37,23.01,-23.66
5593,-0.45,6.37,-8.10,0.00,0.00,0.00,-35.68,22.55,-23.82
5604,-0.45,6.37,-8.10,0.00,0.00,0.00,-35.68,22.55,-23.82
5615,-0.45,6.37,-8.07,0.00,0.00,0.00,-35.68,22.55,-23.82
5626,-0.43,6.36,-8.10,-0.00,0.00,0.00,-35.68,22.55,-23.82
5637,-0.43,6.36,-8.10,-0.00,0.00,0.00,-35.68,22.55,-23.82
5648,-0.45,6.37,-8.09,0.00,0.00,0.00,-35.68,22.55,-23.82
5659,-0.45,6.37,-8.09,0.00,0.00,0.00,-35.68,22.55,-23.82
5670,-0.44,6.36,-8.08,0.00,0.00,0.00,-35.68,22.55,-23.82
5681,-0.44,6.36,-8.08,0.00,0.00,0.00,-35.68,22.55,-23.82
5692,-0.45,6.37,-8.09,0.00,0.00,0.00,-35.68,22.55,-23.82
5703,-0.45,6.37,-8.09,0.00,0.00,0.00,-35.68,22.55,-23.82
5714,-0.45,6.37,-8.10,0.00,0.00,0.00,-34.07,23.01,-23.98
5725,-0.45,6.37,-8.10,0.00,0.00,0.00,-34.07,23.01,-23.98
5736,-0.44,6.36,-8.10,0.00,0.00,0.00,-34.07,23.01,-23.98
5747,-0.45,6.35,-8.06,0.00,0.00,0.00,-34.07,23.01,-23.98
5758,-0.45,6.35,-8.06,0.00,0.00,0.00,-34.07,23.01,-23.98
5770,-0.45,6.36,-8.08,0.00,0.00,0.00,-34.07,23.01,-23.98
5780,-0.45,6.36,-8.08,0.00,0.00,0.00,-34.07,23.01,-23.98
5791,-0.45,6.36,-8.08,0.00,0.00,0.00,-34.07,23.01,-23.98
5802,-0.45,6.36,-8.08,0.00,0.00,0.00,-34.07,23.01,-23.98
5813,-0.45,6.34,-8.07,0.00,0.00,0.00,-34.07,23.01,-23.98
5824,-0.45,6.34,-8.07,0.00,0.00,0.00,-34.07,23.01,-23.98
5835,-0.45,6.35,-8.06,0.00,0.00,0.00,-34.07,23.01,-23.98
5846,-0.44,6.36,-8.09,0.00,0.00,0.00,-35.68,23.47,-23.19
5857,-0.44,6.36,-8.09,0.00,0.00,0.00,-35.68,23.47,-23.19
5868,-0.46,6.36,-8.12,0.00,0.00,0.00,-35.68,23.47,-23.19
5879,-0.46,6.36,-8.12,0.00,0.00,0.00,-35.68,23.47,-23.19
5890,-0.46,6.37,-8.08,0.00,0.00,0.00,-35.68,23.47,-23.19
5901,-0.46,6.37,-8.08,0.00,0.00,0.00,-35.68,23.47,-23.19
5912,-0.45,6.36,-8.08,0.00,0.00,0.00,-35.68,23.47,-23.19
5923,-0.45,6.36,-8.08,0.00,0.00,0.00,-35.68,23.47,-23.19
5934,-0.45,6.36,-8.08,-0.00,0.00,0.00,-35.68,23.47,-23.19
5945,-0.45,6.36,-8.08,-0.00,0.00,0.00,-35.68,23.47,-23.19
5956,-0.44,6.38,-8.07,-0.00,0.00,0.00,-35.68,23.47,-23.19
5967,-0.46,6.38,-8.10,0.00,0.00,0.00,-36.37,22.70,-23.98
5978,-0.46,6.38,-8.10,0.00,0.00,0.00,-36.37,22.70,-23.98
5989,-0.45,6.35,-8.08,0.00,0.00,0.00,-36.37,22.70,-23.98
6000,-0.45,6.35,-8.08,0.00,0.00,0.00,-36.37,22.70,-23.98
6011,-0.45,6.35,-8.09,0.00,0.00,0.00,-36.37,22.70,-23.98
6022,-0.45,6.35,-8.09,0.00,0.00,0.00,-36.37,22.70,-23.98
6033,-0.46,6.36,-8.08,0.00,0.00,0.00,-36.37,22.70,-23.98
6044,-0.46,6.36,-8.08,0.00,0.00,0.00,-36.37,22.70,-23.98
6055,-0.45,6.36,-8.10,0.00,0.00,0.00,-36.37,22.70,-23.98
6066,-0.46,6.37,-8.10,0.00,0.00,0.00,-36.37,22.70,-23.98
6077,-0.46,6.37,-8.10,0.00,0.00,0.00,-36.37,22.70,-23.98
6088,-0.43,6.36,-8.10,0.00,0.00,0.00,-35.45,22.70,-23.98
6099,-0.43,6.36,-8.10,0.00,0.00,0.00,-35.45,22.70,-23.98
6110,-0.44,6.38,-8.11,0.00,0.00,0.00,-35.45,22.70,-23.98
6121,-0.44,6.38,-8.11,0.00,0.00,0.00,-35.45,22.70,-23.98
6132,-0.44,6.36,-8.11,0.00,0.00,0.00,-35.45,22.70,-23.98
6143,-0.44,6.36,-8.11,0.00,0.00,0.00,-35.45,22.70,-23.98
6155,-0.44,6.36,-8.08,0.00,0.00,0.00,-35.45,22.70,-23.98
6165,-0.44,6.36,-8.08,0.00,0.00,0.00,-35.45,22.70,-23.98
6176,-0.44,6.38,-8.06,0.00,0.00,0.00,-35.45,22.70,-23.98
6187,-0.44,6.37,-8.07,0.00,0.00,0.00,-35.45,22.70,-23.98
6198,-0.44,6.37,-8.07,0.00,0.00,0.00,-35.45,22.70,-23.98
6209,-0.45,6.36,-8.08,-0.00,0.00,0.00,-35.45,22.70,-23.98
6220,-0.45,6.36,-8.08,-0.00,0.00,0.00,-35.45,22.70,-23.98
6231,-0.46,6.36,-8.10,-0.00,0.00,0.00,-36.37,22.70,-23.34
6242,-0.46,6.36,-8.10,-0.00,0.00,0.00,-36.37,22.70,-23.34
6253,-0.46,6.37,-8.10,0.00,0.00,0.00,-36.37,22.70,-23.34
6264,-0.46,6.37,-8.10,0.00,0.00,0.00,-36.37,22.70,-23.34
6275,-0.45,6.35,-8.10,0.00,0.00,0.00,-36.37,22.70,-23.34
6286,-0.44,6.36,-8.07,0.00,0.00,0.00,-36.37,22.70,-23.34
6297,-0.44,6.36,-8.07,0.00,0.00,0.00,-36.37,22.70,-23.34
6308,-0.45,6.35,-8.10,0.00,0.00,0.00,-36.37,22.70,-23.34
6319,-0.45,6.35,-8.10,0.00,0.00,0.00,-36.37,22.70,-23.34
6330,-0.45,6.36,-8.07,0.00,0.00,0.00,-36.37,22.70,-23.34
6341,-0.45,6.36,-8.07,0.00,0.00,0.00,-36.37,22.70,-23.34
6352,-0.45,6.37,-8.10,0.00,0.00,0.00,-36.14,23.16,-25.09
6363,-0.45,6.37,-8.10,0.00,0.00,0.00,-36.14,23.16,-25.09
6374,-0.45,6.37,-8.08,0.00,0.00,0.00,-36.14,23.16,-25.09
6385,-0.45,6.37,-8.08,0.00,0.00,0.00,-36.14,23.16,-25.09
6396,-0.45,6.36,-8.08,0.00,0.00,0.00,-36.14,23.16,-25.09
6407,-0.45,6.35,-8.09,0.00,0.00,0.00,-36.14,23.16,-25.09
6418,-0.45,6.35,-8.09,0.00,0.00,0.00,-36.14,23.16,-25.09
6429,-0.44,6.37,-8.09,0.00,0.00,0.00,-36.14,23.16,-25.09
6440,-0.44,6.37,-8.09,0.00,0.00,0.00,-36.14,23.16,-25.09
6451,-0.45,6.38,-8.07,0.00,0.00,0.00,-36.14,23.16,-25.09
6462,-0.45,6.38,-8.07,0.00,0.00,0.00,-36.14,23.16,-25.09
6473,-0.44,6.36,-8.12,0.00,0.00,0.00,-36.14,22.86,-23.82
6484,-0.44,6.36,-8.12,0.00,0.00,0.00,-36.14,22.86,-23.82
6495,-0.44,6.36,-8.10,0.00,0.00,0.00,-36.14,22.86,-23.82
6506,-0.43,6.35,-8.08,-0.00,0.00,0.00,-36.14,22.86,-23.82
6517,-0.43,6.35,-8.08,-0.00,0.00,0.00,-36.14,22.86,-23.82
6528,-0.45,6.36,-8.08,0.00,0.00,0.00,-36.14,22.86,-23.82
6539,-0.45,6.36,-8.08,0.00,0.00,0.00,-36.14,22.86,-23.82
6550,-0.45,6.37,-8.08,0.00,0.00,0.00,-36.14,22.86,-23.82
6561,-0.45,6.37,-8.08,0.00,0.00,0.00,-36.14,22.86,-23.82
6572,-0.45,6.37,-8.10,0.00,0.00,0.00,-36.14,22.86,-23.82
6583,-0.45,6.37,-8.10,0.00,0.00,0.00,-36.14,22.86,-23.82
6594,-0.45,6.37,-8.10,0.00,0.00,0.00,-36.14,22.86,-23.82
6605,-0.45,6.37,-8.10,0.00,0.00,0.00,-36.14,22.86,-23.82
6621,-0.46,6.36,-8.10,0.00,0.00,0.00,-33.61,22.70,-23.34
6627,-0.45,6.37,-8.10,0.00,0.00,0.00,-33.61,22.70,-23.34
6638,-0.45,6.37,-8.10,0.00,0.00,0.00,-33.61,22.70,-23.34
6649,-0.45,6.36,-8.11,0.00,0.00,0.00,-33.61,22.70,-23.34
6660,-0.45,6.36,-8.11,0.00,0.00,0.00,-33.61,22.70,-23.34
6671,-0.44,6.36,-8.08,0.00,0.00,0.00,-33.61,22.70,-23.34
6682,-0.44,6.36,-8.08,0.00,0.00,0.00,-33.61,22.70,-23.34
6693,-0.44,6.36,-8.08,0.00,0.00,0.00,-33.61,22.70,-23.34
6704,-0.44,6.36,-8.08,0.00,0.00,0.00,-33.61,22.70,-23.34
6715,-0.45,6.37,-8.07,0.00,0.00,0.00,-33.61,22.70,-23.34
6726,-0.45,6.37,-8.07,0.00,0.00,0.00,-33.61,22.70,-23.34
6737,-0.45,6.38,-8.09,0.00,0.00,0.00,-33.61,23.01,-23.98
6748,-0.46,6.36,-8.08,0.00,0.00,0.00,-33.61,23.01,-23.98
6759,-0.46,6.36,-8.08,0.00,0.00,0.00,-33.61,23.01,-23.98
6770,-0.44,6.36,-8.11,0.00,0.00,0.00,-33.61,23.01,-23.98
6781,-0.44,6.36,-8.11,0.00,0.00,0.00,-33.61,23.01,-23.98
6792,-0.44,6.37,-8.08,0.00,0.00,0.00,-33.61,23.01,-23.98
6803,-0.44,6.37,-8.08,0.00,0.00,0.00,-33.61,23.01,-23.98
6814,-0.44,6.37,-8.08,-0.00,0.00,0.00,-33.61,23.01,-23.98
6825,-0.44,6.37,-8.08,-0.00,0.00,0.00,-33.61,23.01,-23.98
6836,-0.46,6.37,-8.07,0.00,0.00,0.00,-33.61,23.01,-23.98
6847,-0.45,6.36,-8.09,0.00,0.00,0.00,-35.91,22.39,-23.98
6858,-0.45,6.36,-8.09,0.00,0.00,0.00,-35.91,22.39,-23.98
6869,-0.43,6.35,-8.08,0.00,0.00,0.00,-35.91,22.39,-23.98
6880,-0.43,6.35,-8.08,0.00,0.00,0.00,-35.91,22.39,-23.98
6891,-0.45,6.37,-8.10,0.00,0.00,0.00,-35.91,22.39,-23.98
6902,-0.45,6.37,-8.10,0.00,0.00,0.00,-35.91,22.39,-23.98
6913,-0.45,6.37,-8.10,0.00,0.00,0.00,-35.91,22.39,-23.98
6924,-0.45,6.37,-8.10,0.00,0.00,0.00,-35.91,22.39,-23.98
6935,-0.45,6.37,-8.10,0.00,0.00,0.00,-35.91,22.39,-23.98
6946,-0.45,6.37,-8.10,0.00,0.00,0.00,-35.91,22.39,-23.98
6958,-0.44,6.37,-8.10,0.00,0.00,0.00,-35.91,22.39,-23.98
6968,-0.44,6.36,-8.10,-0.00,0.00,0.00,-34.76,21.93,-24.45
6979,-0.44,6.36,-8.10,-0.00,0.00,0.00,-34.76,21.93,-24.45
6990,-0.44,6.37,-8.10,-0.00,0.00,0.00,-34.76,21.93,-24.45
7001,-0.44,6.37,-8.10,-0.00,0.00,0.00,-34.76,21.93,-24.45
7012,-0.45,6.36,-8.08,-0.00,0.00,0.00,-34.76,21.93,-24.45
7023,-0.45,6.36,-8.08,-0.00,0.00,0.00,-34.76,21.93,-24.45
7034,-0.46,6.36,-8.09,0.00,0.00,0.00,-34.76,21.93,-24.45
7045,-0.46,6.36,-8.09,0.00,0.00,0.00,-34.76,21.93,-24.45
7056,-0.43,6.36,-8.09,0.00,0.00,0.00,-34.76,21.93,-24.45
7067,-0.45,6.37,-8.09,0.00,0.00,0.00,-34.76,21.93,-24.45
7078,-0.45,6.37,-8.09,0.00,0.00,0.00,-34.76,21.93,-24.45
7089,-0.45,6.36,-8.08,0.00,0.00,0.00,-34.76,21.93,-24.45
7105,-0.45,6.36,-8.08,0.00,0.00,0.00,-34.76,21.93,-24.45
7111,-0.46,6.36,-8.12,-0.00,0.00,0.00,-34.30,23.16,-24.45
7122,-0.46,6.36,-8.12,-0.00,0.00,0.00,-34.30,23.16,-24.45
7133,-0.45,6.34,-8.08,0.00,0.00,0.00,-34.30,23.16,-24.45
7144,-0.45,6.34,-8.08,0.00,0.00,0.00,-34.30,23.16,-24.45
7155,-0.44,6.37,-8.06,0.00,0.00,0.00,-34.30,23.16,-24.45
7166,-0.44,6.37,-8.06,0.00,0.00,0.00,-34.30,23.16,-24.45
7177,-0.46,6.37,-8.06,0.00,0.00,0.00,-34.30,23.16,-24.45
7188,-0.41,6.36,-8.13,-0.00,-0.00,-0.00,-34.30,23.16,-24.45
7199,-0.41,6.36,-8.13,-0.00,-0.00,-0.00,-34.30,23.16,-24.45
7210,-0.34,6.05,-8.42,-0.30,-0.14,-0.10,-34.30,23.16,-24.45
7221,-0.34,6.05,-8.42,-0.30,-0.14,-0.10,-34.30,23.16,-24.45
7232,-0.97,6.44,-8.02,-1.09,-0.43,-0.24,-37.30,23.94,-22.71
7243,-0.97,6.44,-8.02,-1.09,-0.43,-0.24,-37.30,23.94,-22.71
7254,-0.82,7.35,-7.11,-1.01,-0.59,0.02,-37.30,23.94,-22.71
7265,-0.82,7.35,-7.11,-1.01,-0.59,0.02,-37.30,23.94,-22.71
7276,-0.58,6.71,-7.82,-0.04,-0.10,0.07,-37.30,23.94,-22.71
7287,-0.48,6.41,-8.04,0.09,0.00,0.03,-37.30,23.94,-22.71
7298,-0.48,6.41,-8.04,0.09,0.00,0.03,-37.30,23.94,-22.71
7309,0.45,6.92,-7.74,0.49,-0.10,0.42,-37.30,23.94,-22.71
7320,0.45,6.92,-7.74,0.49,-0.10,0.42,-37.30,23.94,-22.71
7331,-1.56,7.44,-7.16,0.37,-0.26,0.54,-37.30,23.94,-22.71
7342,-1.56,7.44,-7.16,0.37,-0.26,0.54,-37.30,23.94,-22.71
7353,-2.25,7.40,-6.90,0.98,0.58,-0.01,-34.30,23.47,-23.19
7364,-2.25,7.40,-6.90,0.98,0.58,-0.01,-34.30,23.47,-23.19
7375,-0.55,9.90,-10.28,1.45,1.00,-0.29,-34.30,23.47,-23.19
7386,-0.55,9.90,-10.28,1.45,1.00,-0.29,-34.30,23.47,-23.19
7397,-0.67,8.62,-9.20,4.24,0.80,-0.74,-34.30,23.47,-23.19
7408,-3.03,6.19,-10.21,6.67,0.92,-0.85,-34.30,23.47,-23.19
7419,-3.03,6.19,-10.21,6.67,0.92,-0.85,-34.30,23.47,-23.19
7430,-2.15,2.59,-10.32,9.28,1.30,-0.48,-34.30,23.47,-23.19
7441,-2.15,2.59,-10.32,9.28,1.30,-0.48,-34.30,23.47,-23.19
7452,3.48,-6.10,-9.51,10.16,1.71,0.50,-34.30,23.47,-23.19
7463,3.48,-6.10,-9.51,10.16,1.71,0.50,-34.30,23.47,-23.19
7474,2.47,-6.66,-13.60,5.50,1.32,2.10,-34.30,23.47,-23.19
7485,2.47,-6.66,-13.60,5.50,1.32,2.10,-34.30,23.47,-23.19
7496,2.60,-1.22,-15.75,3.33,0.44,3.36,-26.69,-0.82,-33.48
7507,1.19,-0.25,-13.92,4.10,0.04,3.54,-26.69,-0.82,-33.48
7518,1.19,-0.25,-13.92,4.10,0.04,3.54,-26.69,-0.82,-33.48
7529,0.87,1.14,-15.41,3.88,-0.42,2.40,-26.69,-0.82,-33.48
7540,0.87,1.14,-15.41,3.88,-0.42,2.40,-26.69,-0.82,-33.48
7551,0.94,1.68,-18.58,3.67,-2.09,0.19,-26.69,-0.82,-33.48
7562,0.94,1.68,-18.58,3.67,-2.09,0.19,-26.69,-0.82,-33.48
7573,0.40,-4.25,-14.48,5.18,-4.20,-1.19,-26.69,-0.82,-33.48
7584,0.40,-4.25,-14.48,5.18,-4.20,-1.19,-26.69,-0.82,-33.48
7595,1.51,-6.30,-11.60,5.02,-5.30,-0.97,-26.69,-0.82,-33.48
7606,1.51,-6.30,-11.60,5.02,-5.30,-0.97,-26.69,-0.82,-33.48
7617,-0.29,-5.02,-9.09,4.13,-5.47,-0.47,-43.52,-20.78,-23.82
7628,-1.87,-4.90,-8.70,3.38,-5.36,-0.46,-43.52,-20.78,-23.82
7639,-1.87,-4.90,-8.70,3.38,-5.36,-0.46,-43.52,-20.78,-23.82
7650,-1.95,-4.42,-8.43,3.15,-5.47,-0.66,-43.52,-20.78,-23.82
7661,-1.95,-4.42,-8.43,3.15,-5.47,-0.66,-43.52,-20.78,-23.82
7672,-1.39,-2.73,-7.40,3.84,-5.72,-0.60,-43.52,-20.78,-23.82
7683,-1.39,-2.73,-7.40,3.84,-5.72,-0.60,-43.52,-20.78,-23.82
7694,-3.12,-2.28,-4.57,3.43,-5.88,-1.01,-43.52,-20.78,-23.82
7705,-3.12,-2.28,-4.57,3.43,-5.88,-1.01,-43.52,-20.78,-23.82
7716,-3.86,-0.78,-2.96,-0.42,-5.97,-3.04,-43.52,-20.78,-23.82
7727,-3.86,-0.78,-2.96,-0.42,-5.97,-3.04,-43.52,-20.78,-23.82
7738,-2.49,-2.31,-1.42,-3.91,-5.38,-5.89,-47.68,-30.07,-0.70
7749,1.72,-15.52,3.23,-2.99,-3.33,-6.40,-47.68,-30.07,-0.70
7760,1.72,-15.52,3.23,-2.99,-3.33,-6.40,-47.68,-30.07,-0.70
7771,2.40,-8.26,-3.82,0.00,-0.37,-3.06,-47.68,-30.07,-0.70
7782,2.40,-8.26,-3.82,0.00,-0.37,-3.06,-47.68,-30.07,-0.70
7793,2.85,-7.84,-5.50,2.01,-0.15,-1.78,-47.68,-30.07,-0.70
7809,2.85,-7.84,-5.50,2.01,-0.15,-1.78,-47.68,-30.07,-0.70
7815,0.63,-8.38,-3.06,3.57,-1.78,-1.13,-47.68,-30.07,-0.70
7826,0.63,-8.38,-3.06,3.57,-1.78,-1.13,-47.68,-30.07,-0.70
7837,-1.48,-8.36,-2.71,4.14,-2.61,-0.87,-47.68,-30.07,-0.70
7848,-3.45,-5.27,-2.46,4.26,-3.19,-0.86,-47.68,-30.07,-0.70
7859,-3.45,-5.27,-2.46,4.26,-3.19,-0.86,-47.68,-30.07,-0.70
7870,-3.11,-5.72,-1.99,4.86,-3.83,-1.61,-32.68,-36.10,14.34
7881,-3.11,-5.72,-1.99,4.86,-3.83,-1.61,-32.68,-36.10,14.34
7892,0.67,-7.82,3.25,6.27,-4.23,-1.70,-32.68,-36.10,14.34
7903,0.67,-7.82,3.25,6.27,-4.23,-1.70,-32.68,-36.10,14.34
7914,1.59,-9.35,7.47,6.14,-3.61,-1.29,-32.68,-36.10,14.34
7925,1.59,-9.35,7.47,6.14,-3.61,-1.29,-32.68,-36.10,14.34
7936,0.10,-9.05,6.51,4.10,-2.47,-0.69,-32.68,-36.10,14.34
7947,0.10,-9.05,6.51,4.10,-2.47,-0.69,-32.68,-36.10,14.34
7958,0.39,-8.10,5.58,2.27,-1.70,-0.13,-32.68,-36.10,14.34
7969,0.44,-7.76,4.27,1.63,-1.52,0.34,-32.68,-36.10,14.34
7980,0.44,-7.76,4.27,1.63,-1.52,0.34,-32.68,-36.10,14.34
7991,0.40,-7.74,4.57,1.83,-1.58,0.68,-18.15,-28.52,34.45
8002,0.40,-7.74,4.57,1.83,-1.58,0.68,-18.15,-28.52,34.45
8013,0.31,-8.59,5.50,1.77,-1.65,1.07,-18.15,-28.52,34.45
8024,0.31,-8.59,5.50,1.77,-1.65,1.07,-18.15,-28.52,34.45
8035,0.54,-10.00,5.06,0.73,-1.50,1.67,-18.15,-28.52,34.45
8046,0.54,-10.00,5.06,0.73,-1.50,1.67,-18.15,-28.52,34.45
8057,-1.32,-7.71,3.48,-0.21,-1.65,2.45,-18.15,-28.52,34.45
8069,-2.55,-5.29,4.53,-0.00,-2.15,2.39,-18.15,-28.52,34.45
8079,-2.55,-5.29,4.53,-0.00,-2.15,2.39,-18.15,-28.52,34.45
8090,-2.97,-5.93,6.11,0.64,-2.02,1.62,-18.15,-28.52,34.45
8101,-2.97,-5.93,6.11,0.64,-2.02,1.62,-18.15,-28.52,34.45
8112,-1.56,-8.05,5.32,0.64,-1.53,0.98,-14.92,-25.12,37.30
8123,-1.56,-8.05,5.32,0.64,-1.53,0.98,-14.92,-25.12,37.30
8134,-1.94,-7.67,5.13,0.73,-0.88,0.88,-14.92,-25.12,37.30
8145,-1.94,-7.67,5.13,0.73,-0.88,0.88,-14.92,-25.12,37.30
8156,-2.32,-9.71,5.84,0.65,-0.20,0.65,-14.92,-25.12,37.30
8167,-2.32,-9.71,5.84,0.65,-0.20,0.65,-14.92,-25.12,37.30
8178,-0.52,-9.76,4.41,-0.62,-0.22,0.52,-14.92,-25.12,37.30
8189,0.40,-10.15,5.05,-0.79,-0.48,0.99,-14.92,-25.12,37.30
8200,0.40,-10.15,5.05,-0.79,-0.48,0.99,-14.92,-25.12,37.30
8211,-1.65,-9.47,4.05,-0.86,-0.55,1.67,-14.92,-25.12,37.30
8222,-1.65,-9.47,4.05,-0.86,-0.55,1.67,-14.92,-25.12,37.30
8233,-0.12,-10.01,1.98,-0.43,-0.52,1.81,-14.92,-25.12,37.30
8244,-0.12,-10.01,1.98,-0.43,-0.52,1.81,-14.92,-25.12,37.30
8255,-1.23,-9.70,3.04,0.93,-0.83,2.62,-16.54,-23.41,37.46
8266,-1.23,-9.70,3.04,0.93,-0.83,2.62,-16.54,-23.41,37.46
8277,-3.35,-7.42,4.09,1.62,-1.02,3.16,-16.54,-23.41,37.46
8288,-3.90,-5.76,5.01,1.87,-1.28,3.01,-16.54,-23.41,37.46
8299,-3.90,-5.76,5.01,1.87,-1.28,3.01,-16.54,-23.41,37.46
8310,-4.70,-5.17,6.78,2.19,-1.41,2.49,-16.54,-23.41,37.46
8321,-4.70,-5.17,6.78,2.19,-1.41,2.49,-16.54,-23.41,37.46
8332,-4.39,-7.19,7.34,1.84,-1.27,1.87,-16.54,-23.41,37.46
8343,-4.39,-7.19,7.34,1.84,-1.27,1.87,-16.54,-23.41,37.46
8354,-3.64,-7.76,8.26,0.47,-0.82,1.74,-16.54,-23.41,37.46
8365,-3.64,-7.76,8.26,0.47,-0.82,1.74,-16.54,-23.41,37.46
8376,-2.49,-6.45,5.19,-0.57,-0.97,1.76,-19.30,-18.15,41.57
8387,-2.49,-6.45,5.19,-0.57,-0.97,1.76,-19.30,-18.15,41.57
8398,-5.10,-5.53,6.17,0.29,-1.10,1.43,-19.30,-18.15,41.57
8409,-4.53,-5.99,7.88,-0.35,-1.15,0.88,-19.30,-18.15,41.57
8420,-4.53,-5.99,7.88,-0.35,-1.15,0.88,-19.30,-18.15,41.57
8431,-5.02,-8.05,5.89,-1.23,-1.13,0.42,-19.30,-18.15,41.57
8442,-5.02,-8.05,5.89,-1.23,-1.13,0.42,-19.30,-18.15,41.57
8453,-2.53,-7.53,3.72,-1.05,-1.40,0.63,-19.30,-18.15,41.57
8464,-2.53,-7.53,3.72,-1.05,-1.40,0.63,-19.30,-18.15,41.57
8475,-0.40,-5.31,5.10,-0.01,-1.94,1.10,-19.30,-18.15,41.57
8486,-0.40,-5.31,5.10,-0.01,-1.94,1.10,-19.30,-18.15,41.57
8497,-3.35,-4.34,8.79,-1.10,-2.13,0.49,-11.23,-18.31,40.78
8508,-3.36,-6.36,7.83,-2.33,-1.63,-0.48,-11.23,-18.31,40.78
8519,-3.36,-6.36,7.83,-2.33,-1.63,-0.48,-11.23,-18.31,40.78
8530,-2.65,-7.88,8.79,-1.31,-0.80,-0.52,-11.23,-18.31,40.78
8541,-2.65,-7.88,8.79,-1.31,-0.80,-0.52,-11.23,-18.31,40.78
8552,-1.69,-6.00,6.32,-1.92,-0.06,-0.09,-11.23,-18.31,40.78
8563,-1.69,-6.00,6.32,-1.92,-0.06,-0.09,-11.23,-18.31,40.78
8574,-2.82,-6.23,5.91,-0.45,-0.05,0.40,-11.23,-18.31,40.78
8585,-2.82,-6.23,5.91,-0.45,-0.05,0.40,-11.23,-18.31,40.78
8596,-1.94,-7.07,8.99,-0.06,0.10,0.69,-11.23,-18.31,40.78
8613,-1.94,-7.07,8.99,-0.06,0.10,0.69,-11.23,-18.31,40.78
8618,0.08,-6.27,8.54,-2.18,0.95,0.65,-9.62,-26.82,36.51
8629,-1.58,-7.13,5.61,-3.19,1.65,0.46,-9.62,-26.82,36.51
8640,-1.58,-7.13,5.61,-3.19,1.65,0.46,-9.62,-26.82,36.51
8651,-3.38,-8.26,6.34,-3.11,1.76,0.78,-9.62,-26.82,36.51
8662,-3.38,-8.26,6.34,-3.11,1.76,0.78,-9.62,-26.82,36.51
8673,-1.88,-9.50,5.55,-3.76,2.01,1.56,-9.62,-26.82,36.51
8684,-1.88,-9.50,5.55,-3.76,2.01,1.56,-9.62,-26.82,36.51
8695,-1.78,-8.38,2.77,-4.22,1.94,2.47,-9.62,-26.82,36.51
8706,-1.78,-8.38,2.77,-4.22,1.94,2.47,-9.62,-26.82,36.51
8717,-2.56,-8.65,2.78,-4.14,1.15,3.20,-9.62,-26.82,36.51
8728,-1.79,-8.51,3.37,-4.47,0.52,4.06,-9.62,-26.82,36.51
8739,-1.79,-8.51,3.37,-4.47,0.52,4.06,-9.62,-26.82,36.51
8750,-2.45,-5.56,2.72,-3.98,0.23,4.31,-32.22,-35.17,20.36
8761,-2.45,-5.56,2.72,-3.98,0.23,4.31,-32.22,-35.17,20.36
8772,-3.73,-4.37,3.69,-2.20,0.28,3.70,-32.22,-35.17,20.36
8783,-3.73,-4.37,3.69,-2.20,0.28,3.70,-32.22,-35.17,20.36
8794,-4.77,-4.89,3.47,-0.77,0.48,2.98,-32.22,-35.17,20.36
8805,-4.77,-4.89,3.47,-0.77,0.48,2.98,-32.22,-35.17,20.36
8816,-5.35,-5.73,3.39,-0.06,0.69,2.45,-32.22,-35.17,20.36
8827,-5.35,-5.73,3.39,-0.06,0.69,2.45,-32.22,-35.17,20.36
8838,-5.41,-4.29,2.46,-0.97,0.44,1.69,-32.22,-35.17,20.36
8850,-5.96,-3.32,2.56,-0.48,0.53,1.06,-32.22,-35.17,20.36
8860,-5.96,-3.32,2.56,-0.48,0.53,1.06,-32.22,-35.17,20.36
8871,-4.72,-1.28,1.59,0.37,0.76,0.30,-45.60,-31.15,14.97
8882,-4.72,-1.28,1.59,0.37,0.76,0.30,-45.60,-31.15,14.97
8893,-6.05,-2.04,0.24,1.10,0.53,-0.75,-45.60,-31.15,14.97
8904,-6.05,-2.04,0.24,1.10,0.53,-0.75,-45.60,-31.15,14.97
8915,-7.03,-4.06,2.38,2.03,0.44,-1.41,-45.60,-31.15,14.97
8926,-7.03,-4.06,2.38,2.03,0.44,-1.41,-45.60,-31.15,14.97
8937,-5.28,-4.24,1.11,1.86,0.78,-1.71,-45.60,-31.15,14.97
8948,-5.28,-4.24,1.11,1.86,0.78,-1.71,-45.60,-31.15,14.97
8959,-4.67,-4.89,0.35,2.47,1.29,-1.89,-45.60,-31.15,14.97
8970,-3.48,-6.52,-1.55,2.64,1.20,-2.21,-45.60,-31.15,14.97
8981,-3.48,-6.52,-1.55,2.64,1.20,-2.21,-45.60,-31.15,14.97
8992,-4.44,-8.84,-2.37,1.53,0.54,-1.93,-38.68,-33.32,20.36
9003,-4.44,-8.84,-2.37,1.53,0.54,-1.93,-38.68,-33.32,20.36
9014,-5.60,-8.11,-1.09,-0.29,-0.26,-1.22,-38.68,-33.32,20.36
9025,-5.60,-8.11,-1.09,-0.29,-0.26,-1.22,-38.68,-33.32,20.36
9036,-6.12,-7.65,-0.40,-1.30,-0.50,-0.80,-38.68,-33.32,20.36
9047,-6.12,-7.65,-0.40,-1.30,-0.50,-0.80,-38.68,-33.32,20.36
9058,-7.18,-7.06,-0.54,-2.15,-0.28,-0.65,-38.68,-33.32,20.36
9069,-7.36,-8.48,0.35,-2.20,0.16,-0.47,-38.68,-33.32,20.36
9080,-7.36,-8.48,0.35,-2.20,0.16,-0.47,-38.68,-33.32,20.36
9091,-7.10,-7.74,0.17,-2.87,0.43,-0.27,-38.68,-33.32,20.36
9102,-7.10,-7.74,0.17,-2.87,0.43,-0.27,-38.68,-33.32,20.36
9113,-7.17,-7.09,-0.62,-3.37,0.74,-0.31,-38.68,-33.32,20.36
9124,-7.17,-7.09,-0.62,-3.37,0.74,-0.31,-38.68,-33.32,20.36
9135,-8.03,-5.26,-3.24,-3.33,1.20,-0.47,-35.68,-35.95,9.75
9146,-8.03,-5.26,-3.24,-3.33,1.20,-0.47,-35.68,-35.95,9.75
9157,-6.78,-5.95,-4.86,-2.33,1.55,-0.85,-35.68,-35.95,9.75
9168,-6.78,-5.95,-4.86,-2.33,1.55,-0.85,-35.68,-35.95,9.75
9179,-4.16,-7.50,-7.26,-1.35,1.25,-1.20,-35.68,-35.95,9.75
9190,-4.66,-7.13,-6.88,0.02,0.36,-1.17,-35.68,-35.95,9.75
9201,-4.66,-7.13,-6.88,0.02,0.36,-1.17,-35.68,-35.95,9.75
9212,-5.24,-8.32,-5.97,1.11,-0.34,-1.41,-35.68,-35.95,9.75
9223,-5.24,-8.32,-5.97,1.11,-0.34,-1.41,-35.68,-35.95,9.75
9234,-4.47,-10.44,-3.87,1.40,-0.61,-1.44,-35.68,-35.95,9.75
9245,-4.47,-10.44,-3.87,1.40,-0.61,-1.44,-35.68,-35.95,9.75
9256,-4.31,-9.56,-4.46,1.11,-0.57,-1.12,-27.84,-38.73,9.11
9267,-4.31,-9.56,-4.46,1.11,-0.57,-1.12,-27.84,-38.73,9.11
9278,-5.11,-9.03,-4.27,1.56,-0.65,-0.93,-27.84,-38.73,9.11
9289,-3.93,-9.28,-4.02,2.93,-0.72,-0.86,-27.84,-38.73,9.11
9300,-3.93,-9.28,-4.02,2.93,-0.72,-0.86,-27.84,-38.73,9.11
9311,-4.54,-9.64,-1.60,4.65,-0.67,-0.78,-27.84,-38.73,9.11
9322,-4.54,-9.64,-1.60,4.65,-0.67,-0.78,-27.84,-38.73,9.11
9333,-2.07,-14.88,2.23,4.18,-0.46,-0.57,-27.84,-38.73,9.11
9344,-2.07,-14.88,2.23,4.18,-0.46,-0.57,-27.84,-38.73,9.11
9355,-4.71,-10.18,3.11,1.80,-0.06,0.68,-27.84,-38.73,9.11
9367,-4.71,-10.18,3.11,1.80,-0.06,0.68,-27.84,-38.73,9.11
9377,-5.49,-7.64,1.49,-0.52,0.52,0.71,-26.69,-36.72,20.67
9388,-5.49,-7.64,1.49,-0.52,0.52,0.71,-26.69,-36.72,20.67
9399,-4.01,-8.81,-0.21,-0.09,1.03,0.42,-26.69,-36.72,20.67
9410,-4.02,-8.32,0.55,0.10,1.20,0.38,-26.69,-36.72,20.67
9421,-4.02,-8.32,0.55,0.10,1.20,0.38,-26.69,-36.72,20.67
9432,-4.73,-9.04,-0.40,-0.52,0.85,0.37,-26.69,-36.72,20.67
9443,-4.73,-9.04,-0.40,-0.52,0.85,0.37,-26.69,-36.72,20.67
9454,-5.92,-9.68,-0.44,-1.01,0.69,0.38,-26.69,-36.72,20.67
9465,-5.92,-9.68,-0.44,-1.01,0.69,0.38,-26.69,-36.72,20.67
9476,-5.89,-9.29,-1.49,-0.93,0.50,0.52,-26.69,-36.72,20.67
9487,-5.89,-9.29,-1.49,-0.93,0.50,0.52,-26.69,-36.72,20.67
9498,-5.75,-9.11,-0.45,-0.64,0.28,0.67,-26.69,-36.72,20.67
9509,-5.69,-9.42,-0.15,-1.46,0.26,0.59,-30.15,-35.95,14.50
9520,-5.69,-9.42,-0.15,-1.46,0.26,0.59,-30.15,-35.95,14.50
9531,-6.07,-10.12,1.19,-2.14,0.45,0.77,-30.15,-35.95,14.50
9542,-6.07,-10.12,1.19,-2.14,0.45,0.77,-30.15,-35.95,14.50
9553,-6.28,-9.51,0.10,-3.53,0.89,1.04,-30.15,-35.95,14.50
9564,-6.28,-9.51,0.10,-3.53,0.89,1.04,-30.15,-35.95,14.50
9575,-5.95,-7.95,-1.76,-4.66,1.18,1.32,-30.15,-35.95,14.50
9586,-5.95,-7.95,-1.76,-4.66,1.18,1.32,-30.15,-35.95,14.50
9597,-5.96,-7.22,-2.14,-5.39,1.26,1.40,-30.15,-35.95,14.50
9608,-5.96,-7.22,-2.14,-5.39,1.26,1.40,-30.15,-35.95,14.50
9619,-5.69,-6.29,-4.65,-6.84,1.41,1.29,-30.15,-35.95,14.50
9630,-5.33,-6.00,-5.89,-6.60,1.44,1.54,-38.22,-34.25,-5.61
9641,-5.33,-6.00,-5.89,-6.60,1.44,1.54,-38.22,-34.25,-5.61
9652,-6.05,-3.37,-8.42,-6.48,1.22,1.87,-38.22,-34.25,-5.61
9663,-6.05,-3.37,-8.42,-6.48,1.22,1.87,-38.22,-34.25,-5.61
9674,-6.79,-0.93,-9.68,-5.36,0.68,1.88,-38.22,-34.25,-5.61
9685,-6.79,-0.93,-9.68,-5.36,0.68,1.88,-38.22,-34.25,-5.61
9696,-6.94,0.04,-8.61,-3.99,0.08,1.39,-38.22,-34.25,-5.61
9707,-6.94,0.04,-8.61,-3.99,0.08,1.39,-38.22,-34.25,-5.61
9718,-6.76,-0.71,-7.93,-3.30,-0.06,0.85,-38.22,-34.25,-5.61
9729,-7.65,-0.61,-8.79,-2.85,-0.09,0.60,-38.22,-34.25,-5.61
9740,-7.65,-0.61,-8.79,-2.85,-0.09,0.60,-38.22,-34.25,-5.61
9751,-7.21,-0.19,-7.58,-1.71,-0.28,0.46,-43.52,-22.02,-20.02
9762,-7.21,-0.19,-7.58,-1.71,-0.28,0.46,-43.52,-22.02,-20.02
9773,-6.98,-0.27,-7.04,-1.64,-0.25,0.25,-43.52,-22.02,-20.02
9784,-6.98,-0.27,-7.04,-1.64,-0.25,0.25,-43.52,-22.02,-20.02
9795,-6.56,-0.13,-8.42,-1.64,-0.10,0.01,-43.52,-22.02,-20.02
9806,-6.56,-0.13,-8.42,-1.64,-0.10,0.01,-43.52,-22.02,-20.02
9817,-6.40,-0.19,-7.79,-1.18,-0.18,-0.16,-43.52,-22.02,-20.02
9828,-6.40,-0.19,-7.79,-1.18,-0.18,-0.16,-43.52,-22.02,-20.02
9839,-6.19,-0.26,-7.38,-1.02,-0.20,-0.32,-43.52,-22.02,-20.02
9850,-6.03,-1.06,-7.56,-0.67,0.08,-0.37,-43.52,-22.02,-20.02
9861,-6.03,-1.06,-7.56,-0.67,0.08,-0.37,-43.52,-22.02,-20.02
9872,-5.95,-1.94,-8.34,-0.35,0.24,-0.28,-43.52,-22.02,-20.02
9883,-5.95,-1.94,-8.34,-0.35,0.24,-0.28,-43.52,-22.02,-20.02
9894,-6.11,-2.42,-8.42,-0.30,0.20,0.01,-45.37,-19.24,-23.50
9905,-6.11,-2.42,-8.42,-0.30,0.20,0.01,-45.37,-19.24,-23.50
9916,-6.01,-1.72,-8.62,-0.75,0.07,0.32,-45.37,-19.24,-23.50
9927,-6.01,-1.72,-8.62,-0.75,0.07,0.32,-45.37,-19.24,-23.50
9938,-6.21,-0.78,-7.98,-1.03,-0.05,0.53,-45.37,-19.24,-23.50
9949,-6.21,-0.78,-7.98,-1.03,-0.05,0.53,-45.37,-19.24,-23.50
9960,-6.15,-0.06,-8.61,-1.24,-0.01,0.60,-45.37,-19.24,-23.50
9972,-6.12,0.65,-8.69,-1.02,-0.04,0.52,-45.37,-19.24,-23.50
9982,-6.12,0.65,-8.69,-1.02,-0.04,0.52,-45.37,-19.24,-23.50
9993,-6.14,0.88,-8.34,-0.70,-0.10,0.36,-45.37,-19.24,-23.50
10004,-6.14,0.88,-8.34,-0.70,-0.10,0.36,-45.37,-19.24,-23.50
10015,-6.14,0.75,-8.35,-0.31,-0.09,0.21,-44.22,-15.06,-24.61
10026,-6.14,0.75,-8.35,-0.31,-0.09,0.21,-44.22,-15.06,-24.61
10037,-6.10,0.21,-8.06,-0.15,-0.05,0.13,-44.22,-15.06,-24.61
10048,-6.10,0.21,-8.06,-0.15,-0.05,0.13,-44.22,-15.06,-24.61
10059,-6.23,0.15,-8.53,-0.29,-0.08,0.14,-44.22,-15.06,-24.61
10070,-6.35,0.17,-7.83,-0.40,-0.18,0.16,-44.22,-15.06,-24.61
10081,-6.35,0.17,-7.83,-0.40,-0.18,0.16,-44.22,-15.06,-24.61
10092,-6.40,0.48,-8.03,-0.64,-0.14,0.21,-44.22,-15.06,-24.61
10103,-6.40,0.48,-8.03,-0.64,-0.14,0.21,-44.22,-15.06,-24.61
10114,-6.41,0.96,-8.50,-0.68,-0.13,0.24,-44.22,-15.06,-24.61
10125,-6.41,0.96,-8.50,-0.68,-0.13,0.24,-44.22,-15.06,-24.61
10136,-6.68,1.13,-8.18,-0.54,-0.17,0.23,-46.06,-12.89,-26.51
10147,-6.68,1.13,-8.18,-0.54,-0.17,0.23,-46.06,-12.89,-26.51
10158,-6.68,1.26,-8.03,-0.41,-0.15,0.19,-46.06,-12.89,-26.51
10169,-6.68,1.26,-8.03,-0.41,-0.15,0.19,-46.06,-12.89,-26.51
10180,-6.65,1.36,-8.19,-0.22,-0.06,0.12,-46.06,-12.89,-26.51
10191,-6.54,1.22,-7.93,-0.06,-0.05,0.03,-46.06,-12.89,-26.51
10202,-6.54,1.22,-7.93,-0.06,-0.05,0.03,-46.06,-12.89,-26.51
10213,-6.53,1.09,-7.58,-0.10,-0.04,-0.04,-46.06,-12.89,-26.51
10224,-6.53,1.09,-7.58,-0.10,-0.04,-0.04,-46.06,-12.89,-26.51
10235,-6.41,0.92,-7.54,-0.22,0.05,-0.08,-46.06,-12.89,-26.51
10246,-6.41,0.92,-7.54,-0.22,0.05,-0.08,-46.06,-12.89,-26.51
10257,-6.30,1.04,-8.16,-0.45,0.14,-0.07,-44.91,-12.12,-25.72
10268,-6.30,1.04,-8.16,-0.45,0.14,-0.07,-44.91,-12.12,-25.72
10279,-6.14,0.83,-8.28,-0.24,0.12,-0.04,-44.91,-12.12,-25.72
10290,-5.97,0.91,-7.69,-0.35,0.02,0.02,-44.91,-12.12,-25.72
10301,-5.97,0.91,-7.69,-0.35,0.02,0.02,-44.91,-12.12,-25.72
10312,-6.12,1.59,-8.47,-0.86,-0.00,0.05,-44.91,-12.12,-25.72
10323,-6.12,1.59,-8.47,-0.86,-0.00,0.05,-44.91,-12.12,-25.72
10334,-6.27,1.59,-8.31,-0.60,-0.03,0.01,-44.91,-12.12,-25.72
10345,-6.27,1.59,-8.31,-0.60,-0.03,0.01,-44.91,-12.12,-25.72
10356,-6.46,1.65,-8.20,-0.62,-0.11,-0.08,-44.91,-12.12,-25.72
10367,-6.46,1.65,-8.20,-0.62,-0.11,-0.08,-44.91,-12.12,-25.72
10378,-6.31,1.58,-7.85,-0.67,-0.11,-0.15,-44.91,-12.12,-25.72
10389,-6.31,1.58,-7.85,-0.67,-0.11,-0.15,-44.91,-12.12,-25.72
10400,-5.95,1.44,-7.38,-1.06,-0.05,-0.16,-46.06,-9.80,-27.14
10411,-5.39,2.07,-7.77,-2.18,-0.01,-0.12,-46.06,-9.80,-27.14
10422,-5.39,2.07,-7.77,-2.18,-0.01,-0.12,-46.06,-9.80,-27.14
10433,-5.56,3.03,-8.64,-2.93,-0.12,-0.09,-46.06,-9.80,-27.14
10444,-5.56,3.03,-8.64,-2.93,-0.12,-0.09,-46.06,-9.80,-27.14
10455,-6.33,3.29,-9.03,-2.58,-0.35,-0.20,-46.06,-9.80,-27.14
10466,-6.33,3.29,-9.03,-2.58,-0.35,-0.20,-46.06,-9.80,-27.14
10477,-6.19,2.02,-7.28,-1.26,-0.61,-0.25,-46.06,-9.80,-27.14
10488,-6.19,2.02,-7.28,-1.26,-0.61,-0.25,-46.06,-9.80,-27.14
10499,-5.78,1.41,-6.64,-1.40,-0.70,0.10,-46.06,-9.80,-27.14
10510,-4.97,1.77,-7.54,-0.95,-0.47,0.78,-48.83,-2.06,-28.09
10521,-4.97,1.77,-7.54,-0.95,-0.47,0.78,-48.83,-2.06,-28.09
10532,-4.65,3.14,-7.66,-0.13,-0.41,1.36,-48.83,-2.06,-28.09
10543,-4.65,3.14,-7.66,-0.13,-0.41,1.36,-48.83,-2.06,-28.09
10554,-3.92,4.12,-7.86,-0.83,-0.61,1.63,-48.83,-2.06,-28.09
10565,-3.92,4.12,-7.86,-0.83,-0.61,1.63,-48.83,-2.06,-28.09
10576,-5.95,5.03,-9.23,-1.06,-0.90,1.99,-48.83,-2.06,-28.09
10587,-5.95,5.03,-9.23,-1.06,-0.90,1.99,-48.83,-2.06,-28.09
10598,-5.89,5.83,-7.98,-1.13,-1.58,2.04,-48.83,-2.06,-28.09
10609,-5.89,5.83,-7.98,-1.13,-1.58,2.04,-48.83,-2.06,-28.09
10620,-3.35,5.36,-2.27,-1.72,-2.05,1.62,-48.83,-2.06,-28.09
10631,-7.67,9.97,-5.70,-2.63,-1.43,0.58,-54.37,7.85,-23.34
10642,-7.67,9.97,-5.70,-2.63,-1.43,0.58,-54.37,7.85,-23.34
10653,-10.07,9.07,-2.24,-0.69,-0.77,-1.05,-54.37,7.85,-23.34
10664,-10.07,9.07,-2.24,-0.69,-0.77,-1.05,-54.37,7.85,-23.34
10675,-8.45,5.94,-1.20,-0.84,0.23,-2.75,-54.37,7.85,-23.34
10686,-8.45,5.94,-1.20,-0.84,0.23,-2.75,-54.37,7.85,-23.34
10697,-7.82,3.88,-5.67,0.41,1.55,-3.67,-54.37,7.85,-23.34
10708,-7.82,3.88,-5.67,0.41,1.55,-3.67,-54.37,7.85,-23.34
10719,-7.64,1.15,-5.55,1.37,1.77,-4.37,-54.37,7.85,-23.34
10730,-7.65,-0.55,-5.87,3.08,1.45,-3.77,-54.37,7.85,-23.34
10741,-7.65,-0.55,-5.87,3.08,1.45,-3.77,-54.37,7.85,-23.34
10752,-7.48,-1.21,-7.36,3.70,1.28,-2.67,-54.37,7.85,-23.34
10763,-7.48,-1.21,-7.36,3.70,1.28,-2.67,-54.37,7.85,-23.34
10774,-8.83,-0.20,-8.36,3.20,0.87,-1.81,-49.52,-10.26,-24.77
10785,-8.83,-0.20,-8.36,3.20,0.87,-1.81,-49.52,-10.26,-24.77
10796,-9.40,0.29,-6.11,3.81,0.37,-0.98,-49.52,-10.26,-24.77
10807,-9.40,0.29,-6.11,3.81,0.37,-0.98,-49.52,-10.26,-24.77
10818,-8.77,1.58,-6.06,3.74,0.60,-0.76,-49.52,-10.26,-24.77
10829,-8.77,1.58,-6.06,3.74,0.60,-0.76,-49.52,-10.26,-24.77
10840,-9.45,0.19,-7.57,3.40,0.83,-0.84,-49.52,-10.26,-24.77
10851,-6.38,-2.72,-5.55,2.26,0.72,-0.82,-49.52,-10.26,-24.77
10862,-6.38,-2.72,-5.55,2.26,0.72,-0.82,-49.52,-10.26,-24.77
10873,-6.92,-3.36,-5.83,0.49,0.34,-0.60,-49.52,-10.26,-24.77
10884,-6.92,-3.36,-5.83,0.49,0.34,-0.60,-49.52,-10.26,-24.77
10895,-8.31,-2.72,-5.64,-1.23,0.15,-0.24,-45.14,-19.39,-21.76
10906,-8.31,-2.72,-5.64,-1.23,0.15,-0.24,-45.14,-19.39,-21.76
10917,-9.20,-2.06,-6.91,-2.10,0.45,0.32,-45.14,-19.39,-21.76
10928,-9.20,-2.06,-6.91,-2.10,0.45,0.32,-45.14,-19.39,-21.76
10939,-9.31,-0.56,-6.04,-2.93,0.55,0.83,-45.14,-19.39,-21.76
10950,-9.31,-0.56,-6.04,-2.93,0.55,0.83,-45.14,-19.39,-21.76
10961,-7.75,0.17,-5.31,-3.38,0.84,1.29,-45.14,-19.39,-21.76
10972,-4.08,0.30,-7.48,-4.03,0.96,1.30,-45.14,-19.39,-21.76
10983,-4.08,0.30,-7.48,-4.03,0.96,1.30,-45.14,-19.39,-21.76
10994,-3.51,2.41,-11.01,-4.63,0.45,1.32,-45.14,-19.39,-21.76
11005,-3.51,2.41,-11.01,-4.63,0.45,1.32,-45.14,-19.39,-21.76
11016,-4.85,5.95,-11.92,-4.47,-0.33,1.54,-43.99,-5.00,-29.52
11027,-4.85,5.95,-11.92,-4.47,-0.33,1.54,-43.99,-5.00,-29.52
11038,-4.81,6.93,-8.44,-3.40,-1.05,1.22,-43.99,-5.00,-29.52
11049,-4.81,6.93,-8.44,-3.40,-1.05,1.22,-43.99,-5.00,-29.52
11060,-4.22,7.26,-6.97,-1.91,-1.00,0.49,-43.99,-5.00,-29.52
11071,-6.74,6.63,-7.18,-0.11,-0.73,-0.32,-43.99,-5.00,-29.52
11082,-6.74,6.63,-7.18,-0.11,-0.73,-0.32,-43.99,-5.00,-29.52
11093,-8.10,4.55,-6.46,1.76,-0.48,-1.03,-43.99,-5.00,-29.52
11104,-8.10,4.55,-6.46,1.76,-0.48,-1.03,-43.99,-5.00,-29.52
11115,-7.33,1.18,-5.55,1.58,-0.31,-1.36,-43.99,-5.00,-29.52
11126,-7.33,1.18,-5.55,1.58,-0.31,-1.36,-43.99,-5.00,-29.52
11137,-7.06,-0.02,-5.94,-0.06,-0.27,-1.21,-43.99,-5.00,-29.52
11148,-7.06,-0.02,-5.94,-0.06,-0.27,-1.21,-43.99,-5.00,-29.52
11159,-7.55,-0.12,-6.10,-0.30,-0.19,-0.70,-48.60,-4.69,-27.30
11170,-7.55,-0.12,-6.10,-0.30,-0.19,-0.70,-48.60,-4.69,-27.30
11181,-6.57,1.38,-6.13,-0.90,-0.07,-0.24,-48.60,-4.69,-27.30
11192,-6.51,2.09,-7.38,-1.48,-0.01,0.25,-48.60,-4.69,-27.30
11203,-6.51,2.09,-7.38,-1.48,-0.01,0.25,-48.60,-4.69,-27.30
11214,-7.24,3.25,-7.57,-0.84,-0.19,0.45,-48.60,-4.69,-27.30
11225,-7.24,3.25,-7.57,-0.84,-0.19,0.45,-48.60,-4.69,-27.30
11236,-9.01,2.84,-5.57,0.20,-0.32,0.32,-48.60,-4.69,-27.30
11247,-9.01,2.84,-5.57,0.20,-0.32,0.32,-48.60,-4.69,-27.30
11258,-9.34,3.34,-4.89,0.05,-0.02,0.22,-48.60,-4.69,-27.30
11269,-9.34,3.34,-4.89,0.05,-0.02,0.22,-48.60,-4.69,-27.30
11280,-6.87,5.10,-6.72,-0.79,0.29,0.09,-48.60,-0.98,-27.94
11291,-7.28,4.66,-6.88,0.03,0.42,-0.18,-48.60,-0.98,-27.94
11303,-7.28,4.66,-6.88,0.03,0.42,-0.18,-48.60,-0.98,-27.94
11313,-8.18,4.73,-6.93,0.78,0.39,-0.47,-48.60,-0.98,-27.94
11324,-8.18,4.73,-6.93,0.78,0.39,-0.47,-48.60,-0.98,-27.94
11335,-6.76,4.58,-7.38,1.86,0.43,-0.82,-48.60,-0.98,-27.94
11346,-6.76,4.58,-7.38,1.86,0.43,-0.82,-48.60,-0.98,-27.94
11357,-6.56,3.39,-6.95,3.43,0.49,-1.07,-48.60,-0.98,-27.94
11368,-6.56,3.39,-6.95,3.43,0.49,-1.07,-48.60,-0.98,-27.94
11379,-6.43,2.89,-7.49,3.91,0.41,-1.26,-48.60,-0.98,-27.94
11390,-6.43,2.89,-7.49,3.91,0.41,-1.26,-48.60,-0.98,-27.94
11401,-6.36,1.19,-6.60,4.41,0.24,-1.30,-46.06,-12.58,-26.51
11412,-7.39,-1.10,-5.82,3.88,0.10,-1.05,-46.06,-12.58,-26.51
11423,-7.39,-1.10,-5.82,3.88,0.10,-1.05,-46.06,-12.58,-26.51
11434,-8.48,-1.69,-6.06,2.23,-0.02,-0.68,-46.06,-12.58,-26.51
11445,-8.48,-1.69,-6.06,2.23,-0.02,-0.68,-46.06,-12.58,-26.51
11456,-7.53,-1.35,-5.97,0.93,-0.13,-0.31,-46.06,-12.58,-26.51
11467,-7.53,-1.35,-5.97,0.93,-0.13,-0.31,-46.06,-12.58,-26.51
11478,-6.98,-1.03,-6.43,0.16,-0.06,0.02,-46.06,-12.58,-26.51
11489,-6.98,-1.03,-6.43,0.16,-0.06,0.02,-46.06,-12.58,-26.51
11500,-7.23,-0.26,-6.76,-0.21,0.03,0.30,-46.06,-12.58,-26.51
11511,-7.53,0.18,-7.86,-0.30,0.16,0.33,-42.83,-15.68,-25.24
11522,-7.53,0.18,-7.86,-0.30,0.16,0.33,-42.83,-15.68,-25.24
11533,-7.09,-0.74,-7.73,-0.51,0.25,0.21,-42.83,-15.68,-25.24
11544,-7.09,-0.74,-7.73,-0.51,0.25,0.21,-42.83,-15.68,-25.24
11556,-7.68,-0.09,-7.89,-0.97,0.20,0.14,-42.83,-15.68,-25.24
11566,-7.68,-0.09,-7.89,-0.97,0.20,0.14,-42.83,-15.68,-25.24
11577,-7.61,0.26,-6.92,-1.00,0.15,0.12,-42.83,-15.68,-25.24
11588,-7.61,0.26,-6.92,-1.00,0.15,0.12,-42.83,-15.68,-25.24
11599,-7.39,0.27,-7.46,-0.84,0.29,0.09,-42.83,-15.68,-25.24
11610,-7.39,0.27,-7.46,-0.84,0.29,0.09,-42.83,-15.68,-25.24
11621,-6.58,0.21,-7.44,-0.61,0.39,0.10,-42.83,-15.68,-25.24
11632,-5.91,0.08,-7.35,-0.39,0.37,0.12,-42.83,-15.68,-25.24
11643,-5.91,0.08,-7.35,-0.39,0.37,0.12,-42.83,-15.68,-25.24
11654,-6.05,0.04,-7.08,-0.20,0.30,0.05,-43.06,-14.28,-26.04
11670,-6.05,0.04,-7.08,-0.20,0.30,0.05,-43.06,-14.28,-26.04
11676,-6.61,-0.17,-8.00,0.00,0.47,0.04,-43.06,-14.28,-26.04
11687,-6.61,-0.17,-8.00,0.00,0.47,0.04,-43.06,-14.28,-26.04
11698,-6.98,0.14,-9.72,-0.36,0.59,0.11,-43.06,-14.28,-26.04
11709,-6.98,0.14,-9.72,-0.36,0.59,0.11,-43.06,-14.28,-26.04
11720,-6.57,1.09,-8.92,-0.87,0.47,0.40,-43.06,-14.28,-26.04
11731,-5.83,1.91,-8.48,-0.94,0.42,0.62,-43.06,-14.28,-26.04
11742,-5.83,1.91,-8.48,-0.94,0.42,0.62,-43.06,-14.28,-26.04
11753,-5.51,3.07,-8.76,-1.01,0.11,0.56,-43.06,-14.28,-26.04
11764,-5.51,3.07,-8.76,-1.01,0.11,0.56,-43.06,-14.28,-26.04
11775,-6.98,3.43,-7.35,-0.43,-0.35,0.28,-40.06,-11.96,-28.73
11787,-6.98,3.43,-7.35,-0.43,-0.35,0.28,-40.06,-11.96,-28.73
11797,-8.13,3.48,-7.86,0.16,-0.30,-0.18,-40.06,-11.96,-28.73
11808,-8.13,3.48,-7.86,0.16,-0.30,-0.18,-40.06,-11.96,-28.73
11819,-7.80,2.74,-7.96,0.87,-0.23,-0.57,-40.06,-11.96,-28.73
11830,-7.80,2.74,-7.96,0.87,-0.23,-0.57,-40.06,-11.96,-28.73
11841,-7.80,1.09,-7.06,1.46,-0.29,-0.69,-40.06,-11.96,-28.73
11852,-7.36,-0.25,-6.59,1.07,-0.20,-0.54,-40.06,-11.96,-28.73
11863,-7.36,-0.25,-6.59,1.07,-0.20,-0.54,-40.06,-11.96,-28.73
11874,-6.57,0.17,-6.80,-0.17,-0.26,-0.45,-40.06,-11.96,-28.73
11885,-6.57,0.17,-6.80,-0.17,-0.26,-0.45,-40.06,-11.96,-28.73
11896,-6.79,0.91,-4.50,-1.31,-0.47,-0.46,-40.76,-13.97,-26.35
11907,-6.79,0.91,-4.50,-1.31,-0.47,-0.46,-40.76,-13.97,-26.35
11918,-7.25,4.41,-1.08,-5.98,-0.44,-0.77,-40.76,-13.97,-26.35
11929,-7.25,4.41,-1.08,-5.98,-0.44,-0.77,-40.76,-13.97,-26.35
11940,-7.13,6.93,-3.99,-11.00,0.40,-1.31,-40.76,-13.97,-26.35
11951,-7.13,6.93,-3.99,-11.00,0.40,-1.31,-40.76,-13.97,-26.35
11962,-8.56,6.51,-7.91,-8.92,1.47,-1.60,-40.76,-13.97,-26.35
11973,-7.65,3.26,-6.68,-4.31,2.28,-2.00,-40.76,-13.97,-26.35
11984,-7.65,3.26,-6.68,-4.31,2.28,-2.00,-40.76,-13.97,-26.35
11995,-5.31,1.65,-10.20,-3.87,2.64,-2.46,-40.76,-13.97,-26.35
12006,-5.31,1.65,-10.20,-3.87,2.64,-2.46,-40.76,-13.97,-26.35
12017,-4.26,-0.12,-9.42,-4.73,2.08,-2.39,-40.76,-13.97,-26.35
12033,-4.26,-0.12,-9.42,-4.73,2.08,-2.39,-40.76,-13.97,-26.35
12039,-4.36,1.26,-11.43,-5.88,1.25,-1.53,-34.76,8.93,-34.27
12050,-4.36,1.26,-11.43,-5.88,1.25,-1.53,-34.76,8.93,-34.27
12061,-3.75,3.70,-9.51,-5.71,0.37,-0.52,-34.76,8.93,-34.27
12072,-3.55,6.99,-6.04,-6.24,-0.36,0.10,-34.76,8.93,-34.27
12083,-3.55,6.99,-6.04,-6.24,-0.36,0.10,-34.76,8.93,-34.27
12094,-3.83,9.06,-4.61,-7.00,-0.89,0.13,-34.76,8.93,-34.27
12105,-3.83,9.06,-4.61,-7.00,-0.89,0.13,-34.76,8.93,-34.27
12116,-5.83,9.35,-1.76,-6.31,-0.98,0.05,-34.76,8.93,-34.27
12127,-5.83,9.35,-1.76,-6.31,-0.98,0.05,-34.76,8.93,-34.27
12138,-7.44,8.56,0.97,-5.67,-0.74,0.28,-34.76,8.93,-34.27
12149,-7.44,8.56,0.97,-5.67,-0.74,0.28,-34.76,8.93,-34.27
12160,-7.16,8.76,0.52,-5.91,-0.51,0.77,-33.14,29.20,-17.96
12171,-7.16,8.76,0.52,-5.91,-0.51,0.77,-33.14,29.20,-17.96
12182,-7.13,9.54,0.15,-5.21,-0.37,0.97,-33.14,29.20,-17.96
12193,-7.54,8.94,0.01,-2.79,0.16,0.70,-33.14,29.20,-17.96
12204,-7.54,8.94,0.01,-2.79,0.16,0.70,-33.14,29.20,-17.96
12215,-6.53,7.67,-1.02,0.80,0.79,0.36,-33.14,29.20,-17.96
12226,-6.53,7.67,-1.02,0.80,0.79,0.36,-33.14,29.20,-17.96
12237,-6.67,7.56,-2.17,2.93,1.05,0.15,-33.14,29.20,-17.96
12248,-6.67,7.56,-2.17,2.93,1.05,0.15,-33.14,29.20,-17.96
12259,-6.41,6.17,-2.53,3.83,1.12,-0.09,-33.14,29.20,-17.96
12270,-6.41,6.17,-2.53,3.83,1.12,-0.09,-33.14,29.20,-17.96
12281,-5.60,5.37,-3.17,3.35,1.03,-0.15,-34.30,30.28,-18.75
12292,-5.55,5.61,-4.04,1.75,0.64,-0.10,-34.30,30.28,-18.75
12303,-5.55,5.61,-4.04,1.75,0.64,-0.10,-34.30,30.28,-18.75
12314,-5.90,6.65,-4.39,-0.25,-0.04,0.01,-34.30,30.28,-18.75
12325,-5.90,6.65,-4.39,-0.25,-0.04,0.01,-34.30,30.28,-18.75
12336,-6.93,7.94,-2.83,-1.26,-0.53,0.14,-34.30,30.28,-18.75
12347,-6.93,7.94,-2.83,-1.26,-0.53,0.14,-34.30,30.28,-18.75
12358,-7.53,9.35,-1.99,-1.18,-0.43,0.09,-34.30,30.28,-18.75
12369,-7.53,9.35,-1.99,-1.18,-0.43,0.09,-34.30,30.28,-18.75
12380,-7.60,9.29,-1.74,-0.38,-0.13,0.01,-34.30,30.28,-18.75
12391,-7.60,9.29,-1.74,-0.38,-0.13,0.01,-34.30,30.28,-18.75
12402,-7.98,9.33,-1.78,0.08,0.04,-0.01,-34.30,30.28,-18.75
12413,-7.61,8.60,-1.76,0.59,0.22,-0.07,-33.14,30.13,-17.96
12424,-7.61,8.60,-1.76,0.59,0.22,-0.07,-33.14,30.13,-17.96
12435,-6.96,8.01,-2.26,0.88,0.42,-0.19,-33.14,30.13,-17.96
12446,-6.96,8.01,-2.26,0.88,0.42,-0.19,-33.14,30.13,-17.96
12457,-6.52,7.17,-2.53,1.09,0.53,-0.27,-33.14,30.13,-17.96
12468,-6.52,7.17,-2.53,1.09,0.53,-0.27,-33.14,30.13,-17.96
12479,-6.63,6.68,-2.66,0.77,0.51,-0.22,-33.14,30.13,-17.96
12490,-6.63,6.68,-2.66,0.77,0.51,-0.22,-33.14,30.13,-17.96
12501,-6.46,7.14,-2.75,-0.08,0.41,-0.08,-33.14,30.13,-17.96
12512,-5.81,8.10,-2.60,-0.38,0.36,-0.03,-33.14,30.13,-17.96
12524,-5.81,8.10,-2.60,-0.38,0.36,-0.03,-33.14,30.13,-17.96
12534,-5.60,7.78,-2.34,0.03,0.37,-0.12,-33.61,28.27,-20.49
12545,-5.60,7.78,-2.34,0.03,0.37,-0.12,-33.61,28.27,-20.49
12556,-5.78,7.71,-2.75,0.09,0.38,-0.16,-33.61,28.27,-20.49
12567,-5.78,7.71,-2.75,0.09,0.38,-0.16,-33.61,28.27,-20.49
12578,-5.61,7.74,-2.94,-0.08,0.36,-0.11,-33.61,28.27,-20.49
12589,-5.61,7.74,-2.94,-0.08,0.36,-0.11,-33.61,28.27,-20.49
12600,-5.26,7.79,-3.01,-0.03,0.35,-0.05,-33.61,28.27,-20.49
12611,-5.26,7.79,-3.01,-0.03,0.35,-0.05,-33.61,28.27,-20.49
12622,-5.60,7.82,-3.18,-0.03,0.27,0.01,-33.61,28.27,-20.49
12633,-5.96,7.68,-2.83,-0.12,0.14,0.08,-33.61,28.27,-20.49
12644,-5.96,7.68,-2.83,-0.12,0.14,0.08,-33.61,28.27,-20.49
12655,-5.90,7.71,-2.65,-0.26,0.11,0.19,-32.91,29.66,-20.97
12666,-5.90,7.71,-2.65,-0.26,0.11,0.19,-32.91,29.66,-20.97
12677,-5.80,7.93,-2.27,-0.15,0.14,0.23,-32.91,29.66,-20.97
12688,-5.80,7.93,-2.27,-0.15,0.14,0.23,-32.91,29.66,-20.97
12699,-5.69,7.80,-2.47,-0.01,0.20,0.21,-32.91,29.66,-20.97
12710,-5.69,7.80,-2.47,-0.01,0.20,0.21,-32.91,29.66,-20.97
12721,-5.64,7.99,-2.62,0.10,0.18,0.09,-32.91,29.66,-20.97
12732,-5.75,7.18,-2.42,0.29,0.10,0.02,-32.91,29.66,-20.97
12743,-5.75,7.18,-2.42,0.29,0.10,0.02,-32.91,29.66,-20.97
12754,-5.68,7.24,-2.44,0.18,0.01,0.13,-32.91,29.66,-20.97
12765,-5.68,7.24,-2.44,0.18,0.01,0.13,-32.91,29.66,-20.97
12777,-5.68,7.34,-2.73,0.05,-0.09,0.22,-32.91,29.66,-20.97
12787,-5.68,7.34,-2.73,0.05,-0.09,0.22,-32.91,29.66,-20.97
12798,-5.80,7.54,-2.72,-0.02,-0.16,0.16,-29.45,29.20,-21.44
12809,-5.80,7.54,-2.72,-0.02,-0.16,0.16,-29.45,29.20,-21.44
12820,-5.63,6.98,-2.87,0.14,-0.15,0.10,-29.45,29.20,-21.44
12831,-5.63,6.98,-2.87,0.14,-0.15,0.10,-29.45,29.20,-21.44
12842,-5.55,7.24,-3.26,0.04,-0.23,0.09,-29.45,29.20,-21.44
12853,-5.87,7.05,-2.89,0.06,-0.29,0.02,-29.45,29.20,-21.44
12864,-5.87,7.05,-2.89,0.06,-0.29,0.02,-29.45,29.20,-21.44
12875,-6.09,7.12,-2.92,0.03,-0.26,-0.01,-29.45,29.20,-21.44
12886,-6.09,7.12,-2.92,0.03,-0.26,-0.01,-29.45,29.20,-21.44
12897,-6.06,7.18,-3.25,-0.04,-0.22,-0.02,-29.45,29.20,-21.44
12908,-6.06,7.18,-3.25,-0.04,-0.22,-0.02,-29.45,29.20,-21.44
12919,-6.08,6.97,-3.13,-0.02,-0.22,-0.05,-31.99,27.81,-21.60
12930,-6.08,6.97,-3.13,-0.02,-0.22,-0.05,-31.99,27.81,-21.60
12941,-6.18,7.33,-3.14,-0.15,-0.26,-0.03,-31.99,27.81,-21.60
12952,-6.18,7.33,-3.14,-0.15,-0.26,-0.03,-31.99,27.81,-21.60
12963,-6.47,7.32,-2.78,-0.14,-0.28,-0.03,-31.99,27.81,-21.60
12974,-6.56,7.48,-2.75,-0.07,-0.20,-0.01,-31.99,27.81,-21.60
12985,-6.56,7.48,-2.75,-0.07,-0.20,-0.01,-31.99,27.81,-21.60
12996,-6.52,7.39,-2.94,-0.08,-0.14,-0.00,-31.99,27.81,-21.60
13007,-6.52,7.39,-2.94,-0.08,-0.14,-0.00,-31.99,27.81,-21.60
13018,-6.53,7.44,-2.57,-0.18,-0.15,0.04,-31.99,27.81,-21.60
13029,-6.53,7.44,-2.57,-0.18,-0.15,0.04,-31.99,27.81,-21.60
13040,-6.45,7.91,-2.64,-0.26,-0.10,0.07,-32.45,28.12,-20.34
13051,-6.45,7.91,-2.64,-0.26,-0.10,0.07,-32.45,28.12,-20.34
13062,-6.47,7.70,-2.63,-0.11,-0.04,0.02,-32.45,28.12,-20.34
13073,-6.52,7.59,-2.64,-0.11,-0.01,0.03,-32.45,28.12,-20.34
13084,-6.52,7.59,-2.64,-0.11,-0.01,0.03,-32.45,28.12,-20.34
13095,-6.47,7.83,-2.48,-0.24,-0.01,0.08,-32.45,28.12,-20.34
13106,-6.47,7.83,-2.48,-0.24,-0.01,0.08,-32.45,28.12,-20.34
13117,-6.38,8.04,-2.39,-0.24,0.02,0.10,-32.45,28.12,-20.34
13128,-6.38,8.04,-2.39,-0.24,0.02,0.10,-32.45,28.12,-20.34
13139,-6.35,8.04,-2.42,-0.21,0.05,0.08,-32.45,28.12,-20.34
13150,-6.35,8.04,-2.42,-0.21,0.05,0.08,-32.45,28.12,-20.34
13161,-6.24,8.06,-2.43,-0.20,0.05,0.08,-30.61,29.35,-18.44
13172,-6.24,8.06,-2.43,-0.20,0.05,0.08,-30.61,29.35,-18.44
13183,-6.30,8.01,-2.48,-0.09,0.05,0.07,-30.61,29.35,-18.44
13194,-6.12,7.82,-2.63,-0.02,0.08,0.05,-30.61,29.35,-18.44
13205,-6.12,7.82,-2.63,-0.02,0.08,0.05,-30.61,29.35,-18.44
13216,-6.13,7.76,-2.49,-0.02,0.07,0.05,-30.61,29.35,-18.44
13227,-6.13,7.76,-2.49,-0.02,0.07,0.05,-30.61,29.35,-18.44
13238,-6.05,7.86,-2.48,-0.07,0.07,0.10,-30.61,29.35,-18.44
13249,-6.05,7.86,-2.48,-0.07,0.07,0.10,-30.61,29.35,-18.44
13260,-5.96,8.06,-2.43,-0.15,0.05,0.12,-30.61,29.35,-18.44
13271,-5.96,8.06,-2.43,-0.15,0.05,0.12,-30.61,29.35,-18.44
13282,-5.89,8.04,-2.25,-0.13,0.03,0.11,-30.61,29.35,-18.44
13293,-5.85,8.17,-2.28,-0.07,0.03,0.11,-31.99,27.81,-19.39
13304,-5.85,8.17,-2.28,-0.07,0.03,0.11,-31.99,27.81,-19.39
13315,-5.92,8.05,-2.25,-0.02,0.02,0.07,-31.99,27.81,-19.39
13326,-5.92,8.05,-2.25,-0.02,0.02,0.07,-31.99,27.81,-19.39
13337,-6.02,7.90,-2.13,0.06,0.02,0.07,-31.99,27.81,-19.39
13348,-6.02,7.90,-2.13,0.06,0.02,0.07,-31.99,27.81,-19.39
13359,-5.83,7.79,-2.38,0.03,0.05,0.09,-31.99,27.81,-19.39
13370,-5.83,7.79,-2.38,0.03,0.05,0.09,-31.99,27.81,-19.39
13381,-5.72,7.91,-2.43,-0.04,0.03,0.08,-31.99,27.81,-19.39
13392,-5.72,7.91,-2.43,-0.04,0.03,0.08,-31.99,27.81,-19.39
13403,-5.77,7.81,-2.45,0.01,0.01,0.06,-31.99,27.81,-19.39
13414,-5.78,7.75,-2.55,0.05,0.02,0.06,-30.38,30.13,-18.91
13425,-5.78,7.75,-2.55,0.05,0.02,0.06,-30.38,30.13,-18.91
13436,-5.65,7.80,-2.56,-0.03,-0.00,0.09,-30.38,30.13,-18.91
13447,-5.65,7.80,-2.56,-0.03,-0.00,0.09,-30.38,30.13,-18.91
13458,-5.60,8.00,-2.60,-0.05,-0.02,0.06,-30.38,30.13,-18.91
13469,-5.60,8.00,-2.60,-0.05,-0.02,0.06,-30.38,30.13,-18.91
13480,-5.68,7.77,-2.65,0.09,-0.00,0.01,-30.38,30.13,-18.91
13491,-5.68,7.77,-2.65,0.09,-0.00,0.01,-30.38,30.13,-18.91
13502,-5.79,7.79,-2.72,0.04,-0.02,0.02,-30.38,30.13,-18.91
13513,-5.96,7.92,-2.53,-0.09,-0.04,0.05,-30.38,30.13,-18.91
13524,-5.96,7.92,-2.53,-0.09,-0.04,0.05,-30.38,30.13,-18.91
13535,-6.03,8.01,-2.45,-0.12,0.02,0.06,-29.91,31.06,-19.23
13546,-6.03,8.01,-2.45,-0.12,0.02,0.06,-29.91,31.06,-19.23
13557,-5.95,8.03,-2.55,-0.11,0.07,0.10,-29.91,31.06,-19.23
13568,-5.95,8.03,-2.55,-0.11,0.07,0.10,-29.91,31.06,-19.23
13579,-5.74,8.15,-2.43,-0.11,0.07,0.13,-29.91,31.06,-19.23
13590,-5.74,8.15,-2.43,-0.11,0.07,0.13,-29.91,31.06,-19.23
13601,-5.60,8.03,-2.33,-0.05,0.07,0.11,-29.91,31.06,-19.23
13612,-5.60,8.03,-2.33,-0.05,0.07,0.11,-29.91,31.06,-19.23
13623,-5.45,7.84,-2.41,-0.04,0.09,0.10,-29.91,31.06,-19.23
13634,-5.39,7.77,-2.36,-0.12,0.08,0.10,-29.91,31.06,-19.23
13645,-5.39,7.77,-2.36,-0.12,0.08,0.10,-29.91,31.06,-19.23
13656,-5.21,7.82,-2.34,-0.18,0.08,0.11,-29.91,31.06,-19.23
13667,-5.21,7.82,-2.34,-0.18,0.08,0.11,-29.91,31.06,-19.23
13678,-4.98,7.92,-2.21,-0.18,0.09,0.10,-29.68,31.21,-17.17
13689,-4.98,7.92,-2.21,-0.18,0.09,0.10,-29.68,31.21,-17.17
13700,-4.80,7.79,-2.17,-0.11,0.10,0.07,-29.68,31.21,-17.17
13711,-4.80,7.79,-2.17,-0.11,0.10,0.07,-29.68,31.21,-17.17
13722,-4.60,7.79,-2.17,-0.15,0.06,0.09,-29.68,31.21,-17.17
13733,-4.65,8.40,-2.13,-0.27,-0.02,0.10,-29.68,31.21,-17.17
13744,-4.65,8.40,-2.13,-0.27,-0.02,0.10,-29.68,31.21,-17.17
13756,-4.78,8.28,-1.76,-0.20,-0.08,0.04,-29.68,31.21,-17.17
13766,-4.78,8.28,-1.76,-0.20,-0.08,0.04,-29.68,31.21,-17.17
13777,-4.79,8.09,-1.83,-0.14,-0.06,0.02,-29.68,31.21,-17.17
13788,-4.79,8.09,-1.83,-0.14,-0.06,0.02,-29.68,31.21,-17.17
13799,-4.74,8.16,-2.15,-0.04,-0.05,0.02,-28.76,32.45,-17.80
13810,-4.74,8.16,-2.15,-0.04,-0.05,0.02,-28.76,32.45,-17.80
13821,-5.04,8.18,-2.30,0.14,-0.16,0.03,-28.76,32.45,-17.80
13832,-5.04,8.18,-2.30,0.14,-0.16,0.03,-28.76,32.45,-17.80
13843,-5.52,8.06,-2.44,0.01,-0.33,0.09,-28.76,32.45,-17.80
13854,-6.05,8.57,-2.44,-0.06,-0.43,0.14,-28.76,32.45,-17.80
13865,-6.05,8.57,-2.44,-0.06,-0.43,0.14,-28.76,32.45,-17.80
13876,-6.27,7.48,-1.70,0.08,-0.38,0.15,-28.76,32.45,-17.80
13887,-6.27,7.48,-1.70,0.08,-0.38,0.15,-28.76,32.45,-17.80
13898,-5.76,7.32,-2.10,-0.31,-0.28,0.32,-28.76,32.45,-17.80
13909,-5.76,7.32,-2.10,-0.31,-0.28,0.32,-28.76,32.45,-17.80
13920,-4.77,7.58,-2.82,-0.34,-0.23,0.39,-29.22,32.14,-17.17
13931,-4.77,7.58,-2.82,-0.34,-0.23,0.39,-29.22,32.14,-17.17
13947,-4.22,7.37,-2.23,0.42,-0.28,0.37,-29.22,32.14,-17.17
13953,-4.22,7.37,-2.23,0.42,-0.28,0.37,-29.22,32.14,-17.17
13964,-5.39,8.27,-2.15,1.01,-0.33,0.26,-29.22,32.14,-17.17
13975,-6.23,9.25,-2.07,1.56,-0.29,-0.01,-29.22,32.14,-17.17
13986,-6.23,9.25,-2.07,1.56,-0.29,-0.01,-29.22,32.14,-17.17
13997,-6.10,8.33,-1.81,1.85,-0.21,-0.35,-29.22,32.14,-17.17
14008,-6.10,8.33,-1.81,1.85,-0.21,-0.35,-29.22,32.14,-17.17
14019,-6.25,7.42,-2.28,1.01,-0.27,-0.38,-29.22,32.14,-17.17
14030,-6.25,7.42,-2.28,1.01,-0.27,-0.38,-29.22,32.14,-17.17
14041,-6.26,7.78,-2.37,-0.01,-0.33,-0.15,-29.22,32.14,-17.17
14052,-6.26,7.78,-2.37,-0.01,-0.33,-0.15,-29.22,32.14,-17.17
14063,-6.24,8.21,-2.82,-0.52,-0.29,-0.05,-28.30,29.35,-20.34
14074,-6.06,7.63,-2.37,-0.51,-0.21,0.02,-28.30,29.35,-20.34
14085,-6.06,7.63,-2.37,-0.51,-0.21,0.02,-28.30,29.35,-20.34
14096,-6.16,8.46,-2.41,-0.72,-0.08,0.10,-28.30,29.35,-20.34
14107,-6.16,8.46,-2.41,-0.72,-0.08,0.10,-28.30,29.35,-20.34
14118,-6.22,8.91,-2.37,-0.64,0.08,-0.02,-28.30,29.35,-20.34
14129,-6.22,8.91,-2.37,-0.64,0.08,-0.02,-28.30,29.35,-20.34
14140,-5.77,8.45,-2.24,-0.35,0.16,-0.15,-28.30,29.35,-20.34
14151,-5.77,8.45,-2.24,-0.35,0.16,-0.15,-28.30,29.35,-20.34
14162,-5.55,8.21,-2.27,-0.31,0.13,-0.16,-28.30,29.35,-20.34
14178,-5.55,8.21,-2.27,-0.31,0.13,-0.16,-28.30,29.35,-20.34
14184,-5.83,8.23,-2.07,-0.41,0.05,-0.09,-28.30,30.28,-18.44
14195,-6.16,8.54,-1.73,-0.54,0.05,-0.04,-28.30,30.28,-18.44
14206,-6.16,8.54,-1.73,-0.54,0.05,-0.04,-28.30,30.28,-18.44
14217,-5.92,8.46,-1.75,-0.51,0.09,-0.08,-28.30,30.28,-18.44
14228,-5.92,8.46,-1.75,-0.51,0.09,-0.08,-28.30,30.28,-18.44
14239,-5.83,8.33,-1.96,-0.46,0.09,-0.09,-28.30,30.28,-18.44
14251,-5.83,8.33,-1.96,-0.46,0.09,-0.09,-28.30,30.28,-18.44
14261,-5.99,8.79,-1.97,-0.36,0.05,-0.11,-28.30,30.28,-18.44
14272,-5.99,8.79,-1.97,-0.36,0.05,-0.11,-28.30,30.28,-18.44
14283,-5.60,8.18,-1.89,-0.02,0.05,-0.17,-28.30,30.28,-18.44
14294,-5.56,8.13,-2.48,0.04,0.01,-0.15,-31.53,30.59,-17.80
14305,-5.56,8.13,-2.48,0.04,0.01,-0.15,-31.53,30.59,-17.80
14316,-5.97,8.24,-2.22,0.10,-0.10,-0.13,-31.53,30.59,-17.80
14327,-5.97,8.24,-2.22,0.10,-0.10,-0.13,-31.53,30.59,-17.80
14338,-6.05,9.21,-2.47,0.43,-0.13,-0.12,-31.53,30.59,-17.80
14349,-6.05,9.21,-2.47,0.43,-0.13,-0.12,-31.53,30.59,-17.80
14360,-6.25,9.23,-2.80,1.40,-0.05,-0.28,-31.53,30.59,-17.80
14371,-6.25,9.23,-2.80,1.40,-0.05,-0.28,-31.53,30.59,-17.80
14382,-6.12,8.38,-3.10,2.04,-0.10,-0.31,-31.53,30.59,-17.80
14393,-6.12,8.38,-3.10,2.04,-0.10,-0.31,-31.53,30.59,-17.80
14409,-5.71,8.18,-4.13,1.79,-0.33,-0.22,-31.53,30.59,-17.80
14415,-5.38,8.99,-5.29,2.37,-0.60,-0.19,-32.68,26.11,-21.44
14426,-5.38,8.99,-5.29,2.37,-0.60,-0.19,-32.68,26.11,-21.44
14437,-5.28,7.68,-5.19,3.75,-0.96,-0.34,-32.68,26.11,-21.44
14448,-5.28,7.68,-5.19,3.75,-0.96,-0.34,-32.68,26.11,-21.44
14459,-5.63,6.91,-4.45,3.83,-1.41,-0.29,-32.68,26.11,-21.44
14470,-5.63,6.91,-4.45,3.83,-1.41,-0.29,-32.68,26.11,-21.44
14482,-6.36,8.71,-5.88,4.34,-1.64,-0.12,-32.68,26.11,-21.44
14492,-6.36,8.71,-5.88,4.34,-1.64,-0.12,-32.68,26.11,-21.44
14503,-7.53,7.27,-3.18,5.47,-1.79,-0.15,-32.68,26.11,-21.44
14514,-6.96,6.63,-2.85,2.70,-1.94,-0.47,-32.68,26.11,-21.44
14525,-6.96,6.63,-2.85,2.70,-1.94,-0.47,-32.68,26.11,-21.44
14536,-6.52,5.63,-1.55,1.35,-1.74,-0.63,-32.68,26.11,-21.44
14547,-6.52,5.63,-1.55,1.35,-1.74,-0.63,-32.68,26.11,-21.44
14558,-6.66,5.32,-0.32,0.10,-1.25,-0.58,-42.37,15.58,-28.41
14569,-6.66,5.32,-0.32,0.10,-1.25,-0.58,-42.37,15.58,-28.41
14580,-6.34,4.72,-0.35,-1.04,-0.48,-0.43,-42.37,15.58,-28.41
14591,-6.34,4.72,-0.35,-1.04,-0.48,-0.43,-42.37,15.58,-28.41
14602,-6.21,4.86,0.47,-1.69,0.50,-0.02,-42.37,15.58,-28.41
14613,-6.21,4.86,0.47,-1.69,0.50,-0.02,-42.37,15.58,-28.41
14624,-6.29,7.92,-0.11,-3.79,1.43,0.50,-42.37,15.58,-28.41
14640,-5.48,9.48,-2.26,-3.73,2.33,0.73,-42.37,15.58,-28.41
14646,-5.48,9.48,-2.26,-3.73,2.33,0.73,-42.37,15.58,-28.41
14657,-4.88,9.43,-5.54,-2.36,2.87,0.79,-42.37,15.58,-28.41
14668,-4.88,9.43,-5.54,-2.36,2.87,0.79,-42.37,15.58,-28.41
14679,-3.14,12.48,-11.34,0.77,2.25,0.35,-34.30,21.93,-26.35
14690,-3.14,12.48,-11.34,0.77,2.25,0.35,-34.30,21.93,-26.35
14701,-5.09,5.54,-5.94,0.53,-0.13,-0.42,-34.30,21.93,-26.35
14712,-5.09,5.54,-5.94,0.53,-0.13,-0.42,-34.30,21.93,-26.35
14723,-6.20,7.68,-2.92,-0.13,-0.76,-0.07,-34.30,21.93,-26.35
14734,-5.95,6.96,-3.60,-0.07,-0.74,-0.14,-34.30,21.93,-26.35
14745,-5.95,6.96,-3.60,-0.07,-0.74,-0.14,-34.30,21.93,-26.35
14756,-5.61,7.01,-4.04,0.06,-0.73,-0.13,-34.30,21.93,-26.35
14767,-5.61,7.01,-4.04,0.06,-0.73,-0.13,-34.30,21.93,-26.35
14778,-6.12,7.39,-3.86,-0.17,-0.80,-0.15,-34.30,21.93,-26.35
14789,-6.12,7.39,-3.86,-0.17,-0.80,-0.15,-34.30,21.93,-26.35
14800,-5.85,6.84,-2.41,-0.54,-0.94,-0.36,-38.45,21.00,-25.40
14811,-5.85,6.84,-2.41,-0.54,-0.94,-0.36,-38.45,21.00,-25.40
14822,-6.27,6.22,-1.84,-1.31,-0.90,-0.60,-38.45,21.00,-25.40
14833,-6.27,6.22,-1.84,-1.31,-0.90,-0.60,-38.45,21.00,-25.40
14844,-6.83,4.64,-1.78,-0.64,-0.38,-0.57,-38.45,21.00,-25.40
14855,-7.70,4.13,-3.26,-0.55,0.04,-0.26,-38.45,21.00,-25.40
14866,-7.70,4.13,-3.26,-0.55,0.04,-0.26,-38.45,21.00,-25.40
14877,-8.11,5.36,-4.83,-0.70,0.15,0.03,-38.45,21.00,-25.40
14889,-8.11,5.36,-4.83,-0.70,0.15,0.03,-38.45,21.00,-25.40
14899,-9.74,7.64,-4.54,-1.42,0.06,0.05,-38.45,21.00,-25.40
14910,-9.74,7.64,-4.54,-1.42,0.06,0.05,-38.45,21.00,-25.40
14921,-9.92,7.10,-4.21,-2.36,-0.13,-0.32,-38.45,21.00,-25.40
14932,-9.92,7.10,-4.21,-2.36,-0.13,-0.32,-38.45,21.00,-25.40
14943,-7.08,4.64,-3.90,-3.00,-0.29,-0.39,-40.06,24.25,-20.81
14954,-7.08,4.64,-3.90,-3.00,-0.29,-0.39,-40.06,24.25,-20.81
14965,-6.43,5.83,-2.38,-3.83,-0.61,-0.02,-40.06,24.25,-20.81
14976,-7.24,7.48,-0.65,-4.58,-1.17,0.03,-40.06,24.25,-20.81
14987,-7.24,7.48,-0.65,-4.58,-1.17,0.03,-40.06,24.25,-20.81
14998,-7.30,7.76,0.94,-5.33,-1.58,-0.39,-40.06,24.25,-20.81
15009,-7.30,7.76,0.94,-5.33,-1.58,-0.39,-40.06,24.25,-20.81
15020,-7.51,6.52,2.20,-4.05,-1.19,-0.72,-40.06,24.25,-20.81
15031,-7.51,6.52,2.20,-4.05,-1.19,-0.72,-40.06,24.25,-20.81
15042,-8.33,5.26,2.63,-2.05,-0.39,-0.60,-40.06,24.25,-20.81
15053,-8.33,5.26,2.63,-2.05,-0.39,-0.60,-40.06,24.25,-20.81
15064,-7.81,6.20,1.26,-0.88,0.13,-0.40,-43.29,31.68,-5.29
15075,-8.24,6.15,1.70,0.02,0.30,-0.42,-43.29,31.68,-5.29
15086,-8.24,6.15,1.70,0.02,0.30,-0.42,-43.29,31.68,-5.29
15102,-9.72,5.13,2.21,-0.05,0.49,-0.56,-43.29,31.68,-5.29
15108,-9.72,5.13,2.21,-0.05,0.49,-0.56,-43.29,31.68,-5.29
15119,-8.70,4.53,0.21,-1.02,0.78,-0.54,-43.29,31.68,-5.29
15130,-8.70,4.53,0.21,-1.02,0.78,-0.54,-43.29,31.68,-5.29
15141,-7.42,6.38,-1.69,-2.72,0.56,-0.36,-43.29,31.68,-5.29
15152,-7.42,6.38,-1.69,-2.72,0.56,-0.36,-43.29,31.68,-5.29
15163,-9.05,5.10,4.90,-2.03,0.20,-0.31,-43.29,31.68,-5.29
15174,-9.05,5.10,4.90,-2.03,0.20,-0.31,-43.29,31.68,-5.29
15185,-8.20,6.80,1.99,-2.20,0.17,-0.47,-46.06,30.44,1.04
15196,-7.73,5.33,1.83,-0.96,0.25,-0.40,-46.06,30.44,1.04
15207,-7.73,5.33,1.83,-0.96,0.25,-0.40,-46.06,30.44,1.04
15218,-7.19,5.97,1.93,-0.87,0.22,-0.18,-46.06,30.44,1.04
15229,-7.19,5.97,1.93,-0.87,0.22,-0.18,-46.06,30.44,1.04
15240,-7.05,6.18,2.72,-0.80,0.13,-0.02,-46.06,30.44,1.04
15251,-7.05,6.18,2.72,-0.80,0.13,-0.02,-46.06,30.44,1.04
15262,-6.85,7.07,3.93,-0.57,0.09,0.10,-46.06,30.44,1.04
15273,-6.85,7.07,3.93,-0.57,0.09,0.10,-46.06,30.44,1.04
15284,-6.98,6.41,3.10,-0.02,0.29,-0.00,-46.06,30.44,1.04
15295,-7.75,6.01,1.83,0.29,0.36,-0.13,-46.06,30.44,1.04
15306,-7.75,6.01,1.83,0.29,0.36,-0.13,-46.06,30.44,1.04
15317,-8.33,5.55,1.18,0.46,0.32,-0.15,-45.83,30.28,1.51
15328,-8.33,5.55,1.18,0.46,0.32,-0.15,-45.83,30.28,1.51
15345,-8.34,6.04,0.77,0.43,0.22,-0.16,-45.83,30.28,1.51
15350,-8.34,6.04,0.77,0.43,0.22,-0.16,-45.83,30.28,1.51
15361,-8.93,4.70,0.83,0.31,0.08,-0.40,-45.83,30.28,1.51
15372,-8.93,4.70,0.83,0.31,0.08,-0.40,-45.83,30.28,1.51
15383,-9.31,4.35,0.69,0.19,0.03,-0.31,-45.83,30.28,1.51
15394,-9.31,4.35,0.69,0.19,0.03,-0.31,-45.83,30.28,1.51
15405,-8.91,4.76,2.01,-0.08,-0.10,-0.10,-45.83,30.28,1.51
15416,-8.01,5.22,2.71,-0.27,-0.12,-0.05,-45.83,30.28,1.51
15427,-8.01,5.22,2.71,-0.27,-0.12,-0.05,-45.83,30.28,1.51
15438,-7.68,5.69,2.94,-0.10,-0.07,-0.01,-48.83,30.13,1.04
15449,-7.68,5.69,2.94,-0.10,-0.07,-0.01,-48.83,30.13,1.04
15460,-7.55,5.83,2.97,0.06,-0.01,-0.02,-48.83,30.13,1.04
15471,-7.55,5.83,2.97,0.06,-0.01,-0.02,-48.83,30.13,1.04
15482,-7.70,6.04,2.44,0.17,0.10,-0.04,-48.83,30.13,1.04
15493,-7.70,6.04,2.44,0.17,0.10,-0.04,-48.83,30.13,1.04
15504,-8.02,6.08,1.87,0.28,0.15,-0.09,-48.83,30.13,1.04
15515,-8.17,5.42,1.92,0.28,0.17,-0.14,-48.83,30.13,1.04
15526,-8.17,5.42,1.92,0.28,0.17,-0.14,-48.83,30.13,1.04
15537,-8.33,5.08,1.75,0.30,0.20,-0.12,-48.83,30.13,1.04
15548,-8.33,5.08,1.75,0.30,0.20,-0.12,-48.83,30.13,1.04
15560,-8.55,4.88,1.49,0.28,0.17,-0.08,-45.83,29.66,-2.29
15570,-8.55,4.88,1.49,0.28,0.17,-0.08,-45.83,29.66,-2.29
15581,-8.68,4.96,1.51,0.24,0.18,-0.01,-45.83,29.66,-2.29
15592,-8.68,4.96,1.51,0.24,0.18,-0.01,-45.83,29.66,-2.29
15603,-8.46,5.18,0.87,0.18,0.21,0.00,-45.83,29.66,-2.29
15614,-8.46,5.18,0.87,0.18,0.21,0.00,-45.83,29.66,-2.29
15625,-8.55,5.25,0.76,0.10,0.11,-0.00,-45.83,29.66,-2.29
15636,-8.54,5.38,1.02,-0.02,-0.03,0.02,-45.83,29.66,-2.29
15647,-8.54,5.38,1.02,-0.02,-0.03,0.02,-45.83,29.66,-2.29
15658,-8.20,5.56,1.42,-0.07,-0.08,0.04,-45.83,29.66,-2.29
15669,-8.20,5.56,1.42,-0.07,-0.08,0.04,-45.83,29.66,-2.29
15685,-8.19,5.28,1.98,-0.03,-0.09,0.01,-45.83,29.66,-2.29
15691,-8.19,5.28,1.98,-0.03,-0.09,0.01,-45.83,29.66,-2.29
15702,-8.07,5.65,1.87,-0.04,-0.03,0.05,-50.68,27.96,-3.39
15713,-8.07,5.65,1.87,-0.04,-0.03,0.05,-50.68,27.96,-3.39
15724,-8.02,5.80,1.92,-0.04,0.00,0.08,-50.68,27.96,-3.39
15735,-7.86,6.01,1.81,-0.04,-0.00,0.09,-50.68,27.96,-3.39
15746,-7.86,6.01,1.81,-0.04,-0.00,0.09,-50.68,27.96,-3.39
15757,-7.83,5.98,1.83,0.00,-0.01,0.03,-50.68,27.96,-3.39
15768,-7.83,5.98,1.83,0.00,-0.01,0.03,-50.68,27.96,-3.39
15779,-8.21,5.70,1.48,0.05,0.07,-0.04,-50.68,27.96,-3.39
15790,-8.21,5.70,1.48,0.05,0.07,-0.04,-50.68,27.96,-3.39
15801,-8.48,5.22,1.22,0.04,0.05,-0.05,-50.68,27.96,-3.39
15812,-8.48,5.22,1.22,0.04,0.05,-0.05,-50.68,27.96,-3.39
15823,-8.43,5.55,1.42,-0.04,-0.02,-0.01,-47.21,29.35,-3.87
15834,-8.43,5.55,1.42,-0.04,-0.02,-0.01,-47.21,29.35,-3.87
15845,-8.32,5.26,1.58,-0.05,-0.02,-0.07,-47.21,29.35,-3.87
15856,-8.62,4.82,1.61,-0.02,0.00,-0.08,-47.21,29.35,-3.87
15867,-8.62,4.82,1.61,-0.02,0.00,-0.08,-47.21,29.35,-3.87
15878,-8.44,5.41,1.40,-0.05,-0.00,0.00,-47.21,29.35,-3.87
15889,-8.44,5.41,1.40,-0.05,-0.00,0.00,-47.21,29.35,-3.87
15900,-8.38,5.24,1.52,-0.05,-0.04,-0.01,-47.21,29.35,-3.87
15911,-8.38,5.24,1.52,-0.05,-0.04,-0.01,-47.21,29.35,-3.87
15922,-8.29,5.38,1.60,-0.08,-0.07,-0.00,-47.21,29.35,-3.87
15933,-8.29,5.38,1.60,-0.08,-0.07,-0.00,-47.21,29.35,-3.87
15944,-8.16,5.47,1.82,-0.12,-0.09,-0.02,-47.68,29.35,-1.97
15955,-8.04,5.60,1.88,-0.14,-0.07,-0.05,-47.68,29.35,-1.97
15971,-8.04,5.60,1.88,-0.14,-0.07,-0.05,-47.68,29.35,-1.97
15977,-8.08,5.64,1.76,-0.10,-0.05,-0.09,-47.68,29.35,-1.97
15988,-8.08,5.64,1.76,-0.10,-0.05,-0.09,-47.68,29.35,-1.97
15999,-8.32,5.40,1.77,-0.06,-0.06,-0.09,-47.68,29.35,-1.97
16010,-8.32,5.40,1.77,-0.06,-0.06,-0.09,-47.68,29.35,-1.97
16021,-8.10,5.81,1.84,-0.04,-0.05,-0.02,-47.68,29.35,-1.97
16032,-8.10,5.81,1.84,-0.04,-0.05,-0.02,-47.68,29.35,-1.97
16043,-8.09,5.42,2.05,-0.01,-0.05,-0.08,-47.68,29.35,-1.97
16054,-8.09,5.42,2.05,-0.01,-0.05,-0.08,-47.68,29.35,-1.97
16065,-8.12,5.43,1.90,0.00,0.01,-0.08,-49.75,27.96,-0.86
16076,-8.36,5.34,1.54,0.04,0.07,-0.08,-49.75,27.96,-0.86
16087,-8.36,5.34,1.54,0.04,0.07,-0.08,-49.75,27.96,-0.86
16098,-8.36,5.22,1.53,0.06,0.07,-0.05,-49.75,27.96,-0.86
16109,-8.36,5.22,1.53,0.06,0.07,-0.05,-49.75,27.96,-0.86
16120,-8.37,5.36,1.60,0.06,0.02,-0.01,-49.75,27.96,-0.86
16131,-8.37,5.36,1.60,0.06,0.02,-0.01,-49.75,27.96,-0.86
16142,-8.27,5.37,1.75,0.06,-0.00,-0.01,-49.75,27.96,-0.86
16153,-8.27,5.37,1.75,0.06,-0.00,-0.01,-49.75,27.96,-0.86
16164,-8.30,5.34,1.80,0.06,-0.01,-0.04,-49.75,27.96,-0.86
16175,-8.30,5.34,1.80,0.06,-0.01,-0.04,-49.75,27.96,-0.86
16186,-8.55,5.08,1.83,0.09,-0.02,-0.04,-49.75,27.96,-0.86
16197,-8.52,5.09,1.70,0.05,-0.02,-0.01,-49.52,27.50,-1.02
16208,-8.52,5.09,1.70,0.05,-0.02,-0.01,-49.52,27.50,-1.02
16219,-8.32,5.25,1.66,-0.03,-0.03,-0.00,-49.52,27.50,-1.02
16230,-8.32,5.25,1.66,-0.03,-0.03,-0.00,-49.52,27.50,-1.02
16241,-8.46,4.96,1.64,-0.04,-0.01,-0.01,-49.52,27.50,-1.02
16252,-8.46,4.96,1.64,-0.04,-0.01,-0.01,-49.52,27.50,-1.02
16263,-8.23,5.56,1.39,-0.10,-0.01,0.04,-49.52,27.50,-1.02
16274,-8.23,5.56,1.39,-0.10,-0.01,0.04,-49.52,27.50,-1.02
16285,-8.18,5.43,1.72,-0.11,-0.06,0.02,-49.52,27.50,-1.02
16296,-8.20,5.48,1.92,-0.09,-0.09,-0.01,-49.52,27.50,-1.02
16307,-8.20,5.48,1.92,-0.09,-0.09,-0.01,-49.52,27.50,-1.02
16318,-8.42,5.28,1.93,-0.07,-0.09,-0.04,-48.14,28.74,-1.02
16329,-8.42,5.28,1.93,-0.07,-0.09,-0.04,-48.14,28.74,-1.02
16340,-8.44,5.01,1.86,-0.05,-0.04,0.03,-48.14,28.74,-1.02
16351,-8.44,5.01,1.86,-0.05,-0.04,0.03,-48.14,28.74,-1.02
16362,-8.13,5.55,1.58,-0.11,-0.02,0.13,-48.14,28.74,-1.02
16373,-8.13,5.55,1.58,-0.11,-0.02,0.13,-48.14,28.74,-1.02
16384,-7.95,5.85,1.53,-0.12,-0.07,0.08,-48.14,28.74,-1.02
16395,-7.95,5.85,1.53,-0.12,-0.07,0.08,-48.14,28.74,-1.02
16406,-8.06,5.49,1.78,-0.11,-0.13,-0.02,-48.14,28.74,-1.02
16417,-8.14,5.63,2.20,-0.09,-0.15,-0.03,-48.14,28.74,-1.02
16428,-8.14,5.63,2.20,-0.09,-0.15,-0.03,-48.14,28.74,-1.02
16439,-8.04,5.35,2.18,-0.08,-0.14,-0.09,-50.21,28.89,-0.23
16450,-8.04,5.35,2.18,-0.08,-0.14,-0.09,-50.21,28.89,-0.23
16461,-8.41,4.87,2.23,-0.04,-0.08,-0.12,-50.21,28.89,-0.23
16472,-8.41,4.87,2.23,-0.04,-0.08,-0.12,-50.21,28.89,-0.23
16483,-8.63,5.08,1.81,0.01,0.02,-0.05,-50.21,28.89,-0.23
16494,-8.63,5.08,1.81,0.01,0.02,-0.05,-50.21,28.89,-0.23
16505,-8.51,5.03,1.71,-0.00,0.03,-0.01,-50.21,28.89,-0.23
16516,-8.46,5.17,1.95,-0.06,0.00,0.00,-50.21,28.89,-0.23
16527,-8.46,5.17,1.95,-0.06,0.00,0.00,-50.21,28.89,-0.23
16538,-8.56,4.79,2.26,-0.06,-0.01,-0.01,-50.21,28.89,-0.23
16549,-8.56,4.79,2.26,-0.06,-0.01,-0.01,-50.21,28.89,-0.23
16560,-8.24,5.29,2.04,-0.07,0.03,0.03,-50.21,28.89,-0.23
16571,-8.24,5.29,2.04,-0.07,0.03,0.03,-50.21,28.89,-0.23
16582,-8.13,5.22,1.94,-0.04,0.03,-0.04,-48.60,28.43,0.25
16593,-8.13,5.22,1.94,-0.04,0.03,-0.04,-48.60,28.43,0.25
16604,-8.50,4.95,2.10,0.00,0.02,-0.07,-48.60,28.43,0.25
16615,-8.50,4.95,2.10,0.00,0.02,-0.07,-48.60,28.43,0.25
16626,-8.48,5.34,1.78,-0.01,0.03,-0.01,-48.60,28.43,0.25
16637,-8.26,5.21,1.82,-0.06,-0.00,-0.01,-48.60,28.43,0.25
16648,-8.26,5.21,1.82,-0.06,-0.00,-0.01,-48.60,28.43,0.25
16659,-8.20,5.35,2.04,-0.09,-0.03,-0.00,-48.60,28.43,0.25
16670,-8.20,5.35,2.04,-0.09,-0.03,-0.00,-48.60,28.43,0.25
16681,-8.28,5.29,2.20,-0.09,-0.07,-0.03,-48.60,28.43,0.25
16692,-8.28,5.29,2.20,-0.09,-0.07,-0.03,-48.60,28.43,0.25
16703,-8.24,5.25,2.33,-0.07,-0.05,-0.00,-49.29,27.96,0.41
16714,-8.24,5.25,2.33,-0.07,-0.05,-0.00,-49.29,27.96,0.41
16725,-8.12,5.37,2.02,-0.01,0.01,0.02,-49.29,27.96,0.41
16736,-8.12,5.40,2.03,0.01,0.01,-0.02,-49.29,27.96,0.41
16747,-8.12,5.40,2.03,0.01,0.01,-0.02,-49.29,27.96,0.41
16758,-8.35,5.20,2.05,0.02,0.01,-0.08,-49.29,27.96,0.41
16769,-8.35,5.20,2.05,0.02,0.01,-0.08,-49.29,27.96,0.41
16780,-8.64,4.95,1.86,0.02,0.02,-0.07,-49.29,27.96,0.41
16791,-8.64,4.95,1.86,0.02,0.02,-0.07,-49.29,27.96,0.41
16803,-8.40,5.11,2.01,-0.03,-0.00,-0.01,-49.29,27.96,0.41
16813,-8.40,5.11,2.01,-0.03,-0.00,-0.01,-49.29,27.96,0.41
16824,-8.10,5.33,2.08,-0.05,-0.00,-0.02,-47.45,28.27,-0.86
16835,-8.10,5.33,2.08,-0.05,-0.00,-0.02,-47.45,28.27,-0.86
16846,-8.50,4.93,2.19,0.00,-0.00,-0.07,-47.45,28.27,-0.86
16857,-8.49,5.10,1.98,0.00,0.02,-0.02,-47.45,28.27,-0.86
16868,-8.49,5.10,1.98,0.00,0.02,-0.02,-47.45,28.27,-0.86
16879,-8.23,5.19,1.92,-0.02,0.02,0.01,-47.45,28.27,-0.86
16890,-8.23,5.19,1.92,-0.02,0.02,0.01,-47.45,28.27,-0.86
16901,-8.35,5.19,2.11,-0.03,-0.02,-0.01,-47.45,28.27,-0.86
16912,-8.35,5.19,2.11,-0.03,-0.02,-0.01,-47.45,28.27,-0.86
16923,-8.51,5.05,2.11,-0.00,-0.03,-0.01,-47.45,28.27,-0.86
16934,-8.51,5.05,2.11,-0.00,-0.03,-0.01,-47.45,28.27,-0.86
16945,-8.35,5.24,1.94,-0.02,-0.00,0.02,-47.45,28.27,-0.86
16956,-8.05,5.27,1.95,-0.05,-0.02,-0.01,-47.45,28.27,-0.86
16967,-8.05,5.27,1.95,-0.05,-0.02,-0.01,-50.21,27.96,-0.54
16978,-8.04,5.38,2.12,-0.04,-0.03,-0.07,-50.21,27.96,-0.54
16989,-8.04,5.38,2.12,-0.04,-0.03,-0.07,-50.21,27.96,-0.54
17000,-8.38,5.19,2.24,0.01,-0.02,-0.13,-50.21,27.96,-0.54
17011,-8.38,5.19,2.24,0.01,-0.02,-0.13,-50.21,27.96,-0.54
17022,-8.24,5.22,2.17,0.01,0.01,-0.13,-50.21,27.96,-0.54
17033,-8.24,5.22,2.17,0.01,0.01,-0.13,-50.21,27.96,-0.54
17044,-8.11,5.22,2.15,0.04,0.02,-0.15,-50.21,27.96,-0.54
17055,-8.11,5.22,2.15,0.04,0.02,-0.15,-50.21,27.96,-0.54
17066,-8.82,5.02,2.08,0.07,0.07,-0.20,-50.21,27.96,-0.54
17077,-8.68,5.33,2.02,0.03,0.09,-0.10,-48.83,26.41,0.41
17088,-8.68,5.33,2.02,0.03,0.09,-0.10,-48.83,26.41,0.41
17099,-8.44,4.86,1.92,-0.01,0.13,-0.06,-48.83,26.41,0.41
17110,-8.44,4.86,1.92,-0.01,0.13,-0.06,-48.83,26.41,0.41
17121,-8.59,4.95,1.65,-0.06,0.14,-0.07,-48.83,26.41,0.41
17132,-8.59,4.95,1.65,-0.06,0.14,-0.07,-48.83,26.41,0.41
17143,-8.57,5.32,1.53,-0.10,0.09,-0.06,-48.83,26.41,0.41
17154,-8.57,5.32,1.53,-0.10,0.09,-0.06,-48.83,26.41,0.41
17165,-8.53,4.97,1.76,-0.15,0.04,-0.05,-48.83,26.41,0.41
17176,-8.53,4.97,1.76,-0.15,0.04,-0.05,-48.83,26.41,0.41
17187,-8.56,5.16,1.29,-0.22,0.09,-0.03,-48.83,26.41,0.41
17198,-8.59,4.57,1.95,-0.28,0.10,-0.00,-50.91,27.81,-1.97
17209,-8.59,4.57,1.95,-0.28,0.10,-0.00,-50.91,27.81,-1.97
17220,-8.37,4.60,1.93,-0.27,0.23,0.09,-50.91,27.81,-1.97
17231,-8.37,4.60,1.93,-0.27,0.23,0.09,-50.91,27.81,-1.97
17242,-8.51,5.43,0.94,-0.26,0.36,0.14,-50.91,27.81,-1.97
17253,-8.51,5.43,0.94,-0.26,0.36,0.14,-50.91,27.81,-1.97
17264,-8.16,5.30,1.50,-0.31,0.30,0.11,-50.91,27.81,-1.97
17275,-8.16,5.30,1.50,-0.31,0.30,0.11,-50.91,27.81,-1.97
17286,-8.04,5.42,1.74,-0.35,0.24,0.11,-50.91,27.81,-1.97
17297,-8.22,5.69,2.26,-0.29,0.16,0.12,-50.91,27.81,-1.97
17308,-8.22,5.69,2.26,-0.29,0.16,0.12,-50.91,27.81,-1.97
17319,-7.86,4.74,2.54,-0.21,0.14,0.09,-48.14,29.66,0.25
17330,-7.86,4.74,2.54,-0.21,0.14,0.09,-48.14,29.66,0.25
17341,-7.97,5.43,1.82,-0.16,0.17,0.15,-48.14,29.66,0.25
17352,-7.97,5.43,1.82,-0.16,0.17,0.15,-48.14,29.66,0.25
17363,-8.24,5.49,1.84,-0.16,0.12,0.12,-48.14,29.66,0.25
17374,-8.24,5.49,1.84,-0.16,0.12,0.12,-48.14,29.66,0.25
17385,-8.24,5.39,1.90,-0.06,0.17,0.20,-48.14,29.66,0.25
17396,-8.24,5.39,1.90,-0.06,0.17,0.20,-48.14,29.66,0.25
17407,-8.50,4.46,1.96,-0.09,0.11,0.17,-48.14,29.66,0.25
17418,-8.67,4.80,2.36,-0.05,0.08,0.25,-48.14,29.66,0.25
17429,-8.67,4.80,2.36,-0.05,0.08,0.25,-48.14,29.66,0.25
17440,-8.28,4.61,2.50,0.04,0.07,0.28,-48.14,29.66,0.25
17451,-8.28,4.61,2.50,0.04,0.07,0.28,-48.14,29.66,0.25
17462,-9.03,5.00,2.40,0.10,0.05,0.32,-48.60,28.12,1.51
17473,-9.03,5.00,2.40,0.10,0.05,0.32,-48.60,28.12,1.51
17484,-8.84,4.78,2.08,0.09,0.01,0.16,-48.60,28.12,1.51
17495,-8.84,4.78,2.08,0.09,0.01,0.16,-48.60,28.12,1.51
17511,-8.73,4.46,1.87,0.11,-0.03,0.06,-48.60,28.12,1.51
17517,-8.93,4.78,1.91,0.09,-0.05,0.05,-48.60,28.12,1.51
17528,-8.93,4.78,1.91,0.09,-0.05,0.05,-48.60,28.12,1.51
17539,-8.86,5.20,1.83,0.04,-0.09,-0.03,-48.60,28.12,1.51
17550,-8.86,5.20,1.83,0.04,-0.09,-0.03,-48.60,28.12,1.51
17561,-8.85,4.81,2.09,-0.09,-0.16,-0.18,-48.60,28.12,1.51
17572,-8.85,4.81,2.09,-0.09,-0.16,-0.18,-48.60,28.12,1.51
17584,-8.61,4.94,2.03,-0.16,-0.16,-0.23,-50.44,29.66,0.56
17594,-8.61,4.94,2.03,-0.16,-0.16,-0.23,-50.44,29.66,0.56
17605,-8.74,5.05,2.17,-0.22,-0.19,-0.24,-50.44,29.66,0.56
17616,-8.74,5.05,2.17,-0.22,-0.19,-0.24,-50.44,29.66,0.56
17627,-8.61,4.98,1.77,-0.24,-0.17,-0.25,-50.44,29.66,0.56
17638,-8.64,5.03,1.88,-0.18,-0.13,-0.20,-50.44,29.66,0.56
17649,-8.64,5.03,1.88,-0.18,-0.13,-0.20,-50.44,29.66,0.56
17660,-8.43,4.13,2.37,-0.20,-0.15,-0.24,-50.44,29.66,0.56
17671,-8.43,4.13,2.37,-0.20,-0.15,-0.24,-50.44,29.66,0.56
17682,-8.32,4.80,1.87,-0.22,-0.14,-0.21,-50.44,29.66,0.56
17693,-8.32,4.80,1.87,-0.22,-0.14,-0.21,-50.44,29.66,0.56
17704,-8.62,5.32,1.81,-0.19,-0.12,-0.18,-49.06,27.19,2.15
17715,-8.62,5.32,1.81,-0.19,-0.12,-0.18,-49.06,27.19,2.15
17726,-8.41,5.07,1.74,-0.20,-0.10,-0.16,-49.06,27.19,2.15
17737,-8.64,5.01,2.10,-0.20,-0.08,-0.16,-49.06,27.19,2.15
17748,-8.64,5.01,2.10,-0.20,-0.08,-0.16,-49.06,27.19,2.15
17759,-8.34,4.89,1.95,-0.20,-0.04,-0.14,-49.06,27.19,2.15
17770,-8.34,4.89,1.95,-0.20,-0.04,-0.14,-49.06,27.19,2.15
17781,-8.30,5.10,1.75,-0.26,-0.02,-0.09,-49.06,27.19,2.15
17792,-8.30,5.10,1.75,-0.26,-0.02,-0.09,-49.06,27.19,2.15
17803,-8.39,5.44,1.98,-0.29,0.02,-0.04,-49.06,27.19,2.15
17814,-8.39,5.44,1.98,-0.29,0.02,-0.04,-49.06,27.19,2.15
17825,-8.14,4.98,2.05,-0.32,0.02,-0.04,-49.06,27.19,2.15
17836,-8.14,4.98,2.05,-0.32,0.02,-0.04,-49.06,27.19,2.15
17847,-8.08,5.65,1.95,-0.32,0.06,0.02,-50.21,27.96,2.94
17858,-8.38,5.03,2.50,-0.32,0.07,0.03,-50.21,27.96,2.94
17869,-8.38,5.03,2.50,-0.32,0.07,0.03,-50.21,27.96,2.94
17880,-8.16,4.99,2.22,-0.33,0.15,0.10,-50.21,27.96,2.94
17891,-8.16,4.99,2.22,-0.33,0.15,0.10,-50.21,27.96,2.94
17902,-8.35,5.22,2.29,-0.26,0.21,0.13,-50.21,27.96,2.94
17913,-8.35,5.22,2.29,-0.26,0.21,0.13,-50.21,27.96,2.94
17924,-8.07,4.84,2.54,-0.22,0.24,0.13,-50.21,27.96,2.94
17935,-8.07,4.84,2.54,-0.22,0.24,0.13,-50.21,27.96,2.94
17946,-8.04,4.99,2.58,-0.20,0.24,0.16,-50.21,27.96,2.94
17957,-8.13,4.78,3.00,-0.14,0.21,0.17,-50.21,27.96,2.94
17968,-8.13,4.78,3.00,-0.14,0.21,0.17,-50.44,29.05,3.10
17979,-8.41,5.08,2.74,-0.05,0.21,0.18,-50.44,29.05,3.10
17990,-8.41,5.08,2.74,-0.05,0.21,0.18,-50.44,29.05,3.10
18001,-7.60,4.71,2.83,-0.03,0.15,0.15,-50.44,29.05,3.10
18012,-7.60,4.71,2.83,-0.03,0.15,0.15,-50.44,29.05,3.10
18023,-8.23,4.63,2.55,0.01,0.11,0.20,-50.44,29.05,3.10
18034,-8.23,4.63,2.55,0.01,0.11,0.20,-50.44,29.05,3.10
18045,-8.62,4.54,2.96,0.04,0.09,0.22,-50.44,29.05,3.10
18056,-8.62,4.54,2.96,0.04,0.09,0.22,-50.44,29.05,3.10
18067,-8.45,4.69,2.38,0.09,0.07,0.13,-50.44,29.05,3.10
18078,-8.50,4.23,2.55,0.12,0.00,0.06,-48.60,27.19,3.41
18089,-8.50,4.23,2.55,0.12,0.00,0.06,-48.60,27.19,3.41
18100,-8.67,3.95,2.55,0.13,-0.05,0.06,-48.60,27.19,3.41
18111,-8.67,3.95,2.55,0.13,-0.05,0.06,-48.60,27.19,3.41
18122,-9.02,4.29,2.19,0.12,-0.03,0.04,-48.60,27.19,3.41
18133,-9.02,4.29,2.19,0.12,-0.03,0.04,-48.60,27.19,3.41
18144,-8.99,4.26,1.77,0.10,-0.01,0.01,-48.60,27.19,3.41
18155,-8.99,4.26,1.77,0.10,-0.01,0.01,-48.60,27.19,3.41
18166,-8.98,4.59,2.17,-0.06,-0.12,-0.10,-48.60,27.19,3.41
18177,-8.98,4.59,2.17,-0.06,-0.12,-0.10,-48.60,27.19,3.41
18189,-8.80,4.42,2.29,-0.18,-0.17,-0.22,-48.60,27.19,3.41
18199,-8.32,4.77,1.87,-0.18,-0.09,-0.22,-48.60,27.19,3.41
18210,-8.32,4.77,1.87,-0.18,-0.09,-0.22,-48.60,27.19,3.41
18221,-8.72,4.48,1.85,-0.11,-0.06,-0.21,-48.37,27.65,2.94
18232,-8.72,4.48,1.85,-0.11,-0.06,-0.21,-48.37,27.65,2.94
18243,-8.82,3.74,2.83,-0.09,-0.08,-0.22,-48.37,27.65,2.94
18254,-8.82,3.74,2.83,-0.09,-0.08,-0.22,-48.37,27.65,2.94
18265,-8.39,4.06,2.07,-0.17,-0.05,-0.18,-48.37,27.65,2.94
18276,-8.39,4.06,2.07,-0.17,-0.05,-0.18,-48.37,27.65,2.94
18287,-8.49,3.85,2.32,-0.18,-0.06,-0.18,-48.37,27.65,2.94
18298,-8.55,5.18,2.13,-0.24,-0.09,-0.13,-48.37,27.65,2.94
18309,-8.55,5.18,2.13,-0.24,-0.09,-0.13,-48.37,27.65,2.94
18320,-8.51,5.27,2.12,-0.26,-0.10,-0.13,-48.37,27.65,2.94
18331,-8.51,5.27,2.12,-0.26,-0.10,-0.13,-48.37,27.65,2.94
18342,-8.51,5.24,1.59,-0.22,-0.01,-0.06,-47.68,25.33,5.63
18353,-8.51,5.24,1.59,-0.22,-0.01,-0.06,-47.68,25.33,5.63
18364,-8.42,4.95,1.87,-0.28,-0.02,-0.05,-47.68,25.33,5.63
18375,-8.42,4.95,1.87,-0.28,-0.02,-0.05,-47.68,25.33,5.63
18386,-8.16,4.30,2.06,-0.29,0.00,-0.03,-47.68,25.33,5.63
18397,-8.16,4.30,2.06,-0.29,0.00,-0.03,-47.68,25.33,5.63
18408,-8.10,5.15,2.22,-0.34,-0.03,0.02,-47.68,25.33,5.63
18419,-8.05,5.25,2.53,-0.34,-0.03,0.02,-47.68,25.33,5.63
18430,-8.05,5.25,2.53,-0.34,-0.03,0.02,-47.68,25.33,5.63
18441,-8.69,4.65,3.32,-0.28,0.05,0.07,-47.68,25.33,5.63
18452,-8.69,4.65,3.32,-0.28,0.05,0.07,-47.68,25.33,5.63
18463,-8.46,4.59,2.47,-0.24,0.20,0.12,-49.06,27.50,5.95
18474,-8.46,4.59,2.47,-0.24,0.20,0.12,-49.06,27.50,5.95
18485,-8.23,4.93,1.92,-0.22,0.24,0.15,-49.06,27.50,5.95
18496,-8.23,4.93,1.92,-0.22,0.24,0.15,-49.06,27.50,5.95
18507,-8.10,5.28,2.31,-0.21,0.20,0.16,-49.06,27.50,5.95
18518,-8.26,4.92,2.95,-0.16,0.20,0.14,-49.06,27.50,5.95
18529,-8.26,4.92,2.95,-0.16,0.20,0.14,-49.06,27.50,5.95
18540,-8.01,4.65,2.42,-0.11,0.22,0.14,-49.06,27.50,5.95
18551,-8.01,4.65,2.42,-0.11,0.22,0.14,-49.06,27.50,5.95
18562,-8.34,4.44,2.93,-0.09,0.17,0.15,-49.06,27.50,5.95
18573,-8.34,4.44,2.93,-0.09,0.17,0.15,-49.06,27.50,5.95
18584,-8.46,4.31,3.65,-0.09,0.10,0.14,-49.06,27.50,5.95
18595,-8.46,4.31,3.65,-0.09,0.10,0.14,-49.06,27.50,5.95
18606,-8.53,4.38,3.32,0.01,0.12,0.17,-45.83,27.19,6.26
18617,-8.53,4.38,3.32,0.01,0.12,0.17,-45.83,27.19,6.26
18628,-8.64,4.86,2.97,0.02,0.08,0.15,-45.83,27.19,6.26
18639,-8.73,4.73,2.90,0.06,0.06,0.14,-45.83,27.19,6.26
18650,-8.73,4.73,2.90,0.06,0.06,0.14,-45.83,27.19,6.26
18661,-8.66,4.23,2.67,0.10,0.03,0.11,-45.83,27.19,6.26
18672,-8.66,4.23,2.67,0.10,0.03,0.11,-45.83,27.19,6.26
18683,-8.92,4.25,2.47,0.10,-0.00,0.06,-45.83,27.19,6.26
18694,-8.92,4.25,2.47,0.10,-0.00,0.06,-45.83,27.19,6.26
18705,-8.91,3.80,2.39,0.08,-0.05,-0.00,-45.83,27.19,6.26
18716,-8.91,3.80,2.39,0.08,-0.05,-0.00,-45.83,27.19,6.26
18727,-8.98,3.45,2.45,0.08,-0.04,0.01,-46.29,28.12,5.31
18738,-8.96,4.31,2.15,0.03,-0.06,-0.01,-46.29,28.12,5.31
18749,-8.96,4.31,2.15,0.03,-0.06,-0.01,-46.29,28.12,5.31
18760,-8.97,3.92,2.81,-0.08,-0.19,-0.21,-46.29,28.12,5.31
18771,-8.97,3.92,2.81,-0.08,-0.19,-0.21,-46.29,28.12,5.31
18782,-8.86,3.89,2.69,-0.09,-0.13,-0.24,-46.29,28.12,5.31
18793,-8.86,3.89,2.69,-0.09,-0.13,-0.24,-46.29,28.12,5.31
18804,-8.72,3.72,2.89,-0.10,-0.09,-0.23,-46.29,28.12,5.31
18815,-8.72,3.72,2.89,-0.10,-0.09,-0.23,-46.29,28.12,5.31
18826,-8.52,4.97,2.12,-0.13,-0.05,-0.16,-46.29,28.12,5.31
18837,-8.52,4.97,2.12,-0.13,-0.05,-0.16,-46.29,28.12,5.31
18848,-8.66,4.38,2.51,-0.10,-0.03,-0.13,-48.83,27.34,5.79
18859,-8.52,4.87,1.78,-0.14,-0.00,-0.13,-48.83,27.34,5.79
18870,-8.52,4.87,1.78,-0.14,-0.00,-0.13,-48.83,27.34,5.79
18881,-8.67,5.34,2.20,-0.12,-0.03,-0.08,-48.83,27.34,5.79
18892,-8.67,5.34,2.20,-0.12,-0.03,-0.08,-48.83,27.34,5.79
18903,-8.39,5.15,2.40,-0.16,-0.03,-0.07,-48.83,27.34,5.79
18914,-8.39,5.15,2.40,-0.16,-0.03,-0.07,-48.83,27.34,5.79
18925,-8.38,4.20,2.83,-0.20,-0.08,-0.14,-48.83,27.34,5.79
18936,-8.38,4.20,2.83,-0.20,-0.08,-0.14,-48.83,27.34,5.79
18947,-8.53,4.84,2.52,-0.19,-0.01,-0.06,-48.83,27.34,5.79
18958,-8.36,4.82,2.53,-0.23,-0.00,-0.05,-48.83,27.34,5.79
18969,-8.36,4.82,2.53,-0.23,-0.00,-0.05,-49.52,27.81,5.95
18980,-8.20,4.40,2.68,-0.24,0.01,-0.04,-49.52,27.81,5.95
18991,-8.20,4.40,2.68,-0.24,0.01,-0.04,-49.52,27.81,5.95
19002,-8.54,4.93,2.43,-0.21,0.05,-0.00,-49.52,27.81,5.95
19018,-8.54,4.93,2.43,-0.21,0.05,-0.00,-49.52,27.81,5.95
19024,-8.34,5.06,2.29,-0.24,0.03,-0.01,-49.52,27.81,5.95
19035,-8.34,5.06,2.29,-0.24,0.03,-0.01,-49.52,27.81,5.95
19046,-8.11,4.70,1.93,-0.26,0.06,0.00,-49.52,27.81,5.95
19057,-8.11,4.70,1.93,-0.26,0.06,0.00,-49.52,27.81,5.95
19068,-8.35,5.06,2.41,-0.23,0.09,0.06,-49.52,27.81,5.95
19079,-8.10,5.25,2.09,-0.25,0.12,0.09,-49.52,27.81,5.95
19090,-8.10,5.25,2.09,-0.25,0.12,0.09,-49.52,27.81,5.95
19101,-8.36,4.91,3.04,-0.20,0.15,0.15,-48.37,23.94,8.96
19112,-8.36,4.91,3.04,-0.20,0.15,0.15,-48.37,23.94,8.96
19123,-7.97,4.13,3.05,-0.17,0.20,0.14,-48.37,23.94,8.96
19134,-7.97,4.13,3.05,-0.17,0.20,0.14,-48.37,23.94,8.96
19145,-8.08,4.88,2.83,-0.12,0.20,0.17,-48.37,23.94,8.96
19157,-8.08,4.88,2.83,-0.12,0.20,0.17,-48.37,23.94,8.96
19167,-8.47,4.54,3.56,-0.08,0.13,0.16,-48.37,23.94,8.96
19178,-8.47,4.54,3.56,-0.08,0.13,0.16,-48.37,23.94,8.96
19189,-8.52,3.70,3.53,-0.06,0.11,0.15,-48.37,23.94,8.96
19200,-8.63,4.45,2.99,-0.02,0.11,0.18,-48.37,23.94,8.96
19211,-8.63,4.45,2.99,-0.02,0.11,0.18,-48.37,23.94,8.96
19222,-8.77,4.16,3.03,0.02,0.05,0.18,-49.75,27.03,9.27
19233,-8.77,4.16,3.03,0.02,0.05,0.18,-49.75,27.03,9.27
19244,-8.23,3.61,2.87,0.08,0.07,0.18,-49.75,27.03,9.27
19255,-8.23,3.61,2.87,0.08,0.07,0.18,-49.75,27.03,9.27
19266,-8.66,4.04,2.60,0.11,0.04,0.20,-49.75,27.03,9.27
19277,-8.66,4.04,2.60,0.11,0.04,0.20,-49.75,27.03,9.27
19288,-9.24,4.25,2.76,0.11,-0.02,0.16,-49.75,27.03,9.27
19299,-9.04,3.52,3.01,0.11,-0.05,0.07,-49.75,27.03,9.27
19315,-9.04,3.52,3.01,0.11,-0.05,0.07,-49.75,27.03,9.27
19321,-8.81,3.28,2.59,0.11,-0.02,0.07,-49.75,27.03,9.27
19332,-8.81,3.28,2.59,0.11,-0.02,0.07,-49.75,27.03,9.27
19343,-9.38,4.67,2.51,0.08,-0.00,0.13,-45.37,26.26,6.90
19354,-9.38,4.67,2.51,0.08,-0.00,0.13,-45.37,26.26,6.90
19365,-8.81,5.05,2.70,-0.10,-0.14,-0.13,-45.37,26.26,6.90
19376,-8.81,5.05,2.70,-0.10,-0.14,-0.13,-45.37,26.26,6.90
19387,-8.57,4.20,2.92,-0.08,-0.14,-0.26,-45.37,26.26,6.90
19398,-8.57,4.20,2.92,-0.08,-0.14,-0.26,-45.37,26.26,6.90
19409,-8.64,4.20,2.45,-0.06,-0.06,-0.19,-45.37,26.26,6.90
19420,-8.69,3.81,2.92,-0.06,-0.06,-0.20,-45.37,26.26,6.90
19431,-8.69,3.81,2.92,-0.06,-0.06,-0.20,-45.37,26.26,6.90
19442,-8.54,4.95,2.01,-0.09,-0.02,-0.14,-45.37,26.26,6.90
19453,-8.54,4.95,2.01,-0.09,-0.02,-0.14,-45.37,26.26,6.90
19464,-8.49,4.56,2.31,-0.08,-0.03,-0.16,-45.37,26.26,6.90
19475,-8.49,4.56,2.31,-0.08,-0.03,-0.16,-45.37,26.26,6.90
19486,-8.36,4.15,2.10,-0.07,-0.01,-0.14,-47.21,26.57,8.16
19497,-8.36,4.15,2.10,-0.07,-0.01,-0.14,-47.21,26.57,8.16
19508,-8.60,5.48,2.41,-0.13,-0.04,-0.08,-47.21,26.57,8.16
19519,-8.49,4.68,2.42,-0.13,-0.05,-0.12,-47.21,26.57,8.16
19530,-8.49,4.68,2.42,-0.13,-0.05,-0.12,-47.21,26.57,8.16
19541,-8.32,5.10,2.22,-0.17,-0.07,-0.07,-47.21,26.57,8.16
19552,-8.32,5.10,2.22,-0.17,-0.07,-0.07,-47.21,26.57,8.16
19563,-8.45,4.81,2.83,-0.18,-0.06,-0.08,-47.21,26.57,8.16
19574,-8.45,4.81,2.83,-0.18,-0.06,-0.08,-47.21,26.57,8.16
19585,-8.44,4.75,2.86,-0.20,-0.05,-0.09,-47.21,26.57,8.16
19596,-8.44,4.75,2.86,-0.20,-0.05,-0.09,-47.21,26.57,8.16
19607,-8.21,4.77,3.05,-0.19,-0.11,-0.09,-50.21,24.87,8.96
19618,-8.21,4.77,3.05,-0.19,-0.11,-0.09,-50.21,24.87,8.96
19629,-8.27,4.34,3.51,-0.16,-0.10,-0.06,-50.21,24.87,8.96
19640,-8.53,4.65,2.95,-0.14,0.04,0.01,-50.21,24.87,8.96
19651,-8.53,4.65,2.95,-0.14,0.04,0.01,-50.21,24.87,8.96
19662,-8.48,4.47,2.59,-0.13,0.06,0.02,-50.21,24.87,8.96
19673,-8.48,4.47,2.59,-0.13,0.06,0.02,-50.21,24.87,8.96
19684,-8.69,4.47,3.05,-0.11,0.08,0.10,-50.21,24.87,8.96
19695,-8.69,4.47,3.05,-0.11,0.08,0.10,-50.21,24.87,8.96
19706,-8.16,4.44,2.44,-0.09,0.15,0.12,-50.21,24.87,8.96
19717,-8.16,4.44,2.44,-0.09,0.15,0.12,-50.21,24.87,8.96
19728,-8.28,4.26,2.79,-0.09,0.13,0.10,-48.14,25.33,7.85
19739,-8.22,4.65,2.54,-0.09,0.12,0.13,-48.14,25.33,7.85
19750,-8.22,4.65,2.54,-0.09,0.12,0.13,-48.14,25.33,7.85
19761,-8.56,4.41,3.13,-0.07,0.09,0.15,-48.14,25.33,7.85
19772,-8.56,4.41,3.13,-0.07,0.09,0.15,-48.14,25.33,7.85
19783,-8.22,4.23,2.77,-0.05,0.09,0.14,-48.14,25.33,7.85
19794,-8.22,4.23,2.77,-0.05,0.09,0.14,-48.14,25.33,7.85
19805,-8.24,4.28,2.84,-0.01,0.07,0.15,-48.14,25.33,7.85
19816,-8.24,4.28,2.84,-0.01,0.07,0.15,-48.14,25.33,7.85
19827,-8.44,4.15,3.09,0.03,0.03,0.14,-48.14,25.33,7.85
19838,-8.44,4.15,3.09,0.03,0.03,0.14,-48.14,25.33,7.85
19849,-8.83,4.59,3.10,0.08,0.02,0.16,-48.14,25.33,7.85
19860,-8.40,3.48,3.35,0.10,-0.02,0.12,-49.06,27.81,8.48
19871,-8.40,3.48,3.35,0.10,-0.02,0.12,-49.06,27.81,8.48
19882,-8.74,3.83,3.22,0.17,0.00,0.21,-49.06,27.81,8.48
19893,-8.74,3.83,3.22,0.17,0.00,0.21,-49.06,27.81,8.48
19904,-9.03,4.44,3.19,0.21,0.00,0.20,-49.06,27.81,8.48
19915,-9.03,4.44,3.19,0.21,0.00,0.20,-49.06,27.81,8.48
19926,-8.68,3.72,2.87,0.16,-0.02,0.08,-49.06,27.81,8.48
19937,-8.68,3.72,2.87,0.16,-0.02,0.08,-49.06,27.81,8.48
19948,-8.70,3.81,2.74,0.14,-0.02,0.11,-49.06,27.81,8.48
19959,-8.91,4.79,2.74,0.08,-0.03,0.10,-49.06,27.81,8.48
19970,-8.91,4.79,2.74,0.08,-0.03,0.10,-49.06,27.81,8.48
19981,-8.90,4.44,3.17,-0.04,-0.07,-0.06,-45.14,27.34,9.59
19993,-8.90,4.44,3.17,-0.04,-0.07,-0.06,-45.14,27.34,9.59
20003,-8.69,4.42,2.77,-0.13,-0.06,-0.19,-45.14,27.34,9.59
20014,-8.69,4.42,2.77,-0.13,-0.06,-0.19,-45.14,27.34,9.59
20025,-8.78,4.01,2.77,-0.12,-0.04,-0.25,-45.14,27.34,9.59
20036,-8.78,4.01,2.77,-0.12,-0.04,-0.25,-45.14,27.34,9.59
20047,-8.72,3.76,2.57,-0.18,-0.06,-0.26,-45.14,27.34,9.59
20058,-8.72,3.76,2.57,-0.18,-0.06,-0.26,-45.14,27.34,9.59
20069,-8.78,4.08,3.04,-0.16,-0.05,-0.22,-45.14,27.34,9.59
20080,-8.64,4.18,2.54,-0.11,-0.01,-0.20,-45.14,27.34,9.59
20091,-8.64,4.18,2.54,-0.11,-0.01,-0.20,-45.14,27.34,9.59
20102,-8.81,4.33,2.59,-0.10,0.01,-0.18,-51.83,26.88,9.11
20113,-8.81,4.33,2.59,-0.10,0.01,-0.18,-51.83,26.88,9.11
20124,-8.51,4.29,2.41,-0.13,-0.00,-0.15,-51.83,26.88,9.11
20135,-8.51,4.29,2.41,-0.13,-0.00,-0.15,-51.83,26.88,9.11
20146,-8.52,4.04,2.86,-0.19,-0.06,-0.17,-51.83,26.88,9.11
20157,-8.52,4.04,2.86,-0.19,-0.06,-0.17,-51.83,26.88,9.11
20168,-8.40,4.08,2.44,-0.23,-0.04,-0.13,-51.83,26.88,9.11
20179,-8.40,4.08,2.44,-0.23,-0.04,-0.13,-51.83,26.88,9.11
20190,-8.50,4.30,2.51,-0.19,-0.02,-0.10,-51.83,26.88,9.11
20201,-8.45,4.39,2.63,-0.22,-0.04,-0.10,-51.83,26.88,9.11
20212,-8.45,4.39,2.63,-0.22,-0.04,-0.10,-51.83,26.88,9.11
20223,-8.52,4.69,2.81,-0.22,-0.02,-0.08,-47.68,25.02,10.70
20234,-8.52,4.69,2.81,-0.22,-0.02,-0.08,-47.68,25.02,10.70
20245,-8.35,4.44,2.47,-0.26,0.02,-0.08,-47.68,25.02,10.70
20256,-8.35,4.44,2.47,-0.26,0.02,-0.08,-47.68,25.02,10.70
20267,-8.69,4.86,2.50,-0.23,0.08,-0.01,-47.68,25.02,10.70
20278,-8.69,4.86,2.50,-0.23,0.08,-0.01,-47.68,25.02,10.70
20289,-8.44,3.60,2.92,-0.22,0.09,0.01,-47.68,25.02,10.70
20300,-8.07,4.80,2.95,-0.30,0.12,0.11,-47.68,25.02,10.70
20311,-8.07,4.80,2.95,-0.30,0.12,0.11,-47.68,25.02,10.70
20322,-8.29,4.11,3.86,-0.23,0.16,0.12,-47.68,25.02,10.70
20333,-8.29,4.11,3.86,-0.23,0.16,0.12,-47.68,25.02,10.70
20344,-7.96,3.65,3.35,-0.13,0.16,0.14,-47.68,25.02,10.70
20355,-7.96,3.65,3.35,-0.13,0.16,0.14,-47.68,25.02,10.70
20366,-8.11,3.92,3.41,-0.08,0.11,0.19,-47.21,24.09,11.01
20377,-8.11,3.92,3.41,-0.08,0.11,0.19,-47.21,24.09,11.01
20388,-8.25,3.88,3.73,-0.00,0.07,0.21,-47.21,24.09,11.01
20399,-8.25,3.88,3.73,-0.00,0.07,0.21,-47.21,24.09,11.01
20410,-8.62,4.19,3.31,0.07,0.08,0.20,-47.21,24.09,11.01
20421,-8.66,3.62,3.27,0.11,0.04,0.17,-47.21,24.09,11.01
20432,-8.66,3.62,3.27,0.11,0.04,0.17,-47.21,24.09,11.01
20443,-8.93,3.72,3.59,0.16,0.02,0.23,-47.21,24.09,11.01
20454,-8.93,3.72,3.59,0.16,0.02,0.23,-47.21,24.09,11.01
20465,-9.03,4.20,3.41,0.13,-0.02,0.18,-47.21,24.09,11.01
20476,-9.03,4.20,3.41,0.13,-0.02,0.18,-47.21,24.09,11.01
20487,-8.69,3.11,3.71,0.13,-0.06,0.06,-46.75,25.02,11.33
20498,-8.69,3.11,3.71,0.13,-0.06,0.06,-46.75,25.02,11.33
20509,-8.88,3.56,3.12,0.17,-0.01,0.06,-46.75,25.02,11.33
20520,-8.84,3.69,2.67,0.19,0.01,0.06,-46.75,25.02,11.33
20531,-8.84,3.69,2.67,0.19,0.01,0.06,-46.75,25.02,11.33
20542,-8.74,3.56,2.61,0.17,0.00,0.09,-46.75,25.02,11.33
20553,-8.74,3.56,2.61,0.17,0.00,0.09,-46.75,25.02,11.33
20564,-9.23,4.75,3.07,0.01,-0.09,0.03,-46.75,25.02,11.33
20575,-9.23,4.75,3.07,0.01,-0.09,0.03,-46.75,25.02,11.33
20586,-8.61,3.74,2.89,-0.08,-0.10,-0.16,-46.75,25.02,11.33
20598,-8.61,3.74,2.89,-0.08,-0.10,-0.16,-46.75,25.02,11.33
20608,-8.75,3.87,3.05,-0.11,-0.06,-0.18,-46.98,26.72,10.22
20619,-8.75,3.87,3.05,-0.11,-0.06,-0.18,-46.98,26.72,10.22
20630,-8.62,4.02,2.67,-0.09,-0.03,-0.14,-46.98,26.72,10.22
20641,-8.69,3.91,2.47,-0.11,-0.02,-0.14,-46.98,26.72,10.22
20652,-8.69,3.91,2.47,-0.11,-0.02,-0.14,-46.98,26.72,10.22
20663,-8.58,4.37,2.49,-0.13,-0.01,-0.14,-46.98,26.72,10.22
20674,-8.58,4.37,2.49,-0.13,-0.01,-0.14,-46.98,26.72,10.22
20685,-8.48,4.53,2.47,-0.10,-0.01,-0.15,-46.98,26.72,10.22
20696,-8.48,4.53,2.47,-0.10,-0.01,-0.15,-46.98,26.72,10.22
20707,-8.60,4.45,2.46,-0.08,-0.01,-0.14,-46.98,26.72,10.22
20718,-8.60,4.45,2.46,-0.08,-0.01,-0.14,-46.98,26.72,10.22
20729,-8.58,4.32,2.34,-0.10,0.01,-0.13,-46.98,26.72,10.22
20740,-8.49,4.84,2.18,-0.12,0.03,-0.08,-49.98,26.57,11.96
20751,-8.49,4.84,2.18,-0.12,0.03,-0.08,-49.98,26.57,11.96
20762,-8.35,4.55,2.64,-0.15,-0.01,-0.06,-49.98,26.57,11.96
20773,-8.35,4.55,2.64,-0.15,-0.01,-0.06,-49.98,26.57,11.96
20784,-8.55,4.94,2.71,-0.25,-0.03,-0.04,-49.98,26.57,11.96
20795,-8.55,4.94,2.71,-0.25,-0.03,-0.04,-49.98,26.57,11.96
20806,-8.52,4.22,2.89,-0.25,0.06,-0.02,-49.98,26.57,11.96
20817,-8.52,4.22,2.89,-0.25,0.06,-0.02,-49.98,26.57,11.96
20828,-8.62,4.76,2.83,-0.21,0.16,0.11,-49.98,26.57,11.96
20839,-8.62,4.76,2.83,-0.21,0.16,0.11,-49.98,26.57,11.96
20850,-7.99,5.00,2.57,-0.22,0.16,0.13,-49.98,26.57,11.96
20861,-7.94,4.01,3.32,-0.19,0.12,0.09,-46.75,25.02,11.33
20872,-7.94,4.01,3.32,-0.19,0.12,0.09,-46.75,25.02,11.33
20883,-8.32,4.66,3.29,-0.16,0.12,0.15,-46.75,25.02,11.33
20894,-8.32,4.66,3.29,-0.16,0.12,0.15,-46.75,25.02,11.33
20905,-8.52,4.12,3.94,-0.11,0.06,0.11,-46.75,25.02,11.33
20916,-8.52,4.12,3.94,-0.11,0.06,0.11,-46.75,25.02,11.33
20927,-8.63,3.96,3.89,-0.09,0.08,0.10,-46.75,25.02,11.33
20938,-8.63,3.96,3.89,-0.09,0.08,0.10,-46.75,25.02,11.33
20949,-7.95,4.36,3.19,-0.06,0.09,0.12,-46.75,25.02,11.33
20960,-8.33,4.22,3.25,0.00,0.09,0.11,-46.75,25.02,11.33
20971,-8.33,4.22,3.25,0.00,0.09,0.11,-46.75,25.02,11.33
20982,-8.56,3.91,3.53,0.02,0.05,0.10,-48.14,25.02,11.96
20993,-8.56,3.91,3.53,0.02,0.05,0.10,-48.14,25.02,11.96
21004,-8.86,4.27,2.97,0.05,0.05,0.08,-48.14,25.02,11.96
21015,-8.86,4.27,2.97,0.05,0.05,0.08,-48.14,25.02,11.96
21026,-8.57,3.25,3.32,0.08,0.02,0.03,-48.14,25.02,11.96
21037,-8.57,3.25,3.32,0.08,0.02,0.03,-48.14,25.02,11.96
21048,-8.49,3.26,2.88,0.13,0.01,0.06,-48.14,25.02,11.96
21059,-8.49,3.26,2.88,0.13,0.01,0.06,-48.14,25.02,11.96
21070,-9.04,3.63,3.17,0.20,0.02,0.11,-48.14,25.02,11.96
21081,-8.96,3.27,2.74,0.18,0.03,0.05,-48.14,25.02,11.96
21092,-8.96,3.27,2.74,0.18,0.03,0.05,-48.14,25.02,11.96
21103,-8.83,3.76,2.42,0.13,0.03,0.09,-48.14,25.02,11.96
21114,-8.83,3.76,2.42,0.13,0.03,0.09,-48.14,25.02,11.96
21125,-9.20,5.42,3.09,-0.01,-0.06,0.02,-50.68,26.41,11.17
21136,-9.20,5.42,3.09,-0.01,-0.06,0.02,-50.68,26.41,11.17
21147,-8.84,3.18,3.40,-0.02,-0.07,-0.22,-50.68,26.41,11.17
21158,-8.84,3.18,3.40,-0.02,-0.07,-0.22,-50.68,26.41,11.17
21169,-8.92,2.55,3.80,-0.03,-0.03,-0.20,-50.68,26.41,11.17
21180,-8.92,2.55,3.80,-0.03,-0.03,-0.20,-50.68,26.41,11.17
21191,-8.70,3.36,3.05,-0.05,-0.00,-0.14,-50.68,26.41,11.17
21202,-8.66,3.64,2.68,-0.03,0.02,-0.10,-50.68,26.41,11.17
21213,-8.66,3.64,2.68,-0.03,0.02,-0.10,-50.68,26.41,11.17
21225,-8.64,3.38,3.01,-0.04,0.01,-0.08,-50.68,26.41,11.17
21235,-8.64,3.38,3.01,-0.04,0.01,-0.08,-50.68,26.41,11.17
21246,-8.61,3.80,3.02,-0.07,-0.00,-0.07,-46.75,26.88,11.65
21257,-8.61,3.80,3.02,-0.07,-0.00,-0.07,-46.75,26.88,11.65
21268,-8.70,4.44,2.32,-0.09,0.01,-0.06,-46.75,26.88,11.65
21279,-8.70,4.44,2.32,-0.09,0.01,-0.06,-46.75,26.88,11.65
21290,-8.74,3.97,2.64,-0.12,0.01,-0.07,-46.75,26.88,11.65
21301,-8.67,4.67,2.05,-0.19,0.03,-0.02,-46.75,26.88,11.65
21312,-8.67,4.67,2.05,-0.19,0.03,-0.02,-46.75,26.88,11.65
21323,-8.77,4.60,2.76,-0.20,0.02,-0.03,-46.75,26.88,11.65
21334,-8.77,4.60,2.76,-0.20,0.02,-0.03,-46.75,26.88,11.65
21345,-8.55,4.80,2.57,-0.27,0.07,-0.01,-46.75,26.88,11.65
21356,-8.55,4.80,2.57,-0.27,0.07,-0.01,-46.75,26.88,11.65
21367,-8.58,4.72,2.24,-0.27,0.11,0.03,-47.68,25.64,11.65
21378,-8.58,4.72,2.24,-0.27,0.11,0.03,-47.68,25.64,11.65
21389,-8.62,4.86,2.66,-0.26,0.14,0.07,-47.68,25.64,11.65
21400,-8.62,4.86,2.66,-0.26,0.14,0.07,-47.68,25.64,11.65
21411,-8.06,4.49,2.90,-0.32,0.11,0.06,-47.68,25.64,11.65
21422,-8.15,4.83,3.27,-0.24,0.20,0.16,-47.68,25.64,11.65
21433,-8.15,4.83,3.27,-0.24,0.20,0.16,-47.68,25.64,11.65
21444,-7.99,4.31,3.18,-0.16,0.21,0.17,-47.68,25.64,11.65
21455,-7.99,4.31,3.18,-0.16,0.21,0.17,-47.68,25.64,11.65
21466,-8.13,4.12,3.59,-0.18,0.08,0.14,-47.68,25.64,11.65
21477,-8.13,4.12,3.59,-0.18,0.08,0.14,-47.68,25.64,11.65
21488,-8.10,3.88,3.69,-0.11,0.05,0.16,-47.68,25.64,11.65
21499,-8.10,3.88,3.69,-0.11,0.05,0.16,-47.68,25.64,11.65
21510,-8.99,4.12,3.91,-0.01,0.09,0.22,-47.21,25.64,11.96
21521,-8.17,4.19,2.93,0.02,0.06,0.18,-47.21,25.64,11.96
21532,-8.17,4.19,2.93,0.02,0.06,0.18,-47.21,25.64,11.96
21543,-8.47,3.43,3.13,0.10,0.05,0.20,-47.21,25.64,11.96
21554,-8.47,3.43,3.13,0.10,0.05,0.20,-47.21,25.64,11.96
21565,-8.58,4.03,3.16,0.05,-0.00,0.14,-47.21,25.64,11.96
21576,-8.58,4.03,3.16,0.05,-0.00,0.14,-47.21,25.64,11.96
21587,-8.67,3.94,3.72,0.06,-0.03,0.04,-47.21,25.64,11.96
21598,-8.67,3.94,3.72,0.06,-0.03,0.04,-47.21,25.64,11.96
21609,-8.73,3.13,3.30,0.09,-0.01,0.00,-47.21,25.64,11.96
21620,-8.73,3.13,3.30,0.09,-0.01,0.00,-47.21,25.64,11.96
21636,-8.96,3.16,2.98,0.11,0.00,-0.00,-47.91,25.80,12.12
21642,-8.80,2.82,2.66,0.21,0.05,0.03,-47.91,25.80,12.12
21653,-8.80,2.82,2.66,0.21,0.05,0.03,-47.91,25.80,12.12
21664,-9.19,4.17,2.53,0.21,0.03,0.17,-47.91,25.80,12.12
21675,-9.19,4.17,2.53,0.21,0.03,0.17,-47.91,25.80,12.12
21686,-8.98,4.11,2.79,-0.00,-0.10,-0.05,-47.91,25.80,12.12
21697,-8.98,4.11,2.79,-0.00,-0.10,-0.05,-47.91,25.80,12.12
21708,-8.59,3.01,3.18,-0.04,-0.08,-0.23,-47.91,25.80,12.12
21719,-8.59,3.01,3.18,-0.04,-0.08,-0.23,-47.91,25.80,12.12
21730,-8.80,3.62,2.74,-0.02,-0.05,-0.15,-47.91,25.80,12.12
21741,-8.97,4.15,2.93,-0.04,-0.06,-0.15,-48.14,25.64,11.96
21752,-8.97,4.15,2.93,-0.04,-0.06,-0.15,-48.14,25.64,11.96
21763,-8.75,3.73,2.87,-0.08,-0.04,-0.19,-48.14,25.64,11.96
21774,-8.75,3.73,2.87,-0.08,-0.04,-0.19,-48.14,25.64,11.96
21785,-8.59,4.61,2.22,-0.09,-0.02,-0.12,-48.14,25.64,11.96
21796,-8.59,4.61,2.22,-0.09,-0.02,-0.12,-48.14,25.64,11.96
21807,-8.50,4.07,2.72,-0.10,-0.01,-0.10,-48.14,25.64,11.96
21818,-8.50,4.07,2.72,-0.10,-0.01,-0.10,-48.14,25.64,11.96
21829,-8.56,4.42,2.10,-0.18,0.03,-0.04,-48.14,25.64,11.96
21840,-8.56,4.42,2.10,-0.18,0.03,-0.04,-48.14,25.64,11.96
21852,-8.61,4.87,2.85,-0.22,0.05,-0.03,-48.14,25.64,11.96
21862,-8.32,4.77,2.03,-0.24,0.07,0.00,-46.98,25.49,13.39
21873,-8.32,4.77,2.03,-0.24,0.07,0.00,-46.98,25.49,13.39
21884,-8.37,4.72,2.81,-0.26,0.09,0.06,-46.98,25.49,13.39
21895,-8.37,4.72,2.81,-0.26,0.09,0.06,-46.98,25.49,13.39
21906,-8.48,5.04,3.02,-0.28,0.13,0.11,-46.98,25.49,13.39
21917,-8.48,5.04,3.02,-0.28,0.13,0.11,-46.98,25.49,13.39
21928,-8.53,5.04,3.10,-0.28,0.13,0.15,-46.98,25.49,13.39
21939,-8.53,5.04,3.10,-0.28,0.13,0.15,-46.98,25.49,13.39
21950,-8.35,4.88,3.41,-0.22,0.22,0.18,-46.98,25.49,13.39
21961,-8.33,3.99,4.15,-0.11,0.24,0.15,-46.98,25.49,13.39
21972,-8.33,3.99,4.15,-0.11,0.24,0.15,-46.98,25.49,13.39
21983,-8.40,4.51,3.65,-0.10,0.18,0.19,-46.98,25.49,13.39
21994,-8.40,4.51,3.65,-0.10,0.18,0.19,-46.98,25.49,13.39
22005,-8.75,3.94,3.40,-0.04,0.12,0.18,-46.98,25.18,12.44
22016,-8.75,3.94,3.40,-0.04,0.12,0.18,-46.98,25.18,12.44
22027,-8.73,3.75,3.34,0.02,0.10,0.18,-46.98,25.18,12.44
22038,-8.73,3.75,3.34,0.02,0.10,0.18,-46.98,25.18,12.44
22049,-8.17,4.00,2.72,0.05,0.05,0.18,-46.98,25.18,12.44
22060,-8.17,4.00,2.72,0.05,0.05,0.18,-46.98,25.18,12.44
22071,-9.09,3.75,3.27,0.09,0.02,0.17,-46.98,25.18,12.44
22082,-8.70,4.13,3.11,0.11,-0.01,0.13,-46.98,25.18,12.44
22093,-8.70,4.13,3.11,0.11,-0.01,0.13,-46.98,25.18,12.44
22104,-8.91,4.05,2.89,0.11,-0.03,0.04,-46.98,25.18,12.44
22115,-8.91,4.05,2.89,0.11,-0.03,0.04,-46.98,25.18,12.44
22126,-8.88,3.38,3.34,0.12,-0.03,-0.03,-46.75,25.64,11.96
22137,-8.88,3.38,3.34,0.12,-0.03,-0.03,-46.75,25.64,11.96
22148,-8.93,2.74,3.27,0.18,-0.01,-0.04,-46.75,25.64,11.96
22159,-8.93,2.74,3.27,0.18,-0.01,-0.04,-46.75,25.64,11.96
22170,-9.22,3.67,2.62,0.14,-0.02,-0.01,-46.75,25.64,11.96
22181,-9.22,3.67,2.62,0.14,-0.02,-0.01,-46.75,25.64,11.96
22192,-9.04,3.32,2.43,0.07,-0.03,-0.07,-46.75,25.64,11.96
22203,-9.05,3.91,2.76,-0.10,-0.09,-0.17,-46.75,25.64,11.96
22214,-9.05,3.91,2.76,-0.10,-0.09,-0.17,-46.75,25.64,11.96
22225,-8.75,4.18,2.58,-0.13,-0.09,-0.22,-46.75,25.64,11.96
22236,-8.75,4.18,2.58,-0.13,-0.09,-0.22,-46.75,25.64,11.96
22247,-8.95,3.31,3.40,-0.11,-0.04,-0.20,-47.91,25.49,12.76
22258,-8.95,3.31,3.40,-0.11,-0.04,-0.20,-47.91,25.49,12.76
22269,-8.67,3.92,1.98,-0.14,-0.03,-0.17,-47.91,25.49,12.76
22280,-8.67,3.92,1.98,-0.14,-0.03,-0.17,-47.91,25.49,12.76
22291,-8.70,3.69,2.84,-0.12,-0.02,-0.16,-47.91,25.49,12.76
22307,-8.91,3.53,3.24,-0.15,-0.02,-0.13,-47.91,25.49,12.76
22313,-8.91,3.53,3.24,-0.15,-0.02,-0.13,-47.91,25.49,12.76
22324,-8.43,4.31,1.60,-0.22,0.00,-0.07,-47.91,25.49,12.76
22335,-8.43,4.31,1.60,-0.22,0.00,-0.07,-47.91,25.49,12.76
22346,-8.54,4.72,2.19,-0.22,-0.02,-0.05,-47.91,25.49,12.76
22357,-8.54,4.72,2.19,-0.22,-0.02,-0.05,-47.91,25.49,12.76
22368,-8.56,4.68,2.58,-0.28,-0.06,-0.09,-47.91,25.49,12.76
22379,-8.56,4.68,2.58,-0.28,-0.06,-0.09,-47.91,25.49,12.76
22390,-8.72,4.11,2.67,-0.27,-0.03,-0.09,-46.98,24.25,12.44
22401,-8.72,4.11,2.67,-0.27,-0.03,-0.09,-46.98,24.25,12.44
22412,-8.53,4.74,2.73,-0.27,0.01,-0.04,-46.98,24.25,12.44
22423,-8.63,4.32,2.91,-0.30,0.04,-0.03,-46.98,24.25,12.44
22434,-8.63,4.32,2.91,-0.30,0.04,-0.03,-46.98,24.25,12.44
22445,-8.46,4.41,3.04,-0.30,0.11,0.04,-46.98,24.25,12.44
22456,-8.46,4.41,3.04,-0.30,0.11,0.04,-46.98,24.25,12.44
22467,-8.26,3.75,3.39,-0.27,0.16,0.13,-46.98,24.25,12.44
22478,-8.26,3.75,3.39,-0.27,0.16,0.13,-46.98,24.25,12.44
22489,-8.11,4.13,3.80,-0.28,0.11,0.20,-46.98,24.25,12.44
22500,-8.11,4.13,3.80,-0.28,0.11,0.20,-46.98,24.25,12.44
22511,-7.80,4.34,4.01,-0.22,0.08,0.23,-45.83,24.71,14.50
22522,-7.88,4.61,3.74,-0.13,0.16,0.25,-45.83,24.71,14.50
22533,-7.88,4.61,3.74,-0.13,0.16,0.25,-45.83,24.71,14.50
22544,-8.24,4.06,3.51,-0.06,0.13,0.25,-45.83,24.71,14.50
22555,-8.24,4.06,3.51,-0.06,0.13,0.25,-45.83,24.71,14.50
22566,-8.07,3.89,3.52,-0.05,0.05,0.28,-45.83,24.71,14.50
22577,-8.07,3.89,3.52,-0.05,0.05,0.28,-45.83,24.71,14.50
22588,-8.47,3.84,3.55,-0.07,-0.01,0.28,-45.83,24.71,14.50
22599,-8.47,3.84,3.55,-0.07,-0.01,0.28,-45.83,24.71,14.50
22610,-9.17,3.53,4.12,0.01,-0.01,0.22,-45.83,24.71,14.50
22621,-9.17,3.53,4.12,0.01,-0.01,0.22,-45.83,24.71,14.50
22632,-8.45,2.83,3.90,0.13,0.01,0.10,-44.45,23.16,13.55
22643,-8.93,2.79,3.75,0.18,0.00,0.06,-44.45,23.16,13.55
22654,-8.93,2.79,3.75,0.18,0.00,0.06,-44.45,23.16,13.55
22665,-8.77,3.03,2.95,0.23,0.04,0.04,-44.45,23.16,13.55
22676,-8.77,3.03,2.95,0.23,0.04,0.04,-44.45,23.16,13.55
22692,-9.14,3.46,2.93,0.21,-0.02,0.02,-44.45,23.16,13.55
22698,-9.14,3.46,2.93,0.21,-0.02,0.02,-44.45,23.16,13.55
22709,-9.03,3.05,2.84,0.23,-0.06,-0.02,-44.45,23.16,13.55
22720,-9.03,3.05,2.84,0.23,-0.06,-0.02,-44.45,23.16,13.55
22731,-9.20,4.24,2.88,0.14,-0.09,-0.02,-44.45,23.16,13.55
22742,-8.99,4.52,2.31,0.02,-0.10,-0.13,-44.45,23.16,13.55
22753,-8.99,4.52,2.31,0.02,-0.10,-0.13,-44.45,23.16,13.55
22764,-8.91,3.32,2.37,-0.05,-0.08,-0.20,-46.98,23.63,13.07
22775,-8.91,3.32,2.37,-0.05,-0.08,-0.20,-46.98,23.63,13.07
22786,-9.00,4.18,2.65,-0.10,-0.07,-0.19,-46.98,23.63,13.07
22797,-9.00,4.18,2.65,-0.10,-0.07,-0.19,-46.98,23.63,13.07
22808,-8.84,3.86,2.83,-0.05,-0.02,-0.22,-46.98,23.63,13.07
22819,-8.84,3.86,2.83,-0.05,-0.02,-0.22,-46.98,23.63,13.07
22831,-8.97,3.61,3.37,-0.05,-0.02,-0.21,-46.98,23.63,13.07
22841,-8.97,3.61,3.37,-0.05,-0.02,-0.21,-46.98,23.63,13.07
22852,-8.79,4.13,2.23,-0.12,0.01,-0.17,-46.98,23.63,13.07
22863,-8.46,4.48,1.69,-0.11,0.01,-0.14,-46.98,23.63,13.07
22874,-8.46,4.48,1.69,-0.11,0.01,-0.14,-46.98,23.63,13.07
22885,-8.83,4.17,2.57,-0.11,-0.02,-0.11,-46.29,23.47,12.60
22896,-8.83,4.17,2.57,-0.11,-0.02,-0.11,-46.29,23.47,12.60
22907,-8.63,4.37,2.71,-0.19,0.00,-0.10,-46.29,23.47,12.60
22918,-8.63,4.37,2.71,-0.19,0.00,-0.10,-46.29,23.47,12.60
22929,-8.64,4.35,2.78,-0.20,-0.00,-0.09,-46.29,23.47,12.60
22940,-8.64,4.35,2.78,-0.20,-0.00,-0.09,-46.29,23.47,12.60
22951,-8.47,3.90,2.97,-0.25,0.01,-0.09,-46.29,23.47,12.60
22962,-8.60,4.93,2.62,-0.29,0.07,0.01,-46.29,23.47,12.60
22973,-8.60,4.93,2.62,-0.29,0.07,0.01,-46.29,23.47,12.60
22984,-8.14,4.10,3.09,-0.25,0.06,0.07,-46.29,23.47,12.60
22995,-8.14,4.10,3.09,-0.25,0.06,0.07,-46.29,23.47,12.60
23006,-8.27,4.82,3.38,-0.27,0.10,0.14,-47.21,24.40,15.45
23017,-8.27,4.82,3.38,-0.27,0.10,0.14,-47.21,24.40,15.45
23028,-8.31,4.25,3.66,-0.18,0.19,0.13,-47.21,24.40,15.45
23039,-8.31,4.25,3.66,-0.18,0.19,0.13,-47.21,24.40,15.45
23050,-7.39,3.87,3.46,-0.14,0.17,0.14,-47.21,24.40,15.45
23061,-7.39,3.87,3.46,-0.14,0.17,0.14,-47.21,24.40,15.45
23072,-8.06,4.57,3.93,-0.11,0.12,0.20,-47.21,24.40,15.45
23083,-7.91,3.98,3.65,-0.06,0.09,0.16,-47.21,24.40,15.45
23094,-7.91,3.98,3.65,-0.06,0.09,0.16,-47.21,24.40,15.45
23105,-8.54,3.16,3.45,0.03,0.11,0.20,-47.21,24.40,15.45
23116,-8.54,3.16,3.45,0.03,0.11,0.20,-47.21,24.40,15.45
