time,ax,ay,az,gx,gy,gz,mx,my,mz
402,-0.50,6.38,-8.06,0.00,0.00,0.00,-36.60,23.47,-21.60
412,-0.51,6.39,-8.07,0.00,0.00,0.00,-36.60,23.47,-21.60
423,-0.51,6.39,-8.07,0.00,0.00,0.00,-36.60,23.47,-21.60
434,-0.48,6.38,-8.08,0.00,0.00,0.00,-36.60,23.47,-21.60
445,-0.47,6.37,-8.10,0.00,0.01,0.00,-35.45,23.94,-24.29
456,-0.47,6.37,-8.10,0.00,0.01,0.00,-35.45,23.94,-24.29
467,-0.49,6.38,-8.09,0.00,0.01,0.00,-35.45,23.94,-24.29
478,-0.49,6.38,-8.09,0.00,0.01,0.00,-35.45,23.94,-24.29
489,-0.48,6.38,-8.08,-0.00,0.00,0.00,-35.45,23.94,-24.29
500,-0.48,6.38,-8.08,-0.00,0.00,0.00,-35.45,23.94,-24.29
511,-0.50,6.39,-8.05,0.00,0.00,0.00,-35.45,23.94,-24.29
522,-0.50,6.39,-8.05,0.00,0.00,0.00,-35.45,23.94,-24.29
533,-0.48,6.37,-8.09,0.00,0.01,0.00,-35.45,23.94,-24.29
544,-0.46,6.37,-8.08,0.00,0.01,0.00,-35.45,23.94,-24.29
555,-0.46,6.37,-8.08,0.00,0.01,0.00,-35.45,23.94,-24.29
566,-0.47,6.36,-8.09,0.00,0.00,0.00,-35.22,22.86,-22.87
577,-0.47,6.36,-8.09,0.00,0.00,0.00,-35.22,22.86,-22.87
588,-0.51,6.39,-8.08,0.01,0.01,0.01,-35.22,22.86,-22.87
599,-0.51,6.39,-8.08,0.01,0.01,0.01,-35.22,22.86,-22.87
610,-0.50,6.38,-8.11,0.01,0.01,0.01,-35.22,22.86,-22.87
622,-0.50,6.38,-8.11,0.01,0.01,0.01,-35.22,22.86,-22.87
632,-0.50,6.37,-8.08,-0.00,0.00,0.00,-35.22,22.86,-22.87
643,-0.50,6.37,-8.08,-0.00,0.00,0.00,-35.22,22.86,-22.87
654,-0.48,6.36,-8.08,0.00,0.01,0.00,-35.22,22.86,-22.87
665,-0.48,6.38,-8.09,-0.00,0.00,0.00,-35.22,22.86,-22.87
676,-0.48,6.38,-8.09,-0.00,0.00,0.00,-35.22,22.86,-22.87
687,-0.48,6.39,-8.07,0.00,0.00,0.00,-35.22,22.86,-22.87
698,-0.48,6.39,-8.07,0.00,0.00,0.00,-35.22,22.86,-22.87
709,-0.50,6.39,-8.10,0.00,0.00,0.00,-36.37,22.39,-23.66
720,-0.50,6.39,-8.10,0.00,0.00,0.00,-36.37,22.39,-23.66
731,-0.49,6.38,-8.08,0.00,0.01,0.00,-36.37,22.39,-23.66
742,-0.49,6.38,-8.08,0.00,0.01,0.00,-36.37,22.39,-23.66
753,-0.45,6.35,-8.07,0.00,0.01,0.00,-36.37,22.39,-23.66
768,-0.49,6.36,-8.06,0.00,0.00,0.00,-36.37,22.39,-23.66
775,-0.49,6.36,-8.06,0.00,0.00,0.00,-36.37,22.39,-23.66
786,-0.51,6.38,-8.04,0.00,0.00,0.00,-36.37,22.39,-23.66
797,-0.51,6.38,-8.04,0.00,0.00,0.00,-36.37,22.39,-23.66
808,-0.49,6.37,-8.10,0.00,0.00,0.00,-36.37,22.39,-23.66
819,-0.49,6.37,-8.10,0.00,0.00,0.00,-36.37,22.39,-23.66
830,-0.47,6.37,-8.06,0.00,0.00,0.00,-36.37,23.01,-23.98
841,-0.47,6.37,-8.06,0.00,0.00,0.00,-36.37,23.01,-23.98
852,-0.48,6.38,-8.08,0.00,0.00,0.00,-36.37,23.01,-23.98
868,-0.48,6.38,-8.08,0.00,0.00,0.00,-36.37,23.01,-23.98
874,-0.49,6.38,-8.07,0.00,0.01,0.00,-36.37,23.01,-23.98
885,-0.48,6.36,-8.07,0.00,0.01,0.00,-36.37,23.01,-23.98
896,-0.48,6.36,-8.07,0.00,0.01,0.00,-36.37,23.01,-23.98
907,-0.49,6.38,-8.08,0.00,0.01,0.00,-36.37,23.01,-23.98
918,-0.49,6.38,-8.08,0.00,0.01,0.00,-36.37,23.01,-23.98
929,-0.48,6.37,-8.05,0.00,0.00,0.00,-36.37,23.01,-23.98
940,-0.48,6.37,-8.05,0.00,0.00,0.00,-36.37,23.01,-23.98
951,-0.47,6.38,-8.10,-0.00,0.00,0.00,-37.07,23.16,-23.19
962,-0.47,6.38,-8.10,-0.00,0.00,0.00,-37.07,23.16,-23.19
973,-0.50,6.35,-8.09,0.00,0.00,0.00,-37.07,23.16,-23.19
984,-0.51,6.37,-8.07,-0.01,-0.00,-0.00,-37.07,23.16,-23.19
995,-0.51,6.37,-8.07,-0.01,-0.00,-0.00,-37.07,23.16,-23.19
1006,-0.47,6.36,-8.08,-0.00,0.00,0.00,-37.07,23.16,-23.19
1017,-0.47,6.36,-8.08,-0.00,0.00,0.00,-37.07,23.16,-23.19
1028,-0.47,6.38,-8.06,-0.00,0.00,0.00,-37.07,23.16,-23.19
1039,-0.47,6.38,-8.06,-0.00,0.00,0.00,-37.07,23.16,-23.19
1050,-0.48,6.37,-8.07,-0.00,0.00,0.00,-37.07,23.16,-23.19
1061,-0.48,6.37,-8.07,-0.00,0.00,0.00,-37.07,23.16,-23.19
1072,-0.49,6.38,-8.08,-0.00,0.00,0.00,-36.60,22.24,-23.50
1083,-0.49,6.38,-8.08,-0.00,0.00,0.00,-36.60,22.24,-23.50
1094,-0.49,6.38,-8.09,-0.00,0.00,0.00,-36.60,22.24,-23.50
1110,-0.47,6.38,-8.06,-0.00,0.00,0.00,-36.60,22.24,-23.50
1116,-0.47,6.38,-8.06,-0.00,0.00,0.00,-36.60,22.24,-23.50
1127,-0.48,6.37,-8.09,0.00,0.00,0.00,-36.60,22.24,-23.50
1138,-0.48,6.37,-8.09,0.00,0.00,0.00,-36.60,22.24,-23.50
1149,-0.49,6.37,-8.05,-0.00,0.00,0.00,-36.60,22.24,-23.50
1160,-0.49,6.37,-8.05,-0.00,0.00,0.00,-36.60,22.24,-23.50
1171,-0.49,6.39,-8.07,-0.00,0.00,0.00,-36.60,22.24,-23.50
1182,-0.49,6.39,-8.07,-0.00,0.00,0.00,-36.60,22.24,-23.50
1193,-0.49,6.39,-8.07,0.00,0.00,0.00,-36.60,22.24,-23.50
1204,-0.49,6.39,-8.07,0.00,0.00,0.00,-36.60,22.24,-23.50
1215,-0.46,6.38,-8.08,0.00,0.00,0.00,-35.68,22.86,-22.55
1226,-0.49,6.37,-8.07,0.00,0.00,0.00,-35.68,22.86,-22.55
1237,-0.49,6.37,-8.07,0.00,0.00,0.00,-35.68,22.86,-22.55
1248,-0.49,6.37,-8.07,-0.00,0.00,0.00,-35.68,22.86,-22.55
1259,-0.49,6.37,-8.07,-0.00,0.00,0.00,-35.68,22.86,-22.55
1270,-0.50,6.40,-8.04,-0.00,0.00,0.00,-35.68,22.86,-22.55
1281,-0.50,6.40,-8.04,-0.00,0.00,0.00,-35.68,22.86,-22.55
1292,-0.49,6.39,-8.09,-0.00,0.00,0.00,-35.68,22.86,-22.55
1303,-0.49,6.39,-8.09,-0.00,0.00,0.00,-35.68,22.86,-22.55
1314,-0.48,6.37,-8.07,0.00,0.00,0.00,-35.68,22.86,-22.55
1325,-0.47,6.37,-8.09,-0.00,0.00,0.00,-35.22,22.86,-22.87
1336,-0.47,6.37,-8.09,-0.00,0.00,0.00,-35.22,22.86,-22.87
1347,-0.49,6.38,-8.04,-0.00,0.00,0.00,-35.22,22.86,-22.87
1358,-0.49,6.38,-8.04,-0.00,0.00,0.00,-35.22,22.86,-22.87
1369,-0.50,6.38,-8.07,-0.00,0.00,0.00,-35.22,22.86,-22.87
1380,-0.50,6.38,-8.07,-0.00,0.00,0.00,-35.22,22.86,-22.87
1391,-0.48,6.37,-8.07,0.00,0.00,0.00,-35.22,22.86,-22.87
1402,-0.48,6.37,-8.07,0.00,0.00,0.00,-35.22,22.86,-22.87
1413,-0.48,6.36,-8.07,0.00,0.00,0.00,-35.22,22.86,-22.87
1424,-0.48,6.36,-8.07,0.00,0.00,0.00,-35.22,22.86,-22.87
1435,-0.47,6.38,-8.06,-0.00,0.00,0.00,-35.22,22.86,-22.87
1446,-0.48,6.37,-8.10,0.00,0.00,0.00,-35.45,22.08,-22.71
1457,-0.48,6.37,-8.10,0.00,0.00,0.00,-35.45,22.08,-22.71
1468,-0.47,6.38,-8.08,0.00,0.00,0.00,-35.45,22.08,-22.71
1479,-0.47,6.38,-8.08,0.00,0.00,0.00,-35.45,22.08,-22.71
1490,-0.48,6.37,-8.07,0.00,0.00,0.00,-35.45,22.08,-22.71
1501,-0.48,6.37,-8.07,0.00,0.00,0.00,-35.45,22.08,-22.71
1512,-0.48,6.37,-8.06,-0.00,0.00,0.00,-35.45,22.08,-22.71
1523,-0.48,6.37,-8.06,-0.00,0.00,0.00,-35.45,22.08,-22.71
1534,-0.47,6.37,-8.08,0.00,0.00,0.00,-35.45,22.08,-22.71
1545,-0.48,6.39,-8.08,-0.00,0.00,0.00,-35.45,22.08,-22.71
1556,-0.48,6.39,-8.08,-0.00,0.00,0.00,-35.45,22.08,-22.71
1567,-0.49,6.38,-8.07,0.00,0.00,0.00,-35.45,22.08,-22.71
1578,-0.49,6.38,-8.07,0.00,0.00,0.00,-35.45,22.08,-22.71
1590,-0.50,6.39,-8.07,0.00,0.00,0.00,-36.37,23.32,-22.71
1600,-0.50,6.39,-8.07,0.00,0.00,0.00,-36.37,23.32,-22.71
1611,-0.47,6.37,-8.05,0.00,0.00,0.00,-36.37,23.32,-22.71
1622,-0.47,6.37,-8.05,0.00,0.00,0.00,-36.37,23.32,-22.71
1633,-0.50,6.37,-8.06,0.00,0.00,0.00,-36.37,23.32,-22.71
1644,-0.50,6.37,-8.06,0.00,0.00,0.00,-36.37,23.32,-22.71
1655,-0.50,6.36,-8.06,0.00,0.00,0.00,-36.37,23.32,-22.71
1666,-0.49,6.38,-8.08,0.00,0.00,0.00,-36.37,23.32,-22.71
1677,-0.49,6.38,-8.08,0.00,0.00,0.00,-36.37,23.32,-22.71
1688,-0.47,6.37,-8.07,0.00,0.00,0.00,-36.37,23.32,-22.71
1699,-0.47,6.37,-8.07,0.00,0.00,0.00,-36.37,23.32,-22.71
1710,-0.48,6.38,-8.10,0.00,0.00,0.00,-36.14,22.86,-22.87
1721,-0.48,6.38,-8.10,0.00,0.00,0.00,-36.14,22.86,-22.87
1732,-0.49,6.37,-8.07,0.00,0.00,0.00,-36.14,22.86,-22.87
1743,-0.49,6.37,-8.07,0.00,0.00,0.00,-36.14,22.86,-22.87
1754,-0.49,6.38,-8.07,0.00,0.00,0.00,-36.14,22.86,-22.87
1765,-0.50,6.38,-8.10,0.00,0.00,0.00,-36.14,22.86,-22.87
1776,-0.50,6.38,-8.10,0.00,0.00,0.00,-36.14,22.86,-22.87
1787,-0.48,6.38,-8.08,0.00,0.00,0.00,-36.14,22.86,-22.87
1798,-0.48,6.38,-8.08,0.00,0.00,0.00,-36.14,22.86,-22.87
1809,-0.47,6.35,-8.07,0.00,0.00,0.00,-36.14,22.86,-22.87
1820,-0.47,6.35,-8.07,0.00,0.00,0.00,-36.14,22.86,-22.87
1831,-0.49,6.38,-8.10,-0.00,0.00,0.00,-35.91,23.94,-22.39
1842,-0.49,6.38,-8.10,-0.00,0.00,0.00,-35.91,23.94,-22.39
1853,-0.49,6.38,-8.10,-0.00,0.00,0.00,-35.91,23.94,-22.39
1864,-0.49,6.38,-8.10,-0.00,0.00,0.00,-35.91,23.94,-22.39
1875,-0.47,6.38,-8.09,0.00,0.00,0.00,-35.91,23.94,-22.39
1886,-0.47,6.37,-8.09,0.00,0.00,0.00,-35.91,23.94,-22.39
1897,-0.47,6.37,-8.09,0.00,0.00,0.00,-35.91,23.94,-22.39
1908,-0.48,6.36,-8.06,-0.00,0.00,0.00,-35.91,23.94,-22.39
1919,-0.48,6.36,-8.06,-0.00,0.00,0.00,-35.91,23.94,-22.39
1930,-0.49,6.37,-8.11,0.00,0.00,0.00,-35.91,23.94,-22.39
1941,-0.49,6.37,-8.11,0.00,0.00,0.00,-35.91,23.94,-22.39
1952,-0.49,6.39,-8.08,0.00,0.00,0.00,-35.91,23.94,-22.39
1963,-0.49,6.39,-8.08,0.00,0.00,0.00,-35.91,23.94,-22.39
1974,-0.48,6.38,-8.10,0.00,0.00,0.00,-35.45,23.94,-23.34
1985,-0.47,6.37,-8.08,0.00,0.00,0.00,-35.45,23.94,-23.34
1996,-0.47,6.37,-8.08,0.00,0.00,0.00,-35.45,23.94,-23.34
2007,-0.48,6.36,-8.06,0.00,0.00,0.00,-35.45,23.94,-23.34
2018,-0.48,6.36,-8.06,0.00,0.00,0.00,-35.45,23.94,-23.34
2029,-0.50,6.37,-8.09,0.00,0.00,0.00,-35.45,23.94,-23.34
2040,-0.50,6.37,-8.09,0.00,0.00,0.00,-35.45,23.94,-23.34
2051,-0.49,6.38,-8.05,0.00,0.00,0.00,-35.45,23.94,-23.34
2062,-0.49,6.38,-8.05,0.00,0.00,0.00,-35.45,23.94,-23.34
2073,-0.47,6.37,-8.06,0.00,0.00,0.00,-35.45,23.94,-23.34
2084,-0.47,6.37,-8.06,0.00,0.00,0.00,-35.45,23.94,-23.34
2095,-0.48,6.37,-8.08,0.00,0.00,0.00,-37.30,23.32,-22.71
2106,-0.48,6.37,-8.06,0.00,0.00,0.00,-37.30,23.32,-22.71
2117,-0.48,6.37,-8.06,0.00,0.00,0.00,-37.30,23.32,-22.71
2128,-0.48,6.36,-8.07,0.00,0.00,0.00,-37.30,23.32,-22.71
2139,-0.48,6.36,-8.07,0.00,0.00,0.00,-37.30,23.32,-22.71
2150,-0.48,6.36,-8.08,0.00,0.00,0.00,-37.30,23.32,-22.71
2161,-0.48,6.36,-8.08,0.00,0.00,0.00,-37.30,23.32,-22.71
2172,-0.48,6.37,-8.08,0.00,0.00,0.00,-37.30,23.32,-22.71
2183,-0.48,6.37,-8.08,0.00,0.00,0.00,-37.30,23.32,-22.71
2194,-0.48,6.37,-8.08,0.00,0.00,0.00,-37.30,23.32,-22.71
2205,-0.48,6.37,-8.08,0.00,0.00,0.00,-37.30,23.32,-22.71
2221,-0.49,6.36,-8.10,-0.00,0.00,0.00,-36.14,22.86,-22.87
2227,-0.49,6.38,-8.09,0.00,0.00,0.00,-36.14,22.86,-22.87
2238,-0.49,6.38,-8.09,0.00,0.00,0.00,-36.14,22.86,-22.87
2249,-0.48,6.37,-8.07,0.00,0.00,0.00,-36.14,22.86,-22.87
2260,-0.48,6.37,-8.07,0.00,0.00,0.00,-36.14,22.86,-22.87
2271,-0.47,6.38,-8.12,0.00,0.00,0.00,-36.14,22.86,-22.87
2282,-0.47,6.38,-8.12,0.00,0.00,0.00,-36.14,22.86,-22.87
2293,-0.48,6.37,-8.08,0.00,0.00,0.00,-36.14,22.86,-22.87
2304,-0.48,6.37,-8.08,0.00,0.00,0.00,-36.14,22.86,-22.87
2315,-0.49,6.38,-8.06,0.00,0.00,0.00,-36.14,22.86,-22.87
2326,-0.49,6.38,-8.10,0.00,0.00,0.00,-35.91,22.39,-24.61
2337,-0.49,6.38,-8.10,0.00,0.00,0.00,-35.91,22.39,-24.61
2348,-0.48,6.37,-8.07,0.00,0.00,0.00,-35.91,22.39,-24.61
2359,-0.48,6.37,-8.07,0.00,0.00,0.00,-35.91,22.39,-24.61
2370,-0.48,6.37,-8.09,0.00,0.00,0.00,-35.91,22.39,-24.61
2381,-0.48,6.37,-8.09,0.00,0.00,0.00,-35.91,22.39,-24.61
2392,-0.48,6.37,-8.10,0.00,0.00,0.00,-35.91,22.39,-24.61
2403,-0.48,6.37,-8.10,0.00,0.00,0.00,-35.91,22.39,-24.61
2414,-0.49,6.35,-8.12,0.00,0.00,0.00,-35.91,22.39,-24.61
2425,-0.49,6.35,-8.12,0.00,0.00,0.00,-35.91,22.39,-24.61
2436,-0.49,6.39,-8.09,0.00,0.00,0.00,-35.91,22.39,-24.61
2447,-0.50,6.38,-8.07,0.00,0.00,0.00,-35.91,22.39,-24.61
2459,-0.50,6.38,-8.07,0.00,0.00,0.00,-35.91,22.39,-24.61
2469,-0.49,6.39,-8.10,0.00,0.00,0.00,-34.76,22.55,-22.55
2480,-0.49,6.39,-8.10,0.00,0.00,0.00,-34.76,22.55,-22.55
2491,-0.49,6.39,-8.09,-0.00,0.00,0.00,-34.76,22.55,-22.55
2502,-0.49,6.39,-8.09,-0.00,0.00,0.00,-34.76,22.55,-22.55
2513,-0.49,6.36,-8.07,0.00,0.00,0.00,-34.76,22.55,-22.55
2524,-0.49,6.36,-8.07,0.00,0.00,0.00,-34.76,22.55,-22.55
2535,-0.49,6.38,-8.07,0.00,0.00,0.00,-34.76,22.55,-22.55
2546,-0.48,6.37,-8.08,0.00,0.00,0.00,-34.76,22.55,-22.55
2557,-0.48,6.37,-8.08,0.00,0.00,0.00,-34.76,22.55,-22.55
2568,-0.47,6.37,-8.07,-0.00,0.00,0.00,-34.76,22.55,-22.55
2579,-0.47,6.37,-8.07,-0.00,0.00,0.00,-34.76,22.55,-22.55
2590,-0.48,6.36,-8.10,0.00,0.00,0.00,-37.07,22.24,-23.50
2601,-0.48,6.36,-8.10,0.00,0.00,0.00,-37.07,22.24,-23.50
2612,-0.49,6.36,-8.09,0.00,0.01,0.00,-37.07,22.24,-23.50
2623,-0.49,6.36,-8.09,0.00,0.01,0.00,-37.07,22.24,-23.50
2634,-0.49,6.36,-8.10,0.00,0.01,0.00,-37.07,22.24,-23.50
2645,-0.49,6.36,-8.10,0.00,0.01,0.00,-37.07,22.24,-23.50
2656,-0.48,6.39,-8.07,0.00,0.00,0.00,-37.07,22.24,-23.50
2667,-0.48,6.37,-8.08,0.00,0.00,0.00,-37.07,22.24,-23.50
2678,-0.48,6.37,-8.08,0.00,0.00,0.00,-37.07,22.24,-23.50
2689,-0.49,6.38,-8.05,0.00,0.00,0.00,-37.07,22.24,-23.50
2700,-0.49,6.38,-8.05,0.00,0.00,0.00,-37.07,22.24,-23.50
2711,-0.48,6.37,-8.10,0.00,0.00,0.00,-37.30,23.63,-23.03
2722,-0.48,6.37,-8.10,0.00,0.00,0.00,-37.30,23.63,-23.03
2733,-0.49,6.38,-8.09,0.00,0.00,0.00,-37.30,23.63,-23.03
2744,-0.49,6.38,-8.09,0.00,0.00,0.00,-37.30,23.63,-23.03
2756,-0.48,6.37,-8.09,0.00,0.00,0.00,-37.30,23.63,-23.03
2766,-0.48,6.37,-8.06,0.00,0.00,0.00,-37.30,23.63,-23.03
2777,-0.48,6.37,-8.06,0.00,0.00,0.00,-37.30,23.63,-23.03
2788,-0.47,6.38,-8.07,0.00,0.00,0.00,-37.30,23.63,-23.03
2799,-0.47,6.38,-8.07,0.00,0.00,0.00,-37.30,23.63,-23.03
2810,-0.48,6.35,-8.08,0.00,0.00,0.00,-37.30,23.63,-23.03
2821,-0.48,6.35,-8.08,0.00,0.00,0.00,-37.30,23.63,-23.03
2832,-0.49,6.38,-8.07,0.00,0.00,0.00,-37.30,23.63,-23.03
2843,-0.49,6.38,-8.07,0.00,0.00,0.00,-37.30,23.63,-23.03
2854,-0.49,6.37,-8.10,0.00,0.00,0.00,-35.45,22.70,-24.61
2865,-0.49,6.37,-8.10,0.00,0.00,0.00,-35.45,22.70,-24.61
2876,-0.48,6.37,-8.09,0.00,0.00,0.00,-35.45,22.70,-24.61
2887,-0.49,6.37,-8.08,0.00,0.00,0.00,-35.45,22.70,-24.61
2898,-0.49,6.37,-8.08,0.00,0.00,0.00,-35.45,22.70,-24.61
2909,-0.49,6.36,-8.06,-0.00,0.00,0.00,-35.45,22.70,-24.61
2920,-0.49,6.36,-8.06,-0.00,0.00,0.00,-35.45,22.70,-24.61
2931,-0.48,6.35,-8.08,0.00,0.00,0.00,-35.45,22.70,-24.61
2942,-0.48,6.35,-8.08,0.00,0.00,0.00,-35.45,22.70,-24.61
2953,-0.48,6.36,-8.06,-0.00,0.00,0.00,-35.45,22.70,-24.61
2964,-0.48,6.36,-8.06,-0.00,0.00,0.00,-35.45,22.70,-24.61
2975,-0.49,6.37,-8.10,-0.00,0.00,0.00,-35.22,21.93,-23.82
2986,-0.49,6.38,-8.09,0.00,0.00,0.00,-35.22,21.93,-23.82
2997,-0.49,6.38,-8.09,0.00,0.00,0.00,-35.22,21.93,-23.82
3008,-0.46,6.36,-8.06,0.00,0.00,0.00,-35.22,21.93,-23.82
3019,-0.46,6.36,-8.06,0.00,0.00,0.00,-35.22,21.93,-23.82
3030,-0.48,6.40,-8.07,-0.00,0.00,0.00,-35.22,21.93,-23.82
3041,-0.48,6.40,-8.07,-0.00,0.00,0.00,-35.22,21.93,-23.82
3052,-0.47,6.37,-8.07,0.00,0.00,0.00,-35.22,21.93,-23.82
3063,-0.47,6.37,-8.07,0.00,0.00,0.00,-35.22,21.93,-23.82
3074,-0.47,6.37,-8.08,0.00,0.01,0.00,-35.22,21.93,-23.82
3085,-0.47,6.37,-8.08,0.00,0.01,0.00,-35.22,21.93,-23.82
3096,-0.49,6.38,-8.09,-0.00,0.00,0.00,-37.30,23.63,-23.03
3107,-0.49,6.36,-8.08,0.00,0.00,0.00,-37.30,23.63,-23.03
3118,-0.49,6.36,-8.08,0.00,0.00,0.00,-37.30,23.63,-23.03
3129,-0.49,6.38,-8.06,0.00,0.00,0.00,-37.30,23.63,-23.03
3140,-0.49,6.38,-8.06,0.00,0.00,0.00,-37.30,23.63,-23.03
3151,-0.48,6.39,-8.11,0.00,0.00,0.00,-37.30,23.63,-23.03
3162,-0.48,6.39,-8.11,0.00,0.00,0.00,-37.30,23.63,-23.03
3173,-0.49,6.38,-8.08,-0.00,-0.00,-0.00,-37.30,23.63,-23.03
3189,-0.49,6.38,-8.08,-0.00,-0.00,-0.00,-37.30,23.63,-23.03
3195,-0.48,6.37,-8.09,0.00,0.00,0.00,-37.30,23.63,-23.03
3206,-0.48,6.37,-8.09,0.00,0.00,0.00,-37.30,23.63,-23.03
3217,-0.48,6.39,-8.09,-0.00,0.00,0.00,-37.30,23.63,-23.03
3228,-0.45,6.31,-8.18,-0.03,-0.02,-0.02,-36.37,23.01,-22.71
3239,-0.45,6.31,-8.18,-0.03,-0.02,-0.02,-36.37,23.01,-22.71
3250,-2.40,6.50,-7.96,0.09,0.12,-0.04,-36.37,23.01,-22.71
3261,-2.40,6.50,-7.96,0.09,0.12,-0.04,-36.37,23.01,-22.71
3272,0.54,8.10,-9.23,0.32,0.78,-0.52,-36.37,23.01,-22.71
3283,0.54,8.10,-9.23,0.32,0.78,-0.52,-36.37,23.01,-22.71
3294,-0.65,8.80,-9.69,1.80,0.65,-0.58,-36.37,23.01,-22.71
3305,-0.65,8.80,-9.69,1.80,0.65,-0.58,-36.37,23.01,-22.71
3316,-1.75,8.33,-11.10,4.74,0.72,-0.84,-36.37,23.01,-22.71
3327,-2.66,5.08,-10.34,8.81,0.84,-0.77,-36.37,23.01,-22.71
3338,-2.66,5.08,-10.34,8.81,0.84,-0.77,-36.37,23.01,-22.71
3349,-1.68,-2.40,-4.40,10.47,1.67,-0.03,-33.14,11.56,-31.26
3360,-1.68,-2.40,-4.40,10.47,1.67,-0.03,-33.14,11.56,-31.26
3371,0.41,-0.30,-13.50,4.10,3.00,0.40,-33.14,11.56,-31.26
3382,0.41,-0.30,-13.50,4.10,3.00,0.40,-33.14,11.56,-31.26
3393,2.60,-1.40,-17.39,3.16,3.27,1.24,-33.14,11.56,-31.26
3404,2.60,-1.40,-17.39,3.16,3.27,1.24,-33.14,11.56,-31.26
3415,3.71,-1.06,-22.28,3.83,2.37,1.52,-33.14,11.56,-31.26
3426,3.71,-1.06,-22.28,3.83,2.37,1.52,-33.14,11.56,-31.26
3437,6.36,1.60,-28.45,5.02,-0.64,0.56,-33.14,11.56,-31.26
3448,6.34,-2.02,-18.89,7.08,-4.78,-0.44,-33.14,11.56,-31.26
3459,6.34,-2.02,-18.89,7.08,-4.78,-0.44,-33.14,11.56,-31.26
3470,3.91,-6.73,-8.89,8.37,-6.79,0.46,-33.84,-14.59,-29.20
3481,3.91,-6.73,-8.89,8.37,-6.79,0.46,-33.84,-14.59,-29.20
3492,3.22,-2.09,-7.88,5.88,-6.60,1.75,-33.84,-14.59,-29.20
3503,3.22,-2.09,-7.88,5.88,-6.60,1.75,-33.84,-14.59,-29.20
3514,1.47,2.13,-7.24,4.83,-6.23,1.35,-33.84,-14.59,-29.20
3525,1.47,2.13,-7.24,4.83,-6.23,1.35,-33.84,-14.59,-29.20
3536,-1.61,-1.89,-5.05,5.53,-6.50,0.32,-33.84,-14.59,-29.20
3547,0.96,-2.12,-4.08,4.61,-6.51,0.45,-33.84,-14.59,-29.20
3558,0.96,-2.12,-4.08,4.61,-6.51,0.45,-33.84,-14.59,-29.20
3569,1.24,1.26,-5.14,1.45,-6.30,-0.22,-33.84,-14.59,-29.20
3580,1.24,1.26,-5.14,1.45,-6.30,-0.22,-33.84,-14.59,-29.20
3591,-1.13,-0.08,-2.88,0.90,-6.77,-1.75,-55.98,-26.35,1.20
3602,-1.13,-0.08,-2.88,0.90,-6.77,-1.75,-55.98,-26.35,1.20
3613,-1.62,-3.67,-0.26,-0.63,-6.88,-3.27,-55.98,-26.35,1.20
3624,-1.62,-3.67,-0.26,-0.63,-6.88,-3.27,-55.98,-26.35,1.20
3635,0.84,-4.91,1.97,-4.17,-6.33,-4.13,-55.98,-26.35,1.20
3646,0.84,-4.91,1.97,-4.17,-6.33,-4.13,-55.98,-26.35,1.20
3657,2.76,-2.01,2.20,-9.60,-5.65,-4.78,-55.98,-26.35,1.20
3668,4.59,-7.07,0.03,-3.96,-5.31,-5.09,-55.98,-26.35,1.20
3679,4.59,-7.07,0.03,-3.96,-5.31,-5.09,-55.98,-26.35,1.20
3690,3.09,-10.75,1.15,2.34,-5.11,-3.76,-55.98,-26.35,1.20
3702,3.09,-10.75,1.15,2.34,-5.11,-3.76,-55.98,-26.35,1.20
3712,-1.65,-12.71,6.16,3.24,-4.08,-2.16,-55.98,-26.35,1.20
3723,-1.65,-12.71,6.16,3.24,-4.08,-2.16,-55.98,-26.35,1.20
3734,-3.78,-14.20,2.48,1.46,-2.60,-0.49,-31.53,-35.95,10.38
3745,-3.78,-14.20,2.48,1.46,-2.60,-0.49,-31.53,-35.95,10.38
3756,-2.05,-10.82,-2.03,0.97,-1.61,1.02,-31.53,-35.95,10.38
3767,-1.73,-8.60,-4.45,0.21,-2.31,1.60,-31.53,-35.95,10.38
3778,-1.73,-8.60,-4.45,0.21,-2.31,1.60,-31.53,-35.95,10.38
3789,-4.18,-7.88,-1.57,0.30,-3.59,1.62,-31.53,-35.95,10.38
3800,-4.18,-7.88,-1.57,0.30,-3.59,1.62,-31.53,-35.95,10.38
3811,-7.26,-10.97,2.84,0.80,-3.65,1.32,-31.53,-35.95,10.38
3822,-7.26,-10.97,2.84,0.80,-3.65,1.32,-31.53,-35.95,10.38
3833,-6.31,-8.09,0.73,2.28,-2.55,1.53,-31.53,-35.95,10.38
3844,-6.31,-8.09,0.73,2.28,-2.55,1.53,-31.53,-35.95,10.38
3855,-4.19,-11.78,3.76,2.87,-1.95,1.32,-35.45,-32.70,22.57
3866,-4.19,-11.78,3.76,2.87,-1.95,1.32,-35.45,-32.70,22.57
3877,-6.02,-9.15,-0.41,1.58,-1.55,1.99,-35.45,-32.70,22.57
3888,-5.46,-7.92,1.43,2.05,-1.76,2.64,-35.45,-32.70,22.57
3899,-5.46,-7.92,1.43,2.05,-1.76,2.64,-35.45,-32.70,22.57
3910,-8.09,-5.29,7.09,1.71,-1.85,2.97,-35.45,-32.70,22.57
3921,-8.09,-5.29,7.09,1.71,-1.85,2.97,-35.45,-32.70,22.57
3932,-9.28,-5.39,3.54,-0.11,-0.72,2.43,-35.45,-32.70,22.57
3943,-9.28,-5.39,3.54,-0.11,-0.72,2.43,-35.45,-32.70,22.57
3954,-8.90,-4.17,-1.08,-0.68,-0.30,1.79,-35.45,-32.70,22.57
3965,-8.90,-4.17,-1.08,-0.68,-0.30,1.79,-35.45,-32.70,22.57
3976,-10.33,-4.40,-0.31,1.18,-0.63,1.35,-43.99,-25.12,27.80
3987,-10.22,-2.82,-0.63,3.26,-0.95,0.44,-43.99,-25.12,27.80
3998,-10.22,-2.82,-0.63,3.26,-0.95,0.44,-43.99,-25.12,27.80
4009,-6.88,-7.73,4.37,4.90,-1.26,0.07,-43.99,-25.12,27.80
4020,-6.88,-7.73,4.37,4.90,-1.26,0.07,-43.99,-25.12,27.80
4031,-6.81,-4.54,4.33,3.92,-1.50,0.38,-43.99,-25.12,27.80
4042,-6.81,-4.54,4.33,3.92,-1.50,0.38,-43.99,-25.12,27.80
4053,-8.67,-4.85,5.77,4.06,-1.33,0.33,-43.99,-25.12,27.80
4064,-8.67,-4.85,5.77,4.06,-1.33,0.33,-43.99,-25.12,27.80
4075,-7.09,-3.56,6.07,3.89,-0.82,-0.04,-43.99,-25.12,27.80
4086,-7.09,-3.56,6.07,3.89,-0.82,-0.04,-43.99,-25.12,27.80
4097,-7.35,-3.15,6.04,3.56,-1.05,-0.09,-43.99,-25.12,27.80
4108,-7.49,-0.12,6.51,4.31,-1.20,-0.07,-36.14,-7.47,40.15
4119,-7.49,-0.12,6.51,4.31,-1.20,-0.07,-36.14,-7.47,40.15
4130,-9.18,-1.58,11.99,3.94,-1.04,-0.84,-36.14,-7.47,40.15
4141,-9.18,-1.58,11.99,3.94,-1.04,-0.84,-36.14,-7.47,40.15
4152,-6.65,-11.29,15.83,0.65,-0.50,-1.45,-36.14,-7.47,40.15
4163,-6.65,-11.29,15.83,0.65,-0.50,-1.45,-36.14,-7.47,40.15
4178,-7.86,-2.96,9.77,-3.25,0.84,-0.51,-36.14,-7.47,40.15
4185,-7.86,-2.96,9.77,-3.25,0.84,-0.51,-36.14,-7.47,40.15
4196,-8.08,-5.65,8.44,-5.35,1.63,-0.53,-36.14,-7.47,40.15
4207,-8.08,-5.65,8.44,-5.35,1.63,-0.53,-36.14,-7.47,40.15
4218,-6.86,-6.16,11.18,-8.97,2.27,-0.30,-36.14,-7.47,40.15
4229,-2.44,-3.68,6.74,-13.45,3.03,0.57,-39.60,-22.48,32.71
4240,-2.44,-3.68,6.74,-13.45,3.03,0.57,-39.60,-22.48,32.71
4251,-1.74,-2.64,0.24,-12.77,3.44,1.63,-39.60,-22.48,32.71
4262,-1.74,-2.64,0.24,-12.77,3.44,1.63,-39.60,-22.48,32.71
4273,-4.88,-3.46,0.52,-10.47,3.32,2.16,-39.60,-22.48,32.71
4284,-4.88,-3.46,0.52,-10.47,3.32,2.16,-39.60,-22.48,32.71
4295,-5.19,-3.39,-1.78,-12.21,3.10,2.35,-39.60,-22.48,32.71
4306,-5.19,-3.39,-1.78,-12.21,3.10,2.35,-39.60,-22.48,32.71
4317,-6.23,-1.31,-4.88,-12.22,2.16,2.97,-39.60,-22.48,32.71
4328,-3.16,3.01,-10.44,-11.31,0.69,3.08,-39.60,-22.48,32.71
4339,-3.16,3.01,-10.44,-11.31,0.69,3.08,-39.60,-22.48,32.71
4350,-4.98,5.03,-7.07,-6.18,-0.85,2.50,-56.67,-20.01,-12.89
4361,-4.98,5.03,-7.07,-6.18,-0.85,2.50,-56.67,-20.01,-12.89
4372,-7.00,5.81,-4.87,-1.67,-0.86,1.07,-56.67,-20.01,-12.89
4383,-7.00,5.81,-4.87,-1.67,-0.86,1.07,-56.67,-20.01,-12.89
4394,-7.59,3.79,-4.44,1.53,-0.41,-0.39,-56.67,-20.01,-12.89
4405,-7.59,3.79,-4.44,1.53,-0.41,-0.39,-56.67,-20.01,-12.89
4416,-7.89,1.37,-3.47,4.06,-0.12,-1.58,-56.67,-20.01,-12.89
4427,-7.89,1.37,-3.47,4.06,-0.12,-1.58,-56.67,-20.01,-12.89
4438,-8.02,-0.69,-2.72,5.14,-0.06,-2.70,-56.67,-20.01,-12.89
4449,-3.90,-2.73,-6.54,3.29,-0.56,-3.50,-56.67,-20.01,-12.89
4460,-3.90,-2.73,-6.54,3.29,-0.56,-3.50,-56.67,-20.01,-12.89
4471,-5.83,-5.41,-5.22,3.99,-1.31,-3.30,-51.37,-30.38,-1.34
4482,-5.83,-5.41,-5.22,3.99,-1.31,-3.30,-51.37,-30.38,-1.34
4493,-5.68,-7.31,-4.49,4.51,-1.81,-2.65,-51.37,-30.38,-1.34
4504,-5.68,-7.31,-4.49,4.51,-1.81,-2.65,-51.37,-30.38,-1.34
4515,-5.12,-6.73,-2.88,2.35,-2.22,-1.95,-51.37,-30.38,-1.34
4527,-5.12,-6.73,-2.88,2.35,-2.22,-1.95,-51.37,-30.38,-1.34
4537,-6.34,-7.37,-0.74,1.61,-2.14,-1.49,-51.37,-30.38,-1.34
4548,-7.78,-7.08,-0.98,0.86,-1.77,-1.14,-51.37,-30.38,-1.34
4559,-7.78,-7.08,-0.98,0.86,-1.77,-1.14,-51.37,-30.38,-1.34
4570,-7.92,-7.22,0.15,1.44,-1.25,-0.91,-51.37,-30.38,-1.34
4581,-7.92,-7.22,0.15,1.44,-1.25,-0.91,-51.37,-30.38,-1.34
4597,-7.87,-8.39,0.47,0.98,-0.68,-0.76,-51.37,-30.38,-1.34
4603,-7.87,-8.39,0.47,0.98,-0.68,-0.76,-51.37,-30.38,-1.34
4614,-8.01,-9.37,-0.15,0.45,-0.14,-0.30,-38.68,-33.94,11.81
4625,-8.01,-9.37,-0.15,0.45,-0.14,-0.30,-38.68,-33.94,11.81
4636,-7.93,-7.02,-2.56,0.09,0.24,0.22,-38.68,-33.94,11.81
4647,-7.93,-7.02,-2.56,0.09,0.24,0.22,-38.68,-33.94,11.81
4658,-9.48,-4.82,-3.92,1.09,0.50,0.29,-38.68,-33.94,11.81
4669,-10.03,-4.85,-4.72,2.55,0.48,-0.25,-38.68,-33.94,11.81
4680,-10.03,-4.85,-4.72,2.55,0.48,-0.25,-38.68,-33.94,11.81
4691,-6.07,-7.68,-3.02,4.12,0.08,-0.64,-38.68,-33.94,11.81
4702,-6.07,-7.68,-3.02,4.12,0.08,-0.64,-38.68,-33.94,11.81
4713,-7.29,-8.84,-0.43,2.67,-0.47,-0.56,-38.68,-33.94,11.81
4724,-7.29,-8.84,-0.43,2.67,-0.47,-0.56,-38.68,-33.94,11.81
4735,-7.26,-6.56,-2.13,0.12,-0.66,-0.48,-38.68,-32.39,17.82
4746,-7.26,-6.56,-2.13,0.12,-0.66,-0.48,-38.68,-32.39,17.82
4757,-7.36,-7.08,0.03,1.16,-0.68,-0.39,-38.68,-32.39,17.82
4768,-8.10,-8.19,-0.02,0.82,-0.54,-0.37,-38.68,-32.39,17.82
4779,-8.10,-8.19,-0.02,0.82,-0.54,-0.37,-38.68,-32.39,17.82
4790,-7.04,-9.12,0.50,0.24,-0.50,-0.21,-38.68,-32.39,17.82
4801,-7.04,-9.12,0.50,0.24,-0.50,-0.21,-38.68,-32.39,17.82
4812,-7.03,-8.90,-0.19,-0.96,-0.90,0.12,-38.68,-32.39,17.82
4823,-7.03,-8.90,-0.19,-0.96,-0.90,0.12,-38.68,-32.39,17.82
4834,-6.88,-8.18,-0.24,-2.00,-1.13,0.36,-38.68,-32.39,17.82
4845,-6.88,-8.18,-0.24,-2.00,-1.13,0.36,-38.68,-32.39,17.82
4856,-7.00,-8.00,-0.15,-2.87,-1.28,0.31,-37.07,-34.71,17.98
4867,-7.00,-8.00,-0.15,-2.87,-1.28,0.31,-37.07,-34.71,17.98
4878,-6.93,-8.68,-0.26,-3.97,-1.46,0.35,-37.07,-34.71,17.98
4889,-5.94,-8.55,-0.83,-5.06,-1.68,0.44,-37.07,-34.71,17.98
4900,-5.94,-8.55,-0.83,-5.06,-1.68,0.44,-37.07,-34.71,17.98
4911,-7.26,-8.86,1.70,-4.27,-1.60,0.72,-37.07,-34.71,17.98
4922,-7.26,-8.86,1.70,-4.27,-1.60,0.72,-37.07,-34.71,17.98
4933,-8.42,-8.67,2.76,-5.00,-1.05,1.10,-37.07,-34.71,17.98
4944,-8.42,-8.67,2.76,-5.00,-1.05,1.10,-37.07,-34.71,17.98
4955,-7.59,-7.59,1.28,-6.99,-0.46,1.39,-37.07,-34.71,17.98
4966,-7.59,-7.59,1.28,-6.99,-0.46,1.39,-37.07,-34.71,17.98
4977,-6.40,-5.36,-1.33,-7.92,-0.10,1.66,-37.07,-34.71,17.98
4988,-8.03,-3.37,-2.02,-7.11,0.17,1.94,-40.76,-33.16,34.45
4999,-8.03,-3.37,-2.02,-7.11,0.17,1.94,-40.76,-33.16,-6.09
5010,-7.86,-0.51,-4.38,-5.87,0.37,1.90,-40.76,-33.16,-6.09
5021,-7.86,-0.51,-4.38,-5.87,0.37,1.90,-40.76,-33.16,-6.09
5032,-9.22,1.49,-3.84,-5.18,0.41,1.51,-40.76,-33.16,-6.09
5043,-9.22,1.49,-3.84,-5.18,0.41,1.51,-40.76,-33.16,-6.09
5054,-9.60,0.92,-2.90,-5.34,0.60,0.66,-40.76,-33.16,-6.09
5065,-9.60,0.92,-2.90,-5.34,0.60,0.66,-40.76,-33.16,-6.09
5076,-7.90,0.51,-8.28,-5.06,1.04,0.00,-40.76,-33.16,-6.09
5087,-7.90,0.51,-8.28,-5.06,1.04,0.00,-40.76,-33.16,-6.09
5098,-7.06,-0.66,-9.95,-2.93,0.72,-0.27,-40.76,-33.16,-6.09
5109,-7.94,-3.89,-3.76,-1.36,-0.11,-0.29,-40.99,-21.87,-22.71
5120,-7.94,-3.89,-3.76,-1.36,-0.11,-0.29,-40.99,-21.87,-22.71
5131,-7.74,-3.27,-5.05,-2.84,-0.04,0.22,-40.99,-21.87,-22.71
5142,-7.74,-3.27,-5.05,-2.84,-0.04,0.22,-40.99,-21.87,-22.71
5153,-7.31,0.30,-8.50,-3.17,0.23,0.71,-40.99,-21.87,-22.71
5164,-7.31,0.30,-8.50,-3.17,0.23,0.71,-40.99,-21.87,-22.71
5175,-7.82,1.94,-7.43,-2.49,-0.22,0.68,-40.99,-21.87,-22.71
5186,-7.82,1.94,-7.43,-2.49,-0.22,0.68,-40.99,-21.87,-22.71
5197,-8.43,2.23,-5.97,-1.02,-0.34,0.29,-40.99,-21.87,-22.71
5208,-8.43,2.23,-5.97,-1.02,-0.34,0.29,-40.99,-21.87,-22.71
5219,-7.80,0.99,-6.93,0.10,0.04,-0.20,-40.99,-21.87,-22.71
5230,-7.54,-0.95,-7.51,0.51,0.01,-0.33,-44.68,-16.29,-25.24
5241,-7.54,-0.95,-7.51,0.51,0.01,-0.33,-44.68,-16.29,-25.24
5252,-8.11,-1.61,-5.37,0.05,-0.34,0.00,-44.68,-16.29,-25.24
5263,-8.11,-1.61,-5.37,0.05,-0.34,0.00,-44.68,-16.29,-25.24
5274,-8.30,-0.18,-6.32,-0.62,-0.21,0.36,-44.68,-16.29,-25.24
5285,-8.30,-0.18,-6.32,-0.62,-0.21,0.36,-44.68,-16.29,-25.24
5297,-8.60,1.29,-7.25,-0.82,-0.12,0.33,-44.68,-16.29,-25.24
5307,-8.60,1.29,-7.25,-0.82,-0.12,0.33,-44.68,-16.29,-25.24
5318,-8.32,1.27,-6.11,-0.30,-0.11,0.03,-44.68,-16.29,-25.24
5329,-7.31,0.25,-6.63,0.07,-0.01,-0.21,-44.68,-16.29,-25.24
5340,-7.31,0.25,-6.63,0.07,-0.01,-0.21,-44.68,-16.29,-25.24
5351,-8.03,-0.21,-6.20,0.20,-0.06,-0.07,-44.68,-16.29,-25.24
5362,-8.03,-0.21,-6.20,0.20,-0.06,-0.07,-44.68,-16.29,-25.24
5373,-8.60,0.84,-6.14,-0.05,-0.05,0.09,-44.45,-13.35,-25.40
5384,-8.60,0.84,-6.14,-0.05,-0.05,0.09,-44.45,-13.35,-25.40
5395,-8.17,0.29,-6.43,-0.18,0.08,0.04,-44.45,-13.35,-25.40
5406,-8.17,0.29,-6.43,-0.18,0.08,0.04,-44.45,-13.35,-25.40
5417,-7.45,-0.09,-6.70,-0.24,0.10,0.04,-44.45,-13.35,-25.40
5428,-7.45,-0.09,-6.70,-0.24,0.10,0.04,-44.45,-13.35,-25.40
5439,-7.88,0.09,-6.35,-0.33,-0.05,0.10,-44.45,-13.35,-25.40
5450,-8.36,0.69,-6.24,-0.31,-0.04,0.17,-44.45,-13.35,-25.40
5461,-8.36,0.69,-6.24,-0.31,-0.04,0.17,-44.45,-13.35,-25.40
5472,-8.25,0.31,-6.43,-0.25,0.05,0.08,-44.45,-13.35,-25.40
5483,-8.25,0.31,-6.43,-0.25,0.05,0.08,-44.45,-13.35,-25.40
5494,-7.73,-0.13,-6.50,-0.29,0.06,0.01,-44.91,-13.05,-27.62
5505,-7.73,-0.13,-6.50,-0.29,0.06,0.01,-44.91,-13.05,-27.62
5516,-7.85,0.37,-6.67,-0.33,0.03,0.07,-44.91,-13.05,-27.62
5527,-7.85,0.37,-6.67,-0.33,0.03,0.07,-44.91,-13.05,-27.62
5538,-8.01,0.62,-6.46,-0.27,0.03,0.07,-44.91,-13.05,-27.62
5549,-7.94,0.85,-6.80,-0.17,0.08,0.01,-44.91,-13.05,-27.62
5560,-7.94,0.85,-6.80,-0.17,0.08,0.01,-44.91,-13.05,-27.62
5571,-7.61,0.40,-6.91,-0.04,0.09,-0.07,-44.91,-13.05,-27.62
5582,-7.61,0.40,-6.91,-0.04,0.09,-0.07,-44.91,-13.05,-27.62
5593,-7.53,0.23,-6.83,-0.00,0.05,-0.07,-44.91,-13.05,-27.62
5604,-7.53,0.23,-6.83,-0.00,0.05,-0.07,-44.91,-13.05,-27.62
5615,-7.67,0.36,-6.77,-0.04,-0.02,0.00,-42.83,-13.82,-27.14
5626,-7.67,0.36,-6.77,-0.04,-0.02,0.00,-42.83,-13.82,-27.14
5637,-7.88,0.54,-6.50,-0.02,-0.05,0.06,-42.83,-13.82,-27.14
5648,-7.88,0.54,-6.50,-0.02,-0.05,0.06,-42.83,-13.82,-27.14
5659,-8.09,0.55,-6.32,-0.05,-0.04,0.04,-42.83,-13.82,-27.14
5670,-7.94,0.61,-6.60,-0.08,-0.01,0.03,-42.83,-13.82,-27.14
5681,-7.94,0.61,-6.60,-0.08,-0.01,0.03,-42.83,-13.82,-27.14
5692,-7.95,0.87,-6.39,-0.06,-0.03,0.05,-42.83,-13.82,-27.14
5703,-7.95,0.87,-6.39,-0.06,-0.03,0.05,-42.83,-13.82,-27.14
5714,-8.09,1.04,-6.44,0.05,-0.03,0.01,-42.83,-13.82,-27.14
5725,-8.09,1.04,-6.44,0.05,-0.03,0.01,-42.83,-13.82,-27.14
5736,-7.99,0.49,-6.24,0.14,-0.03,-0.06,-42.83,-13.82,-27.14
5747,-7.99,0.49,-6.24,0.14,-0.03,-0.06,-42.83,-13.82,-27.14
5758,-7.94,0.43,-6.45,0.08,-0.04,-0.01,-45.60,-12.27,-27.46
5769,-8.23,0.74,-6.15,0.06,-0.06,0.02,-45.60,-12.27,-27.46
5780,-8.23,0.74,-6.15,0.06,-0.06,0.02,-45.60,-12.27,-27.46
5791,-7.96,0.36,-6.22,0.04,-0.02,-0.04,-45.60,-12.27,-27.46
5802,-7.96,0.36,-6.22,0.04,-0.02,-0.04,-45.60,-12.27,-27.46
5813,-7.87,0.34,-6.03,-0.05,0.00,0.00,-45.60,-12.27,-27.46
5824,-7.87,0.34,-6.03,-0.05,0.00,0.00,-45.60,-12.27,-27.46
5835,-8.05,1.15,-6.56,-0.07,0.05,0.10,-45.60,-12.27,-27.46
5846,-8.05,1.15,-6.56,-0.07,0.05,0.10,-45.60,-12.27,-27.46
5857,-7.88,1.04,-6.71,0.08,0.06,0.06,-45.60,-12.27,-27.46
5868,-7.88,1.04,-6.71,0.08,0.06,0.06,-45.60,-12.27,-27.46
5879,-7.56,0.57,-6.74,0.17,0.05,-0.00,-44.91,-13.35,-26.35
5890,-7.31,0.35,-7.31,0.05,0.05,0.02,-44.91,-13.35,-26.35
5901,-7.31,0.35,-7.31,0.05,0.05,0.02,-44.91,-13.35,-26.35
5912,-7.32,0.34,-7.37,-0.07,-0.07,0.01,-44.91,-13.35,-26.35
5924,-7.32,0.34,-7.37,-0.07,-0.07,0.01,-44.91,-13.35,-26.35
5934,-7.52,-0.32,-6.95,-0.09,-0.16,-0.02,-44.91,-13.35,-26.35
5945,-7.52,-0.32,-6.95,-0.09,-0.16,-0.02,-44.91,-13.35,-26.35
5956,-7.50,-0.42,-7.39,-0.09,-0.15,0.04,-44.91,-13.35,-26.35
5967,-7.50,-0.42,-7.39,-0.09,-0.15,0.04,-44.91,-13.35,-26.35
5978,-7.91,0.20,-6.77,-0.14,-0.17,0.13,-44.91,-13.35,-26.35
5989,-8.00,-0.20,-6.26,-0.38,-0.10,0.19,-43.06,-12.12,-27.94
6000,-8.00,-0.20,-6.26,-0.38,-0.10,0.19,-43.06,-12.12,-27.94
6011,-8.19,1.98,-7.10,-0.46,-0.04,0.19,-43.06,-12.12,-27.94
6022,-8.19,1.98,-7.10,-0.46,-0.04,0.19,-43.06,-12.12,-27.94
6033,-7.80,0.94,-6.14,0.07,0.05,0.02,-43.06,-12.12,-27.94
6044,-7.80,0.94,-6.14,0.07,0.05,0.02,-43.06,-12.12,-27.94
6055,-7.85,0.86,-6.67,-0.01,0.09,-0.02,-43.06,-12.12,-27.94
6066,-7.85,0.86,-6.67,-0.01,0.09,-0.02,-43.06,-12.12,-27.94
6077,-8.44,0.92,-5.66,-0.03,-0.07,-0.08,-43.06,-12.12,-27.94
6088,-8.44,0.92,-5.66,-0.03,-0.07,-0.08,-43.06,-12.12,-27.94
6099,-8.45,0.51,-5.32,-0.19,-0.14,-0.17,-43.06,-12.12,-27.94
6110,-8.38,0.59,-5.21,-0.32,-0.12,0.01,-43.99,-10.88,-26.99
6121,-8.38,0.59,-5.21,-0.32,-0.12,0.01,-43.99,-10.88,-26.99
6132,-9.08,1.65,-5.50,-0.99,-0.13,0.15,-43.99,-10.88,-26.99
6143,-9.08,1.65,-5.50,-0.99,-0.13,0.15,-43.99,-10.88,-26.99
6154,-9.40,1.46,-4.36,-0.39,-0.20,0.04,-43.99,-10.88,-26.99
6165,-9.40,1.46,-4.36,-0.39,-0.20,0.04,-43.99,-10.88,-26.99
6176,-8.88,0.11,-5.02,0.11,-0.05,-0.05,-43.99,-10.88,-26.99
6187,-8.88,0.11,-5.02,0.11,-0.05,-0.05,-43.99,-10.88,-26.99
6198,-8.21,0.71,-5.77,-0.02,0.03,0.04,-43.99,-10.88,-26.99
6209,-7.84,0.75,-6.99,-0.04,0.07,0.10,-43.99,-10.88,-26.99
6220,-7.84,0.75,-6.99,-0.04,0.07,0.10,-43.99,-10.88,-26.99
6231,-7.79,1.41,-7.35,-0.14,0.04,0.22,-43.99,-10.88,-26.99
6242,-7.79,1.41,-7.35,-0.14,0.04,0.22,-43.99,-10.88,-26.99
6253,-7.08,1.96,-7.30,-0.11,-0.04,0.18,-45.60,-11.34,-26.83
6265,-7.08,1.96,-7.30,-0.11,-0.04,0.18,-45.60,-11.34,-26.83
6275,-6.91,1.46,-7.25,0.11,-0.17,0.02,-45.60,-11.34,-26.83
6286,-6.91,1.46,-7.25,0.11,-0.17,0.02,-45.60,-11.34,-26.83
6297,-7.62,0.84,-6.94,0.22,-0.25,-0.07,-45.60,-11.34,-26.83
6308,-7.62,0.84,-6.94,0.22,-0.25,-0.07,-45.60,-11.34,-26.83
6319,-8.20,1.18,-6.86,0.21,-0.18,0.01,-45.60,-11.34,-26.83
6330,-8.41,1.02,-5.78,0.24,-0.09,0.02,-45.60,-11.34,-26.83
6341,-8.41,1.02,-5.78,0.24,-0.09,0.02,-45.60,-11.34,-26.83
6352,-8.17,0.48,-5.84,0.18,-0.03,-0.00,-45.60,-11.34,-26.83
6363,-8.17,0.48,-5.84,0.18,-0.03,-0.00,-45.60,-11.34,-26.83
6374,-8.95,0.93,-5.38,-0.03,-0.16,0.09,-46.98,-11.65,-26.19
6385,-8.95,0.93,-5.38,-0.03,-0.16,0.09,-46.98,-11.65,-26.19
6396,-9.16,1.70,-4.33,-0.07,-0.21,0.08,-46.98,-11.65,-26.19
6407,-9.16,1.70,-4.33,-0.07,-0.21,0.08,-46.98,-11.65,-26.19
6418,-9.01,1.18,-4.72,-0.19,-0.20,-0.08,-46.98,-11.65,-26.19
6429,-9.01,1.18,-4.72,-0.19,-0.20,-0.08,-46.98,-11.65,-26.19
6440,-9.17,1.47,-4.41,-0.44,-0.28,-0.11,-46.98,-11.65,-26.19
6451,-8.87,1.92,-4.99,-0.64,-0.31,-0.22,-46.98,-11.65,-26.19
6462,-8.87,1.92,-4.99,-0.64,-0.31,-0.22,-46.98,-11.65,-26.19
6473,-8.21,1.16,-5.73,-0.64,-0.30,-0.25,-46.98,-11.65,-26.19
6484,-8.21,1.16,-5.73,-0.64,-0.30,-0.25,-46.98,-11.65,-26.19
6495,-8.34,1.14,-5.89,-0.66,-0.39,-0.21,-48.83,-8.56,-25.56
6506,-8.34,1.14,-5.89,-0.66,-0.39,-0.21,-48.83,-8.56,-25.56
6517,-8.21,0.92,-5.55,-0.70,-0.40,-0.24,-48.83,-8.56,-25.56
6528,-8.21,0.92,-5.55,-0.70,-0.40,-0.24,-48.83,-8.56,-25.56
6539,-8.10,0.95,-6.51,-0.74,-0.25,-0.13,-48.83,-8.56,-25.56
6550,-8.24,0.97,-6.52,-0.56,-0.13,0.10,-48.83,-8.56,-25.56
6561,-8.24,0.97,-6.52,-0.56,-0.13,0.10,-48.83,-8.56,-25.56
6572,-7.84,1.24,-6.61,-0.54,0.01,0.18,-48.83,-8.56,-25.56
6583,-7.84,1.24,-6.61,-0.54,0.01,0.18,-48.83,-8.56,-25.56
6594,-7.39,0.97,-6.82,-0.49,-0.02,0.15,-48.83,-8.56,-25.56
6605,-7.39,0.97,-6.82,-0.49,-0.02,0.15,-48.83,-8.56,-25.56
6616,-8.41,1.28,-5.97,-0.46,-0.21,0.16,-48.83,-8.56,-25.56
6627,-8.41,1.28,-5.97,-0.46,-0.21,0.16,-48.83,-8.56,-25.56
6638,-8.95,1.83,-5.42,-0.48,-0.26,0.15,-51.83,-5.93,-25.40
6649,-8.95,1.83,-5.42,-0.48,-0.26,0.15,-51.83,-5.93,-25.40
6660,-8.97,1.44,-4.87,-0.71,-0.25,0.13,-51.83,-5.93,-25.40
6671,-8.87,2.06,-4.18,-0.94,-0.21,0.15,-51.83,-5.93,-25.40
6682,-8.87,2.06,-4.18,-0.94,-0.21,0.15,-51.83,-5.93,-25.40
6693,-8.85,2.59,-5.46,-0.96,-0.18,0.09,-51.83,-5.93,-25.40
6704,-8.85,2.59,-5.46,-0.96,-0.18,0.09,-51.83,-5.93,-25.40
6715,-9.42,2.65,-4.91,-0.85,-0.27,0.08,-51.83,-5.93,-25.40
6726,-9.42,2.65,-4.91,-0.85,-0.27,0.08,-51.83,-5.93,-25.40
6737,-8.96,2.59,-4.49,-0.60,-0.17,0.10,-51.83,-5.93,-25.40
6748,-8.96,2.59,-4.49,-0.60,-0.17,0.10,-51.83,-5.93,-25.40
6759,-8.43,2.42,-4.77,-0.20,-0.02,0.05,-51.37,-5.62,-25.72
6770,-8.31,1.98,-5.86,0.05,0.03,0.00,-51.37,-5.62,-25.72
6781,-8.31,1.98,-5.86,0.05,0.03,0.00,-51.37,-5.62,-25.72
6792,-8.45,2.12,-5.82,0.05,-0.03,0.01,-51.37,-5.62,-25.72
6803,-8.45,2.12,-5.82,0.05,-0.03,0.01,-51.37,-5.62,-25.72
6814,-8.33,2.46,-5.43,0.06,-0.03,0.03,-51.37,-5.62,-25.72
6825,-8.33,2.46,-5.43,0.06,-0.03,0.03,-51.37,-5.62,-25.72
6836,-8.49,2.24,-4.73,0.15,0.01,0.00,-51.37,-5.62,-25.72
6847,-8.49,2.24,-4.73,0.15,0.01,0.00,-51.37,-5.62,-25.72
6858,-9.08,2.22,-4.77,0.20,0.09,-0.02,-51.37,-5.62,-25.72
6869,-9.08,2.22,-4.77,0.20,0.09,-0.02,-51.37,-5.62,-25.72
6880,-8.31,1.94,-4.99,0.24,0.10,-0.06,-50.91,-3.76,-26.67
6891,-8.46,1.88,-4.61,0.22,-0.07,-0.09,-50.91,-3.76,-26.67
6902,-8.46,1.88,-4.61,0.22,-0.07,-0.09,-50.91,-3.76,-26.67
6913,-9.02,2.14,-4.65,0.23,-0.13,-0.05,-50.91,-3.76,-26.67
6924,-9.02,2.14,-4.65,0.23,-0.13,-0.05,-50.91,-3.76,-26.67
6935,-8.93,1.94,-5.03,0.19,-0.11,-0.06,-50.91,-3.76,-26.67
6946,-8.93,1.94,-5.03,0.19,-0.11,-0.06,-50.91,-3.76,-26.67
6957,-8.72,1.75,-5.39,0.12,-0.08,-0.03,-50.91,-3.76,-26.67
6968,-8.72,1.75,-5.39,0.12,-0.08,-0.03,-50.91,-3.76,-26.67
6979,-8.53,1.76,-5.25,0.09,-0.08,-0.02,-50.91,-3.76,-26.67
6990,-8.48,1.50,-5.28,0.10,-0.04,-0.05,-50.91,-3.76,-26.67
7001,-8.48,1.50,-5.28,0.10,-0.04,-0.05,-50.91,-3.76,-26.67
7017,-8.70,1.91,-5.17,0.04,-0.00,-0.02,-51.60,-4.53,-26.83
7023,-8.70,1.91,-5.17,0.04,-0.00,-0.02,-51.60,-4.53,-26.83
7034,-8.77,1.97,-4.99,-0.00,0.06,-0.01,-51.60,-4.53,-26.83
7045,-8.77,1.97,-4.99,-0.00,0.06,-0.01,-51.60,-4.53,-26.83
7056,-8.42,2.18,-5.10,-0.05,0.09,0.02,-51.60,-4.53,-26.83
7067,-8.42,2.18,-5.10,-0.05,0.09,0.02,-51.60,-4.53,-26.83
7078,-8.58,2.50,-5.03,-0.03,0.00,0.01,-51.60,-4.53,-26.83
7089,-8.58,2.50,-5.03,-0.03,0.00,0.01,-51.60,-4.53,-26.83
7100,-8.82,2.16,-4.90,0.10,-0.02,-0.04,-51.60,-4.53,-26.83
7111,-8.59,1.69,-5.14,0.14,0.00,-0.08,-51.60,-4.53,-26.83
7122,-8.59,1.69,-5.14,0.14,0.00,-0.08,-51.60,-4.53,-26.83
7133,-8.72,1.70,-5.20,0.14,-0.04,-0.05,-49.75,-5.46,-24.29
7144,-8.72,1.70,-5.20,0.14,-0.04,-0.05,-49.75,-5.46,-24.29
7155,-8.73,1.81,-5.19,0.13,-0.05,-0.00,-49.75,-5.46,-24.29
7166,-8.73,1.81,-5.19,0.13,-0.05,-0.00,-49.75,-5.46,-24.29
7177,-8.93,1.49,-4.97,0.12,-0.02,-0.02,-49.75,-5.46,-24.29
7188,-8.93,1.49,-4.97,0.12,-0.02,-0.02,-49.75,-5.46,-24.29
7199,-8.73,1.58,-5.18,0.05,0.02,-0.02,-49.75,-5.46,-24.29
7210,-8.55,1.83,-5.19,0.01,0.03,-0.03,-49.75,-5.46,-24.29
7221,-8.55,1.83,-5.19,0.01,0.03,-0.03,-49.75,-5.46,-24.29
7232,-8.46,1.95,-5.22,0.01,0.02,-0.04,-49.75,-5.46,-24.29
7243,-8.46,1.95,-5.22,0.01,0.02,-0.04,-49.75,-5.46,-24.29
7254,-8.52,1.99,-5.20,0.05,-0.01,-0.04,-50.21,-4.84,-25.88
7265,-8.52,1.99,-5.20,0.05,-0.01,-0.04,-50.21,-4.84,-25.88
7276,-8.64,1.99,-5.05,0.09,-0.01,-0.07,-50.21,-4.84,-25.88
7287,-8.64,1.99,-5.05,0.09,-0.01,-0.07,-50.21,-4.84,-25.88
7298,-8.71,1.87,-5.14,0.08,0.05,-0.09,-50.21,-4.84,-25.88
7309,-8.71,1.87,-5.14,0.08,0.05,-0.09,-50.21,-4.84,-25.88
7320,-8.66,2.00,-5.22,0.14,0.08,-0.14,-50.21,-4.84,-25.88
7331,-8.69,1.82,-5.74,0.19,0.03,-0.21,-50.21,-4.84,-25.88
7342,-8.69,1.82,-5.74,0.19,0.03,-0.21,-50.21,-4.84,-25.88
7353,-9.22,2.39,-4.91,0.06,-0.12,-0.12,-50.21,-4.84,-25.88
7364,-9.22,2.39,-4.91,0.06,-0.12,-0.12,-50.21,-4.84,-25.88
7375,-8.85,1.76,-4.70,0.08,-0.07,-0.17,-49.98,-8.71,-24.14
7386,-8.85,1.76,-4.70,0.08,-0.07,-0.17,-49.98,-8.71,-24.14
7398,-9.09,1.18,-4.87,0.12,0.02,-0.17,-49.98,-8.71,-24.14
7408,-9.09,1.18,-4.87,0.12,0.02,-0.17,-49.98,-8.71,-24.14
7419,-8.54,0.36,-5.71,-0.11,-0.14,-0.03,-49.98,-8.71,-24.14
7430,-8.54,0.36,-5.71,-0.11,-0.14,-0.03,-49.98,-8.71,-24.14
7441,-9.33,1.58,-4.04,-0.37,-0.49,0.22,-49.98,-8.71,-24.14
7452,-8.90,2.34,-5.16,-0.63,-0.52,0.22,-49.98,-8.71,-24.14
7463,-8.90,2.34,-5.16,-0.63,-0.52,0.22,-49.98,-8.71,-24.14
7474,-8.12,1.73,-4.72,-0.69,-0.67,0.13,-49.98,-8.71,-24.14
7485,-8.12,1.73,-4.72,-0.69,-0.67,0.13,-49.98,-8.71,-24.14
7496,-9.02,2.62,-4.70,-0.62,-0.62,0.02,-49.98,-8.71,-24.14
7507,-9.02,2.62,-4.70,-0.62,-0.62,0.02,-49.98,-8.71,-24.14
7518,-8.53,0.85,-5.41,-0.59,-0.46,-0.17,-51.83,-4.38,-25.40
7529,-8.53,0.85,-5.41,-0.59,-0.46,-0.17,-51.83,-4.38,-25.40
7540,-9.20,1.03,-4.03,-0.51,-0.45,-0.09,-51.83,-4.38,-25.40
7551,-9.09,-0.18,-5.06,-0.50,-0.33,-0.06,-51.83,-4.38,-25.40
7562,-9.09,-0.18,-5.06,-0.50,-0.33,-0.06,-51.83,-4.38,-25.40
7573,-9.58,0.47,-1.69,-0.49,-0.45,0.06,-51.83,-4.38,-25.40
7584,-9.58,0.47,-1.69,-0.49,-0.45,0.06,-51.83,-4.38,-25.40
7595,-10.98,0.08,-2.28,-0.43,0.47,0.22,-51.83,-4.38,-25.40
7606,-10.98,0.08,-2.28,-0.43,0.47,0.22,-51.83,-4.38,-25.40
7617,-8.91,2.54,-4.61,-0.63,1.38,0.73,-51.83,-4.38,-25.40
7628,-8.91,2.54,-4.61,-0.63,1.38,0.73,-51.83,-4.38,-25.40
7639,-5.78,5.98,-6.85,-0.55,1.38,0.61,-52.52,-2.37,-25.88
7650,-5.78,5.98,-6.85,-0.55,1.38,0.61,-52.52,-2.37,-25.88
7661,-7.52,4.67,-6.09,0.23,0.88,0.11,-52.52,-2.37,-25.88
7677,-6.93,4.50,-6.35,0.41,0.53,0.09,-52.52,-2.37,-25.88
7683,-6.93,4.50,-6.35,0.41,0.53,0.09,-52.52,-2.37,-25.88
7694,-7.61,4.28,-6.08,0.54,0.06,0.03,-52.52,-2.37,-25.88
7705,-7.61,4.28,-6.08,0.54,0.06,0.03,-52.52,-2.37,-25.88
7716,-8.50,2.51,-5.44,0.68,-0.33,-0.20,-52.52,-2.37,-25.88
7727,-8.50,2.51,-5.44,0.68,-0.33,-0.20,-52.52,-2.37,-25.88
7738,-8.09,1.53,-5.15,0.63,-0.57,-0.39,-52.52,-2.37,-25.88
7749,-8.09,1.53,-5.15,0.63,-0.57,-0.39,-52.52,-2.37,-25.88
7760,-12.64,0.14,-2.35,0.66,-0.67,-0.51,-52.06,-4.22,-24.29
7771,-9.11,1.00,-5.62,0.08,-0.06,-0.42,-52.06,-4.22,-24.29
7782,-9.11,1.00,-5.62,0.08,-0.06,-0.42,-52.06,-4.22,-24.29
7793,-8.78,1.49,-5.35,-0.03,0.04,-0.37,-52.06,-4.22,-24.29
7804,-8.78,1.49,-5.35,-0.03,0.04,-0.37,-52.06,-4.22,-24.29
7815,-8.93,1.71,-3.93,0.21,0.08,-0.29,-52.06,-4.22,-24.29
7826,-8.93,1.71,-3.93,0.21,0.08,-0.29,-52.06,-4.22,-24.29
7837,-10.65,-0.18,-3.21,0.44,0.35,-0.23,-52.06,-4.22,-24.29
7848,-10.65,-0.18,-3.21,0.44,0.35,-0.23,-52.06,-4.22,-24.29
7859,-13.28,-1.16,-1.93,-0.22,0.51,0.28,-52.06,-4.22,-24.29
7870,-13.28,-1.16,-1.93,-0.22,0.51,0.28,-52.06,-4.22,-24.29
7881,-7.14,3.40,-5.41,-1.16,0.68,0.74,-52.06,-4.22,-24.29
7892,-6.31,1.62,-5.15,-0.97,0.06,0.22,-51.14,-2.68,-26.83
7903,-6.31,1.62,-5.15,-0.97,0.06,0.22,-51.14,-2.68,-26.83
7914,-8.08,2.12,-5.45,-0.92,-0.47,0.22,-51.14,-2.68,-26.83
7925,-8.08,2.12,-5.45,-0.92,-0.47,0.22,-51.14,-2.68,-26.83
7936,-7.83,4.12,-5.30,-0.99,-0.70,0.35,-51.14,-2.68,-26.83
7947,-7.83,4.12,-5.30,-0.99,-0.70,0.35,-51.14,-2.68,-26.83
7958,-7.46,2.44,-5.45,-0.51,-0.61,0.15,-51.14,-2.68,-26.83
7969,-7.46,2.44,-5.45,-0.51,-0.61,0.15,-51.14,-2.68,-26.83
7980,-8.32,4.29,-5.93,-0.32,-0.48,0.31,-51.14,-2.68,-26.83
7991,-8.15,4.50,-5.33,-0.01,-0.37,0.24,-51.14,-2.68,-26.83
8007,-8.15,4.50,-5.33,-0.01,-0.37,0.24,-51.14,-2.68,-26.83
8013,-8.63,2.95,-4.72,0.32,-0.22,0.02,-52.29,-0.98,-25.09
8024,-8.63,2.95,-4.72,0.32,-0.22,0.02,-52.29,-0.98,-25.09
8035,-8.83,2.18,-4.27,0.52,-0.03,-0.04,-52.29,-0.98,-25.09
8046,-8.83,2.18,-4.27,0.52,-0.03,-0.04,-52.29,-0.98,-25.09
8057,-9.16,1.93,-4.23,0.48,0.00,-0.06,-52.29,-0.98,-25.09
8068,-9.16,1.93,-4.23,0.48,0.00,-0.06,-52.29,-0.98,-25.09
8079,-10.09,1.39,-3.47,0.26,-0.12,-0.02,-52.29,-0.98,-25.09
8090,-10.09,1.39,-3.47,0.26,-0.12,-0.02,-52.29,-0.98,-25.09
8101,-9.61,0.90,-3.00,-0.15,-0.25,0.06,-52.29,-0.98,-25.09
8112,-9.34,2.67,-4.96,-0.33,-0.05,0.08,-52.29,-0.98,-25.09
8123,-9.34,2.67,-4.96,-0.33,-0.05,0.08,-52.29,-0.98,-25.09
8134,-8.72,1.68,-4.78,-0.43,-0.02,-0.16,-52.75,-1.90,-24.77
8145,-8.72,1.68,-4.78,-0.43,-0.02,-0.16,-52.75,-1.90,-24.77
8156,-8.65,1.94,-4.52,-0.43,-0.02,-0.18,-52.75,-1.90,-24.77
8167,-8.65,1.94,-4.52,-0.43,-0.02,-0.18,-52.75,-1.90,-24.77
8178,-8.41,2.47,-4.25,-0.31,0.15,-0.27,-52.75,-1.90,-24.77
8189,-8.41,2.47,-4.25,-0.31,0.15,-0.27,-52.75,-1.90,-24.77
8200,-8.38,2.90,-4.52,0.00,0.37,-0.26,-52.75,-1.90,-24.77
8211,-8.98,3.19,-4.54,0.11,0.29,-0.12,-52.75,-1.90,-24.77
8222,-8.98,3.19,-4.54,0.11,0.29,-0.12,-52.75,-1.90,-24.77
8233,-8.84,2.78,-3.12,0.07,0.09,0.01,-52.75,-1.90,-24.77
8244,-8.84,2.78,-3.12,0.07,0.09,0.01,-52.75,-1.90,-24.77
8255,-8.95,1.61,-3.74,0.08,0.13,0.09,-52.75,-1.90,-24.77
8266,-8.95,1.61,-3.74,0.08,0.13,0.09,-52.75,-1.90,-24.77
8277,-9.60,1.59,-5.66,-0.22,-0.03,0.31,-54.14,-0.36,-25.09
8288,-9.60,1.59,-5.66,-0.22,-0.03,0.31,-54.14,-0.36,-25.09
8299,-9.07,1.88,-4.77,-0.54,-0.40,0.33,-54.14,-0.36,-25.09
8311,-9.07,1.88,-4.77,-0.54,-0.40,0.33,-54.14,-0.36,-25.09
8321,-9.05,1.94,-5.20,-0.51,-0.31,0.13,-54.14,-0.36,-25.09
8337,-8.62,2.88,-4.86,-0.56,-0.30,0.00,-54.14,-0.36,-25.09
8343,-8.62,2.88,-4.86,-0.56,-0.30,0.00,-54.14,-0.36,-25.09
8354,-8.71,3.30,-3.60,-0.39,-0.14,-0.15,-54.14,-0.36,-25.09
8365,-8.71,3.30,-3.60,-0.39,-0.14,-0.15,-54.14,-0.36,-25.09
8376,-8.48,2.94,-4.47,-0.14,0.16,-0.27,-54.14,-0.36,-25.09
8387,-8.48,2.94,-4.47,-0.14,0.16,-0.27,-54.14,-0.36,-25.09
8398,-8.72,3.17,-3.53,-0.10,0.07,-0.11,-53.44,0.42,-24.93
8409,-8.72,3.17,-3.53,-0.10,0.07,-0.11,-53.44,0.42,-24.93
8420,-9.35,2.53,-4.07,-0.11,0.05,-0.03,-53.44,0.42,-24.93
8431,-9.35,2.53,-4.07,-0.11,0.05,-0.03,-53.44,0.42,-24.93
8442,-9.44,1.79,-4.77,-0.22,-0.02,-0.08,-53.44,0.42,-24.93
8453,-8.73,2.34,-3.99,-0.40,-0.13,-0.11,-53.44,0.42,-24.93
8464,-8.73,2.34,-3.99,-0.40,-0.13,-0.11,-53.44,0.42,-24.93
8475,-8.57,3.34,-4.36,-0.29,0.04,-0.11,-53.44,0.42,-24.93
8486,-8.57,3.34,-4.36,-0.29,0.04,-0.11,-53.44,0.42,-24.93
8497,-7.57,3.60,-3.70,-0.07,0.22,-0.18,-53.44,0.42,-24.93
8508,-7.57,3.60,-3.70,-0.07,0.22,-0.18,-53.44,0.42,-24.93
8519,-8.47,2.86,-4.80,0.36,0.53,-0.19,-52.75,0.88,-26.04
8530,-8.47,2.86,-4.80,0.36,0.53,-0.19,-52.75,0.88,-26.04
8541,-8.97,2.25,-4.34,0.18,0.23,-0.02,-52.75,0.88,-26.04
8552,-8.96,2.34,-3.96,-0.00,-0.01,0.26,-52.75,0.88,-26.04
8563,-8.96,2.34,-3.96,-0.00,-0.01,0.26,-52.75,0.88,-26.04
8574,-9.39,2.70,-4.07,-0.15,-0.15,0.35,-52.75,0.88,-26.04
8585,-9.39,2.70,-4.07,-0.15,-0.15,0.35,-52.75,0.88,-26.04
8596,-9.32,1.77,-5.33,-0.28,-0.23,0.12,-52.75,0.88,-26.04
8607,-9.32,1.77,-5.33,-0.28,-0.23,0.12,-52.75,0.88,-26.04
8618,-8.90,1.98,-4.39,-0.44,-0.38,0.01,-52.75,0.88,-26.04
8629,-8.90,1.98,-4.39,-0.44,-0.38,0.01,-52.75,0.88,-26.04
8640,-8.57,3.08,-3.96,-0.37,-0.27,-0.06,-52.75,0.88,-26.04
8651,-8.57,3.08,-3.96,-0.37,-0.27,-0.06,-52.75,0.88,-26.04
8662,-8.53,3.17,-3.71,-0.15,0.03,-0.19,-53.44,2.27,-25.24
8673,-8.76,3.19,-3.99,0.10,0.25,-0.21,-53.44,2.27,-25.24
8684,-8.76,3.19,-3.99,0.10,0.25,-0.21,-53.44,2.27,-25.24
8695,-9.06,3.01,-3.42,0.15,0.23,-0.14,-53.44,2.27,-25.24
8706,-9.06,3.01,-3.42,0.15,0.23,-0.14,-53.44,2.27,-25.24
8717,-8.89,2.76,-3.18,0.05,0.15,-0.07,-53.44,2.27,-25.24
8728,-8.89,2.76,-3.18,0.05,0.15,-0.07,-53.44,2.27,-25.24
8739,-9.25,1.26,-6.54,-0.10,0.14,-0.02,-53.44,2.27,-25.24
8750,-9.25,1.26,-6.54,-0.10,0.14,-0.02,-53.44,2.27,-25.24
8766,-8.83,1.99,-5.06,-0.48,-0.33,0.08,-53.44,2.27,-25.24
8772,-8.61,3.08,-4.06,-0.59,-0.44,0.01,-55.06,1.50,-25.40
8783,-8.61,3.08,-4.06,-0.59,-0.44,0.01,-55.06,1.50,-25.40
8794,-8.75,3.36,-4.02,-0.38,-0.21,-0.09,-55.06,1.50,-25.40
8805,-8.75,3.36,-4.02,-0.38,-0.21,-0.09,-55.06,1.50,-25.40
8816,-9.23,3.14,-3.28,-0.15,0.05,-0.24,-55.06,1.50,-25.40
8827,-9.23,3.14,-3.28,-0.15,0.05,-0.24,-55.06,1.50,-25.40
8838,-8.84,2.41,-4.10,0.15,0.38,-0.32,-55.06,1.50,-25.40
8849,-8.84,2.41,-4.10,0.15,0.38,-0.32,-55.06,1.50,-25.40
8860,-8.88,3.04,-3.41,0.05,0.18,-0.12,-55.06,1.50,-25.40
8871,-8.88,3.04,-3.41,0.05,0.18,-0.12,-55.06,1.50,-25.40
8882,-9.53,2.08,-3.77,-0.03,0.10,-0.03,-55.06,1.50,-25.40
8893,-9.39,1.50,-6.24,-0.28,-0.03,-0.02,-53.67,1.50,-24.14
8904,-9.39,1.50,-6.24,-0.28,-0.03,-0.02,-53.67,1.50,-24.14
8915,-8.84,2.43,-3.12,-0.45,-0.46,0.06,-53.67,1.50,-24.14
8926,-8.84,2.43,-3.12,-0.45,-0.46,0.06,-53.67,1.50,-24.14
8937,-8.69,3.80,-3.23,-0.28,-0.15,-0.08,-53.67,1.50,-24.14
8948,-8.69,3.80,-3.23,-0.28,-0.15,-0.08,-53.67,1.50,-24.14
8959,-8.66,2.95,-4.23,-0.01,0.14,-0.28,-53.67,1.50,-24.14
8970,-8.66,2.95,-4.23,-0.01,0.14,-0.28,-53.67,1.50,-24.14
8981,-8.99,2.49,-3.31,-0.03,0.02,-0.15,-53.67,1.50,-24.14
8992,-9.95,1.76,-5.60,-0.21,-0.03,-0.06,-53.67,1.50,-24.14
9003,-9.95,1.76,-5.60,-0.21,-0.03,-0.06,-53.67,1.50,-24.14
9014,-10.43,2.23,-2.36,-0.55,-0.40,-0.06,-52.06,1.04,-23.66
9025,-10.43,2.23,-2.36,-0.55,-0.40,-0.06,-52.06,1.04,-23.66
9036,-11.21,1.30,-1.03,-0.38,-0.07,-0.26,-52.06,1.04,-23.66
9048,-11.21,1.30,-1.03,-0.38,-0.07,-0.26,-52.06,1.04,-23.66
9058,-9.65,0.66,-3.49,-0.08,1.07,-0.02,-52.06,1.04,-23.66
9069,-9.65,0.66,-3.49,-0.08,1.07,-0.02,-52.06,1.04,-23.66
9080,-6.38,0.10,-6.15,0.07,1.33,0.11,-52.06,1.04,-23.66
9091,-6.38,0.10,-6.15,0.07,1.33,0.11,-52.06,1.04,-23.66
9102,-6.93,2.00,-5.85,0.04,0.67,0.33,-52.06,1.04,-23.66
9113,-7.47,5.91,-5.33,-0.08,0.09,0.55,-52.06,1.04,-23.66
9124,-7.47,5.91,-5.33,-0.08,0.09,0.55,-52.06,1.04,-23.66
9135,-7.97,6.84,-4.53,0.11,-0.20,0.43,-52.06,1.04,-23.66
9146,-7.97,6.84,-4.53,0.11,-0.20,0.43,-52.06,1.04,-23.66
9157,-7.54,5.38,-5.21,0.34,-0.19,0.19,-51.37,2.43,-25.72
9168,-7.54,5.38,-5.21,0.34,-0.19,0.19,-51.37,2.43,-25.72
9179,-8.05,4.14,-4.57,0.45,-0.35,0.06,-51.37,2.43,-25.72
9190,-8.05,4.14,-4.57,0.45,-0.35,0.06,-51.37,2.43,-25.72
9201,-8.04,3.03,-4.65,0.61,-0.36,-0.21,-51.37,2.43,-25.72
9212,-11.86,-0.04,-2.30,0.67,-0.27,-0.41,-51.37,2.43,-25.72
9223,-11.86,-0.04,-2.30,0.67,-0.27,-0.41,-51.37,2.43,-25.72
9234,-9.21,0.48,-4.52,0.05,0.01,-0.19,-51.37,2.43,-25.72
9245,-9.21,0.48,-4.52,0.05,0.01,-0.19,-51.37,2.43,-25.72
9256,-9.79,3.19,-2.26,-0.29,-0.19,0.11,-51.37,2.43,-25.72
9267,-9.79,3.19,-2.26,-0.29,-0.19,0.11,-51.37,2.43,-25.72
9278,-10.05,2.70,-5.19,-0.54,-0.08,-0.02,-52.75,0.26,-25.09
9289,-10.05,2.70,-5.19,-0.54,-0.08,-0.02,-52.75,0.26,-25.09
9300,-8.68,0.98,-4.27,-0.84,-0.37,-0.06,-52.75,0.26,-25.09
9311,-8.68,0.98,-4.27,-0.84,-0.37,-0.06,-52.75,0.26,-25.09
9322,-8.35,2.76,-4.45,-0.80,-0.37,0.16,-52.75,0.26,-25.09
9333,-8.60,3.68,-5.13,-0.36,-0.15,0.20,-52.75,0.26,-25.09
9344,-8.60,3.68,-5.13,-0.36,-0.15,0.20,-52.75,0.26,-25.09
9355,-9.19,3.46,-2.00,-0.05,0.04,-0.00,-52.75,0.26,-25.09
9366,-9.19,3.46,-2.00,-0.05,0.04,-0.00,-52.75,0.26,-25.09
9377,-8.74,1.41,-5.12,0.04,0.48,-0.24,-52.75,0.26,-25.09
9388,-8.74,1.41,-5.12,0.04,0.48,-0.24,-52.75,0.26,-25.09
9399,-9.01,2.57,-3.53,-0.29,0.10,0.02,-54.83,2.58,-23.66
9410,-9.01,2.57,-3.53,-0.29,0.10,0.02,-54.83,2.58,-23.66
9421,-9.37,4.15,-3.48,-0.35,0.04,0.06,-54.83,2.58,-23.66
9432,-9.37,4.15,-3.48,-0.35,0.04,0.06,-54.83,2.58,-23.66
9443,-8.27,3.01,-4.65,-0.20,0.17,-0.08,-54.83,2.58,-23.66
9454,-8.99,3.67,-4.09,-0.10,0.08,0.03,-54.83,2.58,-23.66
9465,-8.99,3.67,-4.09,-0.10,0.08,0.03,-54.83,2.58,-23.66
9476,-8.84,3.00,-2.64,-0.02,-0.01,0.03,-54.83,2.58,-23.66
9487,-8.84,3.00,-2.64,-0.02,-0.01,0.03,-54.83,2.58,-23.66
9498,-9.53,2.48,-5.42,0.00,0.11,0.06,-54.83,2.58,-23.66
9509,-9.53,2.48,-5.42,0.00,0.11,0.06,-54.83,2.58,-23.66
9520,-9.67,3.19,-4.03,-0.31,-0.31,0.17,-54.83,2.58,-23.66
9531,-9.67,3.19,-4.03,-0.31,-0.31,0.17,-54.83,2.58,-23.66
9542,-8.51,2.05,-3.75,-0.45,-0.45,0.00,-53.21,3.36,-24.77
9553,-8.97,2.45,-5.06,-0.39,-0.23,-0.04,-53.21,3.36,-24.77
9564,-8.97,2.45,-5.06,-0.39,-0.23,-0.04,-53.21,3.36,-24.77
9575,-8.90,3.53,-2.42,-0.31,-0.16,-0.07,-53.21,3.36,-24.77
9586,-8.90,3.53,-2.42,-0.31,-0.16,-0.07,-53.21,3.36,-24.77
9597,-8.83,3.98,-3.21,0.05,0.28,-0.20,-53.21,3.36,-24.77
9608,-8.83,3.98,-3.21,0.05,0.28,-0.20,-53.21,3.36,-24.77
9619,-8.98,3.20,-4.26,0.27,0.44,-0.23,-53.21,3.36,-24.77
9630,-8.98,3.20,-4.26,0.27,0.44,-0.23,-53.21,3.36,-24.77
9641,-9.23,3.15,-2.84,-0.00,0.14,-0.11,-53.21,3.36,-24.77
9652,-9.23,3.15,-2.84,-0.00,0.14,-0.11,-53.21,3.36,-24.77
9663,-9.40,1.47,-5.76,-0.31,0.05,-0.06,-55.52,3.67,-25.72
9674,-8.96,1.79,-4.19,-0.71,-0.39,0.07,-55.52,3.67,-25.72
9685,-8.96,1.79,-4.19,-0.71,-0.39,0.07,-55.52,3.67,-25.72
9696,-8.88,3.07,-3.65,-0.80,-0.48,0.09,-55.52,3.67,-25.72
9707,-8.88,3.07,-3.65,-0.80,-0.48,0.09,-55.52,3.67,-25.72
9718,-8.89,4.55,-3.17,-0.59,-0.30,0.02,-55.52,3.67,-25.72
9729,-8.89,4.55,-3.17,-0.59,-0.30,0.02,-55.52,3.67,-25.72
9740,-9.02,3.95,-2.43,-0.22,0.05,-0.24,-55.52,3.67,-25.72
9751,-9.02,3.95,-2.43,-0.22,0.05,-0.24,-55.52,3.67,-25.72
9762,-8.77,2.36,-3.75,0.07,0.30,-0.33,-55.52,3.67,-25.72
9773,-9.52,2.68,-3.91,-0.04,0.15,-0.13,-53.44,4.44,-24.29
9784,-9.52,2.68,-3.91,-0.04,0.15,-0.13,-53.44,4.44,-24.29
9795,-9.31,1.88,-4.22,-0.31,-0.04,-0.09,-53.44,4.44,-24.29
9806,-9.31,1.88,-4.22,-0.31,-0.04,-0.09,-53.44,4.44,-24.29
9817,-9.19,3.01,-3.20,-0.51,-0.17,-0.09,-53.44,4.44,-24.29
9828,-9.19,3.01,-3.20,-0.51,-0.17,-0.09,-53.44,4.44,-24.29
9839,-8.69,3.74,-3.61,-0.43,0.04,-0.23,-53.44,4.44,-24.29
9850,-8.69,3.74,-3.61,-0.43,0.04,-0.23,-53.44,4.44,-24.29
9861,-8.21,2.93,-3.91,-0.20,0.26,-0.30,-53.44,4.44,-24.29
9872,-8.21,2.93,-3.91,-0.20,0.26,-0.30,-53.44,4.44,-24.29
9883,-8.60,3.39,-3.28,0.10,0.43,-0.17,-53.44,4.44,-24.29
9894,-8.78,3.14,-4.13,0.26,0.39,-0.07,-53.44,4.44,-24.29
9905,-8.78,3.14,-4.13,0.26,0.39,-0.07,-53.44,4.44,-24.29
9916,-9.35,2.89,-2.68,0.16,0.06,0.13,-54.83,3.51,-25.88
9927,-9.35,2.89,-2.68,0.16,0.06,0.13,-54.83,3.51,-25.88
9938,-9.86,3.39,-3.96,0.11,-0.10,0.37,-54.83,3.51,-25.88
9949,-9.86,3.39,-3.96,0.11,-0.10,0.37,-54.83,3.51,-25.88
9960,-9.70,2.66,-2.93,0.00,-0.30,0.23,-54.83,3.51,-25.88
9971,-9.70,2.66,-2.93,0.00,-0.30,0.23,-54.83,3.51,-25.88
9983,-9.11,1.57,-5.04,-0.07,-0.19,-0.04,-54.83,3.51,-25.88
9993,-8.94,2.30,-3.49,-0.21,-0.29,-0.03,-54.83,3.51,-25.88
10009,-8.94,2.30,-3.49,-0.21,-0.29,-0.03,-54.83,3.51,-25.88
10015,-9.00,4.09,-2.74,-0.21,-0.08,-0.09,-54.83,3.51,-25.88
10026,-9.00,4.09,-2.74,-0.21,-0.08,-0.09,-54.83,3.51,-25.88
10037,-8.44,3.07,-4.68,0.05,0.34,-0.32,-55.52,4.60,-24.14
10048,-8.44,3.07,-4.68,0.05,0.34,-0.32,-55.52,4.60,-24.14
10059,-9.14,3.63,-3.26,0.09,0.23,-0.18,-55.52,4.60,-24.14
10070,-9.14,3.63,-3.26,0.09,0.23,-0.18,-55.52,4.60,-24.14
10081,-9.12,2.78,-2.47,-0.02,0.07,-0.11,-55.52,4.60,-24.14
10092,-9.12,2.78,-2.47,-0.02,0.07,-0.11,-55.52,4.60,-24.14
10103,-9.72,2.70,-4.33,-0.04,0.13,-0.05,-55.52,4.60,-24.14
10114,-9.40,1.85,-4.54,-0.20,-0.10,-0.06,-55.52,4.60,-24.14
10125,-9.40,1.85,-4.54,-0.20,-0.10,-0.06,-55.52,4.60,-24.14
10136,-9.14,2.55,-3.36,-0.34,-0.33,-0.06,-55.52,4.60,-24.14
10147,-9.14,2.55,-3.36,-0.34,-0.33,-0.06,-55.52,4.60,-24.14
10158,-8.79,3.16,-4.08,-0.38,-0.16,-0.16,-53.44,5.06,-23.34
10169,-8.79,3.16,-4.08,-0.38,-0.16,-0.16,-53.44,5.06,-23.34
10180,-9.05,3.98,-2.89,-0.24,0.04,-0.25,-53.44,5.06,-23.34
10196,-9.05,3.98,-2.89,-0.24,0.04,-0.25,-53.44,5.06,-23.34
10202,-9.50,3.03,-3.64,0.02,0.37,-0.34,-53.44,5.06,-23.34
10213,-9.23,2.51,-3.07,0.07,0.20,-0.13,-53.44,5.06,-23.34
10224,-9.23,2.51,-3.07,0.07,0.20,-0.13,-53.44,5.06,-23.34
10235,-9.30,2.78,-2.71,-0.02,0.05,0.03,-53.44,5.06,-23.34
10246,-9.30,2.78,-2.71,-0.02,0.05,0.03,-53.44,5.06,-23.34
10257,-9.64,3.06,-5.13,-0.09,0.05,-0.01,-53.44,5.06,-23.34
10268,-9.64,3.06,-5.13,-0.09,0.05,-0.01,-53.44,5.06,-23.34
10279,-9.37,2.25,-3.58,-0.22,-0.23,-0.13,-53.44,5.06,-23.34
10290,-9.37,2.25,-3.58,-0.22,-0.23,-0.13,-53.44,5.06,-23.34
10301,-8.94,1.69,-3.31,-0.26,-0.23,-0.11,-53.44,5.06,-23.34
10312,-8.94,1.69,-3.31,-0.26,-0.23,-0.11,-53.44,5.06,-23.34
10323,-9.55,2.65,-1.62,-0.01,0.03,0.07,-53.44,5.06,-23.34
10334,-7.61,2.82,-3.93,0.33,0.65,0.17,-53.44,5.06,-23.34
10345,-7.61,2.82,-3.93,0.33,0.65,0.17,-53.44,5.06,-23.34
10356,-8.53,5.35,-5.44,0.61,0.77,0.21,-53.44,5.06,-23.34
10367,-8.53,5.35,-5.44,0.61,0.77,0.21,-53.44,5.06,-23.34
10378,-10.09,3.19,-4.95,0.55,0.29,-0.14,-53.44,5.06,-23.34
10389,-10.09,3.19,-4.95,0.55,0.29,-0.14,-53.44,5.06,-23.34
10400,-9.32,-0.25,-3.27,0.22,-0.04,-0.22,-53.44,5.06,-23.34
10411,-9.32,-0.25,-3.27,0.22,-0.04,-0.22,-53.44,5.06,-23.34
10422,-11.27,0.24,-2.43,0.02,0.09,0.10,-50.44,2.74,-24.77
10433,-11.27,0.24,-2.43,0.02,0.09,0.10,-50.44,2.74,-24.77
10444,-8.95,2.28,-2.72,-0.27,0.41,0.37,-50.44,2.74,-24.77
10455,-6.15,5.98,-6.13,-0.13,0.64,0.16,-50.44,2.74,-24.77
10466,-6.15,5.98,-6.13,-0.13,0.64,0.16,-50.44,2.74,-24.77
10477,-7.28,6.91,-5.63,0.59,0.30,-0.42,-50.44,2.74,-24.77
10488,-7.28,6.91,-5.63,0.59,0.30,-0.42,-50.44,2.74,-24.77
10499,-10.85,1.89,-3.38,1.00,0.02,-0.81,-50.44,2.74,-24.77
10510,-10.85,1.89,-3.38,1.00,0.02,-0.81,-50.44,2.74,-24.77
10521,-9.18,-0.66,-3.04,0.48,0.05,-0.55,-50.44,2.74,-24.77
10532,-9.18,-0.66,-3.04,0.48,0.05,-0.55,-50.44,2.74,-24.77
10543,-9.80,1.53,-5.72,-0.03,0.06,-0.13,-51.37,3.05,-26.99
10554,-9.13,1.15,-4.66,-0.37,-0.37,0.03,-51.37,3.05,-26.99
10565,-9.13,1.15,-4.66,-0.37,-0.37,0.03,-51.37,3.05,-26.99
10576,-8.96,2.71,-4.42,-0.59,-0.65,0.21,-51.37,3.05,-26.99
10587,-8.96,2.71,-4.42,-0.59,-0.65,0.21,-51.37,3.05,-26.99
10598,-9.15,2.69,-3.48,-0.56,-0.73,0.19,-51.37,3.05,-26.99
10609,-9.15,2.69,-3.48,-0.56,-0.73,0.19,-51.37,3.05,-26.99
10620,-9.14,3.19,-4.29,-0.47,-0.56,0.13,-51.37,3.05,-26.99
10631,-9.14,3.19,-4.29,-0.47,-0.56,0.13,-51.37,3.05,-26.99
10642,-9.11,3.36,-3.59,-0.36,-0.47,-0.04,-51.37,3.05,-26.99
10653,-9.11,3.36,-3.59,-0.36,-0.47,-0.04,-51.37,3.05,-26.99
10664,-9.26,2.77,-3.27,-0.24,-0.26,-0.27,-54.60,3.67,-25.09
10675,-8.77,0.92,-3.01,-0.08,0.05,-0.42,-54.60,3.67,-25.09
10686,-8.77,0.92,-3.01,-0.08,0.05,-0.42,-54.60,3.67,-25.09
10697,-9.12,0.61,-4.19,-0.01,0.26,-0.15,-54.60,3.67,-25.09
10708,-9.12,0.61,-4.19,-0.01,0.26,-0.15,-54.60,3.67,-25.09
10719,-9.52,2.30,-2.56,-0.03,0.21,0.38,-54.60,3.67,-25.09
10730,-9.52,2.30,-2.56,-0.03,0.21,0.38,-54.60,3.67,-25.09
10741,-7.69,3.33,-3.56,0.03,0.38,0.60,-54.60,3.67,-25.09
10752,-7.69,3.33,-3.56,0.03,0.38,0.60,-54.60,3.67,-25.09
10763,-8.23,3.72,-3.62,0.37,0.46,0.72,-54.60,3.67,-25.09
10774,-7.83,4.29,-5.31,0.83,0.45,0.83,-54.60,3.67,-25.09
10785,-7.83,4.29,-5.31,0.83,0.45,0.83,-54.60,3.67,-25.09
10796,-8.57,5.09,-5.71,0.90,-0.06,0.68,-51.37,4.29,-25.09
10807,-8.57,5.09,-5.71,0.90,-0.06,0.68,-51.37,4.29,-25.09
10818,-11.41,3.33,-3.27,0.52,-0.39,0.02,-51.37,4.29,-25.09
10829,-11.41,3.33,-3.27,0.52,-0.39,0.02,-51.37,4.29,-25.09
10840,-10.04,0.81,-4.55,-0.01,0.00,-0.54,-51.37,4.29,-25.09
10851,-10.04,0.81,-4.55,-0.01,0.00,-0.54,-51.37,4.29,-25.09
10862,-8.85,-0.18,-3.00,-0.50,-0.01,-0.61,-51.37,4.29,-25.09
10873,-8.85,-0.18,-3.00,-0.50,-0.01,-0.61,-51.37,4.29,-25.09
10884,-9.38,-1.33,-3.35,-0.68,0.14,-0.27,-51.37,4.29,-25.09
10895,-11.45,-1.33,-1.85,-0.97,0.34,0.64,-51.37,4.29,-25.09
10906,-11.45,-1.33,-1.85,-0.97,0.34,0.64,-51.37,4.29,-25.09
10917,-8.88,-1.72,-2.99,-1.53,0.80,1.52,-50.68,6.30,-26.83
10928,-8.88,-1.72,-2.99,-1.53,0.80,1.52,-50.68,6.30,-26.83
10939,-7.89,2.79,-4.57,-2.01,0.88,2.30,-50.68,6.30,-26.83
10950,-7.89,2.79,-4.57,-2.01,0.88,2.30,-50.68,6.30,-26.83
10961,-8.34,5.15,-3.51,-1.73,0.77,2.44,-50.68,6.30,-26.83
10972,-8.34,5.15,-3.51,-1.73,0.77,2.44,-50.68,6.30,-26.83
10983,-7.62,6.41,-4.64,-1.17,0.87,2.20,-50.68,6.30,-26.83
10994,-6.00,6.65,-6.66,-0.73,0.71,1.70,-50.68,6.30,-26.83
11005,-6.00,6.65,-6.66,-0.73,0.71,1.70,-50.68,6.30,-26.83
11016,-6.21,7.60,-5.36,-0.56,-0.01,1.29,-50.68,6.30,-26.83
11027,-6.21,7.60,-5.36,-0.56,-0.01,1.29,-50.68,6.30,-26.83
11038,-6.78,6.93,-5.10,-0.09,-0.35,0.71,-45.37,14.50,-28.25
11049,-6.78,6.93,-5.10,-0.09,-0.35,0.71,-45.37,14.50,-28.25
11060,-7.89,6.49,-3.99,0.37,-0.53,0.30,-45.37,14.50,-28.25
11071,-7.89,6.49,-3.99,0.37,-0.53,0.30,-45.37,14.50,-28.25
11082,-7.76,7.75,-3.97,0.69,-0.56,-0.01,-45.37,14.50,-28.25
11093,-7.76,7.75,-3.97,0.69,-0.56,-0.01,-45.37,14.50,-28.25
11104,-7.91,7.87,-2.92,1.04,-0.56,-0.76,-45.37,14.50,-28.25
11115,-7.66,6.50,-3.67,1.30,-0.44,-1.58,-45.37,14.50,-28.25
11126,-7.66,6.50,-3.67,1.30,-0.44,-1.58,-45.37,14.50,-28.25
11137,-7.83,4.73,-3.53,1.48,-0.42,-1.91,-45.37,14.50,-28.25
11148,-7.83,4.73,-3.53,1.48,-0.42,-1.91,-45.37,14.50,-28.25
11159,-7.87,2.99,-3.47,1.53,-0.37,-1.81,-45.37,14.50,-28.25
11170,-7.87,2.99,-3.47,1.53,-0.37,-1.81,-45.37,14.50,-28.25
11181,-8.86,0.46,-3.10,1.42,-0.23,-1.24,-49.29,7.85,-26.51
11192,-8.86,0.46,-3.10,1.42,-0.23,-1.24,-49.29,7.85,-26.51
11204,-8.90,2.49,-3.93,0.78,-0.01,-0.09,-49.29,7.85,-26.51
11214,-7.51,7.82,-3.24,0.31,-0.01,0.72,-49.29,7.85,-26.51
11225,-7.51,7.82,-3.24,0.31,-0.01,0.72,-49.29,7.85,-26.51
11236,-7.06,7.49,-4.16,0.50,0.13,0.43,-49.29,7.85,-26.51
11247,-7.06,7.49,-4.16,0.50,0.13,0.43,-49.29,7.85,-26.51
11258,-7.99,6.35,-4.66,0.66,-0.09,0.26,-49.29,7.85,-26.51
11269,-7.99,6.35,-4.66,0.66,-0.09,0.26,-49.29,7.85,-26.51
11280,-9.63,3.82,-2.72,0.75,-0.29,0.03,-49.29,7.85,-26.51
11291,-9.63,3.82,-2.72,0.75,-0.29,0.03,-49.29,7.85,-26.51
11302,-8.55,1.25,-4.86,0.61,-0.10,-0.16,-49.75,5.68,-25.56
11313,-8.55,1.25,-4.86,0.61,-0.10,-0.16,-49.75,5.68,-25.56
11324,-9.14,0.97,-5.05,0.21,-0.46,-0.21,-49.75,5.68,-25.56
11335,-10.14,1.16,-3.83,-0.10,-0.66,-0.22,-49.75,5.68,-25.56
11346,-10.14,1.16,-3.83,-0.10,-0.66,-0.22,-49.75,5.68,-25.56
11357,-8.55,0.87,-4.82,-0.30,-0.39,-0.17,-49.75,5.68,-25.56
11368,-8.55,0.87,-4.82,-0.30,-0.39,-0.17,-49.75,5.68,-25.56
11379,-8.37,2.72,-4.63,-0.38,-0.32,0.01,-49.75,5.68,-25.56
11390,-8.37,2.72,-4.63,-0.38,-0.32,0.01,-49.75,5.68,-25.56
11401,-8.21,4.15,-4.28,-0.15,-0.19,0.12,-49.75,5.68,-25.56
11412,-8.21,4.15,-4.28,-0.15,-0.19,0.12,-49.75,5.68,-25.56
11423,-7.88,4.79,-4.07,0.08,-0.04,0.19,-51.60,4.75,-26.51
11434,-7.88,4.79,-4.07,0.08,-0.04,0.19,-51.60,4.75,-26.51
11445,-7.25,6.07,-4.15,0.18,0.06,0.36,-51.60,4.75,-26.51
11456,-7.57,6.88,-3.67,0.47,0.07,0.35,-51.60,4.75,-26.51
11467,-7.57,6.88,-3.67,0.47,0.07,0.35,-51.60,4.75,-26.51
11478,-8.10,4.44,-4.26,0.87,0.03,0.08,-51.60,4.75,-26.51
11489,-8.10,4.44,-4.26,0.87,0.03,0.08,-51.60,4.75,-26.51
11500,-9.68,2.43,-3.70,0.87,-0.12,0.01,-51.60,4.75,-26.51
11511,-9.68,2.43,-3.70,0.87,-0.12,0.01,-51.60,4.75,-26.51
11522,-9.45,2.21,-3.91,0.60,-0.11,0.25,-51.60,4.75,-26.51
11533,-9.45,2.21,-3.91,0.60,-0.11,0.25,-51.60,4.75,-26.51
11544,-8.67,3.41,-4.22,0.40,-0.13,0.37,-51.60,4.75,-26.51
11555,-8.72,2.72,-4.17,0.42,-0.20,0.09,-52.75,5.21,-25.40
11566,-8.72,2.72,-4.17,0.42,-0.20,0.09,-52.75,5.21,-25.40
11577,-8.95,2.57,-4.26,0.38,-0.19,-0.06,-52.75,5.21,-25.40
11588,-8.95,2.57,-4.26,0.38,-0.19,-0.06,-52.75,5.21,-25.40
11599,-8.41,2.89,-4.94,0.32,-0.15,0.03,-52.75,5.21,-25.40
11610,-8.41,2.89,-4.94,0.32,-0.15,0.03,-52.75,5.21,-25.40
11621,-8.91,3.10,-4.19,0.16,-0.26,0.00,-52.75,5.21,-25.40
11632,-8.91,3.10,-4.19,0.16,-0.26,0.00,-52.75,5.21,-25.40
11643,-8.77,3.91,-3.86,0.09,-0.19,0.11,-52.75,5.21,-25.40
11654,-8.77,3.91,-3.86,0.09,-0.19,0.11,-52.75,5.21,-25.40
11665,-8.32,4.03,-4.16,0.21,-0.05,0.15,-52.75,5.21,-25.40
11676,-8.31,4.01,-4.24,0.35,-0.06,0.11,-52.29,3.98,-25.72
11687,-8.31,4.01,-4.24,0.35,-0.06,0.11,-52.29,3.98,-25.72
11698,-8.43,3.95,-4.28,0.39,-0.13,0.03,-52.29,3.98,-25.72
11709,-8.43,3.95,-4.28,0.39,-0.13,0.03,-52.29,3.98,-25.72
11720,-8.94,3.40,-3.94,0.37,-0.22,-0.09,-52.29,3.98,-25.72
11731,-8.94,3.40,-3.94,0.37,-0.22,-0.09,-52.29,3.98,-25.72
11742,-9.34,2.51,-3.57,0.34,-0.19,-0.10,-52.29,3.98,-25.72
11753,-9.34,2.51,-3.57,0.34,-0.19,-0.10,-52.29,3.98,-25.72
11764,-9.17,2.55,-3.89,0.18,-0.10,0.01,-52.29,3.98,-25.72
11775,-8.68,3.11,-4.18,0.11,-0.03,0.13,-52.29,3.98,-25.72
11786,-8.68,3.11,-4.18,0.11,-0.03,0.13,-52.29,3.98,-25.72
11797,-8.22,3.80,-4.49,0.13,-0.01,0.16,-51.83,4.60,-24.45
11808,-8.22,3.80,-4.49,0.13,-0.01,0.16,-51.83,4.60,-24.45
11819,-7.99,4.29,-4.66,0.12,-0.12,0.06,-51.83,4.60,-24.45
11830,-7.99,4.29,-4.66,0.12,-0.12,0.06,-51.83,4.60,-24.45
11841,-7.42,4.74,-5.16,0.12,-0.37,-0.10,-51.83,4.60,-24.45
11852,-7.42,4.74,-5.16,0.12,-0.37,-0.10,-51.83,4.60,-24.45
11863,-10.96,2.93,-1.91,0.18,-0.59,-0.37,-51.83,4.60,-24.45
11874,-10.96,2.93,-1.91,0.18,-0.59,-0.37,-51.83,4.60,-24.45
11885,-9.41,0.59,-4.44,0.03,-0.03,-0.40,-51.83,4.60,-24.45
11896,-9.50,2.57,-3.95,-0.14,0.06,-0.17,-51.83,4.60,-24.45
11907,-9.50,2.57,-3.95,-0.14,0.06,-0.17,-51.83,4.60,-24.45
11918,-8.21,3.21,-3.61,-0.07,0.32,-0.26,-52.98,1.66,-24.61
11929,-8.21,3.21,-3.61,-0.07,0.32,-0.26,-52.98,1.66,-24.61
11940,-8.89,3.31,-4.18,0.23,0.49,-0.31,-52.98,1.66,-24.61
11951,-8.89,3.31,-4.18,0.23,0.49,-0.31,-52.98,1.66,-24.61
11962,-8.94,2.90,-3.37,0.15,0.23,-0.20,-52.98,1.66,-24.61
11973,-8.94,2.90,-3.37,0.15,0.23,-0.20,-52.98,1.66,-24.61
11984,-9.45,3.40,-2.76,0.04,0.13,-0.09,-52.98,1.66,-24.61
11995,-8.97,2.38,-5.88,-0.27,0.05,-0.13,-52.98,1.66,-24.61
12006,-8.97,2.38,-5.88,-0.27,0.05,-0.13,-52.98,1.66,-24.61
12017,-8.47,2.81,-3.84,-0.63,-0.45,0.06,-52.98,1.66,-24.61
12028,-8.47,2.81,-3.84,-0.63,-0.45,0.06,-52.98,1.66,-24.61
12039,-8.50,4.11,-3.52,-0.33,-0.46,0.29,-52.98,1.66,-24.61
12050,-8.50,4.11,-3.52,-0.33,-0.46,0.29,-52.98,1.66,-24.61
12061,-9.01,3.15,-4.71,0.08,-0.18,0.16,-54.60,3.36,-23.82
12072,-9.01,3.15,-4.71,0.08,-0.18,0.16,-54.60,3.36,-23.82
12083,-8.27,1.91,-3.73,0.16,-0.06,0.03,-54.60,3.36,-23.82
12094,-8.27,1.91,-3.73,0.16,-0.06,0.03,-54.60,3.36,-23.82
12105,-9.59,4.61,-2.31,0.21,0.20,-0.03,-54.60,3.36,-23.82
12116,-8.53,1.68,-5.85,0.09,0.51,-0.44,-54.60,3.36,-23.82
12127,-8.53,1.68,-5.85,0.09,0.51,-0.44,-54.60,3.36,-23.82
12138,-9.14,3.36,-2.62,-0.36,-0.03,-0.08,-54.60,3.36,-23.82
12149,-9.14,3.36,-2.62,-0.36,-0.03,-0.08,-54.60,3.36,-23.82
12160,-9.44,3.42,-3.83,-0.45,-0.00,0.02,-54.60,3.36,-23.82
12171,-9.44,3.42,-3.83,-0.45,-0.00,0.02,-54.60,3.36,-23.82
12182,-9.07,2.34,-4.51,-0.66,-0.14,-0.02,-50.91,3.36,-24.77
12193,-9.07,2.34,-4.51,-0.66,-0.14,-0.02,-50.91,3.36,-24.77
12204,-8.75,2.66,-4.55,-0.83,-0.34,0.10,-50.91,3.36,-24.77
12215,-8.55,3.94,-4.39,-0.78,-0.35,0.12,-50.91,3.36,-24.77
12226,-8.55,3.94,-4.39,-0.78,-0.35,0.12,-50.91,3.36,-24.77
12237,-8.57,4.53,-2.97,-0.44,-0.18,-0.04,-50.91,3.36,-24.77
12248,-8.57,4.53,-2.97,-0.44,-0.18,-0.04,-50.91,3.36,-24.77
12259,-8.49,4.52,-3.85,0.02,0.34,-0.35,-50.91,3.36,-24.77
12270,-8.49,4.52,-3.85,0.02,0.34,-0.35,-50.91,3.36,-24.77
12281,-8.65,2.45,-4.57,0.42,0.50,-0.36,-50.91,3.36,-24.77
12292,-8.65,2.45,-4.57,0.42,0.50,-0.36,-50.91,3.36,-24.77
12303,-8.88,2.48,-3.10,0.03,0.09,-0.09,-55.52,2.74,-23.50
12314,-8.88,2.48,-3.10,0.03,0.09,-0.09,-55.52,2.74,-23.50
12325,-9.54,3.25,-3.87,-0.23,0.04,0.09,-55.52,2.74,-23.50
12336,-9.02,2.22,-5.22,-0.51,-0.16,0.10,-55.52,2.74,-23.50
12347,-9.02,2.22,-5.22,-0.51,-0.16,0.10,-55.52,2.74,-23.50
12358,-8.85,3.16,-3.82,-0.68,-0.44,0.17,-55.52,2.74,-23.50
12369,-8.85,3.16,-3.82,-0.68,-0.44,0.17,-55.52,2.74,-23.50
12380,-8.84,4.28,-3.90,-0.48,-0.26,0.05,-55.52,2.74,-23.50
12391,-8.84,4.28,-3.90,-0.48,-0.26,0.05,-55.52,2.74,-23.50
12402,-9.01,4.64,-2.81,-0.26,-0.06,-0.22,-55.52,2.74,-23.50
12413,-9.01,4.64,-2.81,-0.26,-0.06,-0.22,-55.52,2.74,-23.50
12424,-8.93,3.09,-3.26,0.02,0.20,-0.36,-55.52,2.74,-23.50
12435,-8.93,3.09,-3.26,0.02,0.20,-0.36,-55.52,2.74,-23.50
12446,-9.16,1.74,-3.85,-0.04,0.14,-0.18,-55.29,5.06,-23.34
12457,-10.07,2.13,-3.65,-0.36,-0.09,-0.02,-55.29,5.06,-23.34
12468,-10.07,2.13,-3.65,-0.36,-0.09,-0.02,-55.29,5.06,-23.34
12479,-10.19,2.04,-2.43,-0.63,-0.14,-0.10,-55.29,5.06,-23.34
12490,-10.19,2.04,-2.43,-0.63,-0.14,-0.10,-55.29,5.06,-23.34
12506,-9.16,2.18,-2.29,-0.62,0.36,0.13,-55.29,5.06,-23.34
12512,-9.16,2.18,-2.29,-0.62,0.36,0.13,-55.29,5.06,-23.34
12523,-6.21,6.02,-6.60,-0.57,0.61,0.25,-55.29,5.06,-23.34
12534,-6.21,6.02,-6.60,-0.57,0.61,0.25,-55.29,5.06,-23.34
12545,-7.11,6.93,-4.73,-0.26,-0.05,-0.08,-55.29,5.06,-23.34
12556,-8.21,5.15,-4.06,0.06,-0.29,-0.54,-54.14,5.21,-24.14
12567,-8.21,5.15,-4.06,0.06,-0.29,-0.54,-54.14,5.21,-24.14
12578,-10.70,0.19,-1.83,0.11,-0.27,-0.86,-54.14,5.21,-24.14
12589,-10.70,0.19,-1.83,0.11,-0.27,-0.86,-54.14,5.21,-24.14
12600,-8.90,1.20,-3.83,-0.21,0.14,-0.49,-54.14,5.21,-24.14
12611,-8.90,1.20,-3.83,-0.21,0.14,-0.49,-54.14,5.21,-24.14
12622,-8.29,3.98,-3.02,-0.06,0.28,-0.23,-54.14,5.21,-24.14
12633,-8.29,3.98,-3.02,-0.06,0.28,-0.23,-54.14,5.21,-24.14
12644,-9.37,4.09,-3.95,0.80,0.77,-0.22,-54.14,5.21,-24.14
12655,-9.37,4.09,-3.95,0.80,0.77,-0.22,-54.14,5.21,-24.14
12666,-8.99,2.61,-4.62,0.61,0.47,-0.16,-54.14,5.21,-24.14
12677,-9.64,2.52,-1.37,0.12,-0.05,0.06,-53.44,4.13,-25.56
12688,-9.64,2.52,-1.37,0.12,-0.05,0.06,-53.44,4.13,-25.56
12699,-9.32,2.26,-5.85,-0.14,0.09,0.10,-53.44,4.13,-25.56
12710,-9.32,2.26,-5.85,-0.14,0.09,0.10,-53.44,4.13,-25.56
12721,-9.38,3.43,-2.02,-0.56,-0.55,0.24,-53.44,4.13,-25.56
12732,-9.38,3.43,-2.02,-0.56,-0.55,0.24,-53.44,4.13,-25.56
12743,-9.26,2.56,-4.39,-0.70,-0.43,-0.03,-53.44,4.13,-25.56
12754,-9.26,2.56,-4.39,-0.70,-0.43,-0.03,-53.44,4.13,-25.56
12766,-9.28,1.85,-4.16,-0.77,-0.39,-0.21,-53.44,4.13,-25.56
12776,-8.39,2.76,-4.43,-0.78,-0.36,-0.25,-53.44,4.13,-25.56
12787,-8.39,2.76,-4.43,-0.78,-0.36,-0.25,-53.44,4.13,-25.56
12798,-9.02,4.50,-2.98,-0.51,-0.18,-0.19,-53.44,4.13,-25.56
12809,-9.02,4.50,-2.98,-0.51,-0.18,-0.19,-53.44,4.13,-25.56
12820,-8.03,3.04,-3.29,-0.11,0.27,-0.37,-54.14,4.60,-23.50
12831,-8.03,3.04,-3.29,-0.11,0.27,-0.37,-54.14,4.60,-23.50
12842,-8.89,3.54,-2.77,0.46,0.53,-0.28,-54.14,4.60,-23.50
12853,-8.89,3.54,-2.77,0.46,0.53,-0.28,-54.14,4.60,-23.50
12864,-9.09,2.38,-3.91,0.53,0.44,-0.19,-54.14,4.60,-23.50
12875,-9.09,2.38,-3.91,0.53,0.44,-0.19,-54.14,4.60,-23.50
12886,-9.84,3.11,-1.54,0.11,0.05,0.02,-54.14,4.60,-23.50
12897,-9.21,1.72,-6.54,-0.28,-0.02,0.05,-54.14,4.60,-23.50
12908,-9.21,1.72,-6.54,-0.28,-0.02,0.05,-54.14,4.60,-23.50
12919,-9.54,3.21,-2.15,-0.63,-0.64,0.16,-54.14,4.60,-23.50
12930,-9.54,3.21,-2.15,-0.63,-0.64,0.16,-54.14,4.60,-23.50
12941,-8.84,2.68,-4.11,-0.41,-0.25,-0.07,-52.52,3.82,-23.34
12952,-8.84,2.68,-4.11,-0.41,-0.25,-0.07,-52.52,3.82,-23.34
12963,-9.23,4.20,-2.96,-0.24,-0.07,-0.15,-52.52,3.82,-23.34
12974,-9.23,4.20,-2.96,-0.24,-0.07,-0.15,-52.52,3.82,-23.34
12985,-9.45,3.19,-3.98,0.05,0.32,-0.45,-52.52,3.82,-23.34
12997,-9.10,2.32,-3.64,-0.11,0.27,-0.57,-52.52,3.82,-23.34
13007,-9.10,2.32,-3.64,-0.11,0.27,-0.57,-52.52,3.82,-23.34
13023,-9.01,3.07,-3.23,-0.42,-0.05,-0.28,-52.52,3.82,-23.34
13029,-9.01,3.07,-3.23,-0.42,-0.05,-0.28,-52.52,3.82,-23.34
13040,-8.88,1.94,-3.88,-0.36,-0.16,-0.02,-52.52,3.82,-23.34
13051,-8.88,1.94,-3.88,-0.36,-0.16,-0.02,-52.52,3.82,-23.34
13062,-8.38,0.35,-4.63,-0.10,-0.24,0.33,-53.21,4.60,-22.87
13073,-8.38,0.35,-4.63,-0.10,-0.24,0.33,-53.21,4.60,-22.87
13084,-10.56,4.02,-0.04,-0.04,-0.41,0.87,-53.21,4.60,-22.87
13095,-10.56,4.02,-0.04,-0.04,-0.41,0.87,-53.21,4.60,-22.87
13106,-11.19,2.92,-2.21,0.12,0.46,0.62,-53.21,4.60,-22.87
13117,-9.45,0.61,-4.28,0.05,0.97,0.31,-53.21,4.60,-22.87
13128,-9.45,0.61,-4.28,0.05,0.97,0.31,-53.21,4.60,-22.87
13139,-7.77,1.30,-5.04,-0.10,0.77,0.12,-53.21,4.60,-22.87
13150,-7.77,1.30,-5.04,-0.10,0.77,0.12,-53.21,4.60,-22.87
13161,-8.56,1.94,-4.12,-0.10,0.37,-0.13,-53.21,4.60,-22.87
13172,-8.56,1.94,-4.12,-0.10,0.37,-0.13,-53.21,4.60,-22.87
13183,-8.44,3.75,-3.78,-0.10,0.15,-0.02,-52.29,5.21,-25.09
13194,-8.44,3.75,-3.78,-0.10,0.15,-0.02,-52.29,5.21,-25.09
13205,-7.57,6.09,-4.07,-0.15,0.02,0.32,-52.29,5.21,-25.09
13216,-7.42,6.79,-3.71,-0.03,-0.19,0.38,-52.29,5.21,-25.09
13227,-7.42,6.79,-3.71,-0.03,-0.19,0.38,-52.29,5.21,-25.09
13238,-7.98,6.23,-3.48,0.22,-0.26,0.28,-52.29,5.21,-25.09
13249,-7.98,6.23,-3.48,0.22,-0.26,0.28,-52.29,5.21,-25.09
13260,-7.88,4.52,-3.83,0.43,-0.26,-0.05,-52.29,5.21,-25.09
13271,-7.88,4.52,-3.83,0.43,-0.26,-0.05,-52.29,5.21,-25.09
13282,-8.44,3.27,-3.80,0.60,-0.31,-0.43,-52.29,5.21,-25.09
13293,-8.44,3.27,-3.80,0.60,-0.31,-0.43,-52.29,5.21,-25.09
13304,-13.30,0.17,-1.01,0.65,-0.38,-0.57,-52.29,5.21,-25.09
13315,-13.30,0.17,-1.01,0.65,-0.38,-0.57,-52.29,5.21,-25.09
13326,-9.58,0.54,-2.93,0.11,-0.05,-0.18,-52.52,5.37,-23.34
13337,-9.68,1.83,-4.61,-0.29,0.01,0.09,-52.52,5.37,-23.34
13348,-9.68,1.83,-4.61,-0.29,0.01,0.09,-52.52,5.37,-23.34
13359,-9.22,3.13,-3.70,-0.74,-0.36,0.14,-52.52,5.37,-23.34
13370,-9.22,3.13,-3.70,-0.74,-0.36,0.14,-52.52,5.37,-23.34
13381,-9.31,3.06,-3.78,-0.79,-0.40,0.02,-52.52,5.37,-23.34
13392,-9.31,3.06,-3.78,-0.79,-0.40,0.02,-52.52,5.37,-23.34
13403,-9.08,3.97,-2.48,-0.60,-0.20,-0.11,-52.52,5.37,-23.34
13414,-9.08,3.97,-2.48,-0.60,-0.20,-0.11,-52.52,5.37,-23.34
13425,-8.72,4.15,-2.80,-0.20,0.21,-0.23,-52.52,5.37,-23.34
13436,-8.72,4.15,-2.80,-0.20,0.21,-0.23,-52.52,5.37,-23.34
13447,-8.77,3.64,-4.09,0.19,0.48,-0.29,-55.06,5.83,-22.87
13458,-8.94,2.92,-3.42,0.20,0.25,-0.11,-55.06,5.83,-22.87
13469,-8.94,2.92,-3.42,0.20,0.25,-0.11,-55.06,5.83,-22.87
13480,-9.58,2.32,-3.86,-0.06,0.05,0.05,-55.06,5.83,-22.87
13492,-9.58,2.32,-3.86,-0.06,0.05,0.05,-55.06,5.83,-22.87
13502,-9.74,2.54,-4.09,-0.54,-0.26,0.16,-55.06,5.83,-22.87
13513,-9.74,2.54,-4.09,-0.54,-0.26,0.16,-55.06,5.83,-22.87
13524,-9.24,2.92,-2.60,-0.80,-0.46,0.08,-55.06,5.83,-22.87
13535,-9.24,2.92,-2.60,-0.80,-0.46,0.08,-55.06,5.83,-22.87
13546,-8.89,3.97,-3.38,-0.67,-0.23,-0.02,-55.06,5.83,-22.87
13557,-8.64,5.01,-2.63,-0.37,0.03,-0.18,-53.44,6.92,-23.66
13568,-8.64,5.01,-2.63,-0.37,0.03,-0.18,-53.44,6.92,-23.66
13579,-8.12,4.03,-2.42,0.22,0.37,-0.29,-53.44,6.92,-23.66
13590,-8.12,4.03,-2.42,0.22,0.37,-0.29,-53.44,6.92,-23.66
13601,-9.41,1.78,-3.84,0.61,0.52,-0.16,-53.44,6.92,-23.66
13612,-9.41,1.78,-3.84,0.61,0.52,-0.16,-53.44,6.92,-23.66
13623,-9.30,0.67,-2.89,0.20,0.16,0.16,-53.44,6.92,-23.66
13634,-9.30,0.67,-2.89,0.20,0.16,0.16,-53.44,6.92,-23.66
13645,-9.94,2.57,-4.89,-0.05,-0.05,0.57,-53.44,6.92,-23.66
13656,-9.94,2.57,-4.89,-0.05,-0.05,0.57,-53.44,6.92,-23.66
13667,-10.98,3.60,-0.61,-0.16,-0.12,0.75,-53.44,6.92,-23.66
13678,-7.16,3.18,-4.71,-0.03,0.62,0.60,-53.44,6.92,-23.66
13689,-7.16,3.18,-4.71,-0.03,0.62,0.60,-53.44,6.92,-23.66
13700,-6.73,5.97,-5.85,0.15,0.56,0.48,-52.98,7.23,-23.34
13711,-6.73,5.97,-5.85,0.15,0.56,0.48,-52.98,7.23,-23.34
13723,-7.13,6.77,-4.65,0.22,-0.06,0.05,-52.98,7.23,-23.34
13733,-7.13,6.77,-4.65,0.22,-0.06,0.05,-52.98,7.23,-23.34
13744,-13.11,2.72,-1.46,0.41,-0.43,-0.58,-52.98,7.23,-23.34
13755,-13.11,2.72,-1.46,0.41,-0.43,-0.58,-52.98,7.23,-23.34
13766,-9.76,-0.14,-3.53,0.11,0.01,-0.61,-52.98,7.23,-23.34
13777,-9.64,1.86,-2.84,-0.27,0.08,-0.33,-52.98,7.23,-23.34
13788,-9.64,1.86,-2.84,-0.27,0.08,-0.33,-52.98,7.23,-23.34
13799,-9.27,1.96,-2.80,-0.26,0.15,-0.19,-52.98,7.23,-23.34
13810,-9.27,1.96,-2.80,-0.26,0.15,-0.19,-52.98,7.23,-23.34
13821,-8.34,4.26,-4.11,-0.23,0.23,0.06,-53.44,6.92,-24.61
13832,-8.34,4.26,-4.11,-0.23,0.23,0.06,-53.44,6.92,-24.61
13843,-8.58,5.60,-3.31,0.15,0.37,-0.00,-53.44,6.92,-24.61
13854,-8.58,5.60,-3.31,0.15,0.37,-0.00,-53.44,6.92,-24.61
13865,-8.31,3.68,-4.97,0.42,0.41,-0.27,-53.44,6.92,-24.61
13876,-8.31,3.68,-4.97,0.42,0.41,-0.27,-53.44,6.92,-24.61
13887,-9.57,3.19,-2.61,0.03,-0.05,-0.15,-53.44,6.92,-24.61
13898,-9.02,2.10,-5.04,-0.26,-0.06,-0.12,-53.44,6.92,-24.61
13909,-9.02,2.10,-5.04,-0.26,-0.06,-0.12,-53.44,6.92,-24.61
13920,-9.14,2.08,-3.69,-0.77,-0.51,0.02,-53.44,6.92,-24.61
13931,-9.14,2.08,-3.69,-0.77,-0.51,0.02,-53.44,6.92,-24.61
13942,-9.72,3.32,-1.79,-1.03,-0.77,0.07,-53.44,7.23,-23.66
13953,-9.72,3.32,-1.79,-1.03,-0.77,0.07,-53.44,7.23,-23.66
13964,-9.26,3.70,-3.01,-0.95,-0.64,-0.10,-53.44,7.23,-23.66
13975,-9.26,3.70,-3.01,-0.95,-0.64,-0.10,-53.44,7.23,-23.66
13986,-8.84,2.88,-3.89,-0.72,-0.43,-0.24,-53.44,7.23,-23.66
13997,-9.15,3.50,-2.86,-0.56,-0.26,-0.19,-53.44,7.23,-23.66
14008,-9.15,3.50,-2.86,-0.56,-0.26,-0.19,-53.44,7.23,-23.66
14019,-8.89,3.10,-2.41,-0.38,0.08,-0.31,-53.44,7.23,-23.66
14030,-8.89,3.10,-2.41,-0.38,0.08,-0.31,-53.44,7.23,-23.66
14041,-8.32,3.20,-3.39,-0.15,0.39,-0.36,-53.44,7.23,-23.66
14052,-8.32,3.20,-3.39,-0.15,0.39,-0.36,-53.44,7.23,-23.66
14063,-8.82,3.20,-3.07,0.17,0.38,-0.19,-53.44,7.23,-23.66
14074,-8.82,3.20,-3.07,0.17,0.38,-0.19,-53.44,7.23,-23.66
14085,-9.26,3.30,-3.04,0.07,0.16,-0.05,-53.44,7.23,-23.66
14096,-9.26,3.30,-3.04,0.07,0.16,-0.05,-53.44,7.23,-23.66
14107,-9.20,3.20,-2.07,0.03,0.03,0.02,-53.44,7.23,-23.66
14118,-9.88,2.85,-3.79,0.11,0.12,0.05,-53.44,7.23,-23.66
14129,-9.88,2.85,-3.79,0.11,0.12,0.05,-53.44,7.23,-23.66
14140,-9.31,2.00,-3.68,-0.19,-0.25,0.10,-53.44,7.23,-23.66
14151,-9.31,2.00,-3.68,-0.19,-0.25,0.10,-53.44,7.23,-23.66
14162,-9.42,3.01,-3.48,-0.32,-0.38,0.07,-53.44,7.23,-23.66
14173,-9.42,3.01,-3.48,-0.32,-0.38,0.07,-53.44,7.23,-23.66
14184,-9.40,3.63,-1.38,-0.33,-0.24,-0.10,-53.44,7.23,-23.66
14195,-9.40,3.63,-1.38,-0.33,-0.24,-0.10,-53.44,7.23,-23.66
14206,-9.63,4.54,-2.66,-0.15,0.17,-0.36,-53.44,7.54,-23.03
14217,-8.50,1.75,-2.80,-0.16,0.25,-0.51,-53.44,7.54,-23.03
14228,-8.50,1.75,-2.80,-0.16,0.25,-0.51,-53.44,7.54,-23.03
14239,-8.84,2.70,-2.95,-0.36,0.03,-0.21,-53.44,7.54,-23.03
14250,-8.84,2.70,-2.95,-0.36,0.03,-0.21,-53.44,7.54,-23.03
14261,-9.03,1.76,-4.11,-0.37,-0.12,0.04,-53.44,7.54,-23.03
14272,-9.03,1.76,-4.11,-0.37,-0.12,0.04,-53.44,7.54,-23.03
14283,-8.77,2.35,-3.68,-0.25,-0.30,0.38,-53.44,7.54,-23.03
14294,-8.77,2.35,-3.68,-0.25,-0.30,0.38,-53.44,7.54,-23.03
14305,-10.44,3.81,-0.77,0.02,-0.21,0.70,-53.44,7.54,-23.03
14316,-10.44,3.81,-0.77,0.02,-0.21,0.70,-53.44,7.54,-23.03
14327,-8.42,2.86,-3.09,0.26,0.61,0.76,-54.83,8.46,-21.76
14338,-7.68,5.05,-5.36,0.42,0.84,0.67,-54.83,8.46,-21.76
14349,-7.68,5.05,-5.36,0.42,0.84,0.67,-54.83,8.46,-21.76
14360,-7.40,7.20,-3.47,0.61,0.52,0.22,-54.83,8.46,-21.76
14371,-7.40,7.20,-3.47,0.61,0.52,0.22,-54.83,8.46,-21.76
14382,-7.76,6.73,-5.09,0.92,0.34,-0.62,-54.83,8.46,-21.76
14393,-7.76,6.73,-5.09,0.92,0.34,-0.62,-54.83,8.46,-21.76
14404,-10.72,0.58,-2.15,0.95,0.11,-1.02,-54.83,8.46,-21.76
14415,-10.72,0.58,-2.15,0.95,0.11,-1.02,-54.83,8.46,-21.76
14426,-9.24,-0.60,-3.67,0.34,0.22,-0.48,-54.83,8.46,-21.76
14438,-9.59,2.48,-2.03,0.12,0.04,0.12,-52.98,7.54,-23.98
14448,-9.59,2.48,-2.03,0.12,0.04,0.12,-52.98,7.54,-23.98
14459,-8.70,3.01,-4.43,0.31,0.28,0.41,-52.98,7.54,-23.98
14470,-8.70,3.01,-4.43,0.31,0.28,0.41,-52.98,7.54,-23.98
14481,-9.10,3.71,-2.52,0.19,0.06,0.84,-52.98,7.54,-23.98
14492,-9.10,3.71,-2.52,0.19,0.06,0.84,-52.98,7.54,-23.98
14503,-8.52,3.19,-4.59,0.21,0.12,0.88,-52.98,7.54,-23.98
14514,-8.52,3.19,-4.59,0.21,0.12,0.88,-52.98,7.54,-23.98
14525,-7.93,4.64,-4.00,0.24,-0.10,0.96,-52.98,7.54,-23.98
14536,-7.93,4.64,-4.00,0.24,-0.10,0.96,-52.98,7.54,-23.98
14547,-7.24,5.73,-4.58,0.36,-0.27,0.75,-52.98,7.54,-23.98
14558,-7.55,5.69,-5.04,0.41,-0.59,0.24,-52.98,7.54,-23.98
14569,-7.55,5.69,-5.04,0.41,-0.59,0.24,-52.98,7.54,-23.98
14580,-13.89,1.89,-1.96,0.53,-0.83,-0.45,-51.83,7.38,-24.14
14591,-13.89,1.89,-1.96,0.53,-0.83,-0.45,-51.83,7.38,-24.14
14602,-9.55,-0.69,-4.29,0.13,-0.13,-0.49,-51.83,7.38,-24.14
14613,-9.55,-0.69,-4.29,0.13,-0.13,-0.49,-51.83,7.38,-24.14
14629,-10.56,1.39,-2.32,-0.34,0.01,-0.32,-51.83,7.38,-24.14
14635,-10.56,1.39,-2.32,-0.34,0.01,-0.32,-51.83,7.38,-24.14
14646,-9.46,0.70,-3.77,-0.48,0.34,-0.43,-51.83,7.38,-24.14
14657,-9.46,0.70,-3.77,-0.48,0.34,-0.43,-51.83,7.38,-24.14
14668,-11.18,0.39,-2.02,-0.57,0.38,0.08,-51.83,7.38,-24.14
14679,-7.74,3.31,-4.20,-1.03,0.56,0.58,-51.83,7.38,-24.14
14690,-7.74,3.31,-4.20,-1.03,0.56,0.58,-51.83,7.38,-24.14
14701,-9.10,1.25,-3.40,-1.02,0.37,0.54,-52.06,8.15,-24.29
14712,-9.10,1.25,-3.40,-1.02,0.37,0.54,-52.06,8.15,-24.29
14723,-7.89,2.40,-4.45,-1.06,0.35,0.95,-52.06,8.15,-24.29
14734,-7.89,2.40,-4.45,-1.06,0.35,0.95,-52.06,8.15,-24.29
14745,-8.05,4.56,-4.06,-0.93,0.15,1.22,-52.06,8.15,-24.29
14756,-8.05,4.56,-4.06,-0.93,0.15,1.22,-52.06,8.15,-24.29
14767,-7.84,6.03,-3.37,-0.72,0.02,1.14,-52.06,8.15,-24.29
14778,-7.59,7.17,-3.66,-0.46,-0.05,0.96,-52.06,8.15,-24.29
14789,-7.59,7.17,-3.66,-0.46,-0.05,0.96,-52.06,8.15,-24.29
14800,-7.39,7.54,-2.84,-0.15,-0.18,0.66,-52.06,8.15,-24.29
14811,-7.39,7.54,-2.84,-0.15,-0.18,0.66,-52.06,8.15,-24.29
14822,-7.66,6.82,-3.51,0.15,-0.25,0.33,-47.68,12.64,-24.14
14833,-7.66,6.82,-3.51,0.15,-0.25,0.33,-47.68,12.64,-24.14
14844,-8.20,5.90,-2.89,0.35,-0.38,0.10,-47.68,12.64,-24.14
14855,-8.20,5.90,-2.89,0.35,-0.38,0.10,-47.68,12.64,-24.14
14866,-8.75,5.30,-2.67,0.52,-0.38,-0.10,-47.68,12.64,-24.14
14877,-8.75,5.30,-2.67,0.52,-0.38,-0.10,-47.68,12.64,-24.14
14888,-8.80,4.44,-2.59,0.60,-0.30,-0.26,-47.68,12.64,-24.14
14899,-8.79,5.95,-2.40,0.58,-0.18,-0.33,-47.68,12.64,-24.14
14910,-8.79,5.95,-2.40,0.58,-0.18,-0.33,-47.68,12.64,-24.14
14921,-8.72,4.49,-2.57,0.80,-0.03,-0.58,-47.68,12.64,-24.14
14932,-8.72,4.49,-2.57,0.80,-0.03,-0.58,-47.68,12.64,-24.14
14943,-9.03,4.83,-2.94,0.96,0.12,-0.59,-47.68,12.64,-24.14
14955,-9.03,4.83,-2.94,0.96,0.12,-0.59,-47.68,12.64,-24.14
14965,-8.66,4.61,-3.67,0.99,0.22,-0.77,-47.21,11.09,-24.14
14976,-8.66,4.61,-3.67,0.99,0.22,-0.77,-47.21,11.09,-24.14
14987,-9.05,1.12,-3.93,1.07,0.27,-0.93,-47.21,11.09,-24.14
14998,-9.54,0.17,-4.53,0.89,0.36,-0.28,-47.21,11.09,-24.14
15009,-9.54,0.17,-4.53,0.89,0.36,-0.28,-47.21,11.09,-24.14
15020,-8.97,3.82,-4.14,0.44,0.36,0.49,-47.21,11.09,-24.14
15031,-8.97,3.82,-4.14,0.44,0.36,0.49,-47.21,11.09,-24.14
15042,-7.70,5.01,-4.55,0.23,0.37,0.27,-47.21,11.09,-24.14
15053,-7.70,5.01,-4.55,0.23,0.37,0.27,-47.21,11.09,-24.14
15064,-7.83,3.92,-4.69,0.27,0.23,-0.16,-47.21,11.09,-24.14
15075,-7.83,3.92,-4.69,0.27,0.23,-0.16,-47.21,11.09,-24.14
15086,-7.82,3.51,-4.26,0.26,0.03,-0.05,-49.98,8.00,-26.04
15097,-7.82,3.51,-4.26,0.26,0.03,-0.05,-49.98,8.00,-26.04
15108,-7.61,5.14,-4.09,0.17,-0.12,0.25,-49.98,8.00,-26.04
15119,-7.72,5.88,-3.51,0.22,-0.28,0.32,-49.98,8.00,-26.04
15130,-7.72,5.88,-3.51,0.22,-0.28,0.32,-49.98,8.00,-26.04
15141,-8.34,5.87,-3.38,0.36,-0.38,0.27,-49.98,8.00,-26.04
15152,-8.34,5.87,-3.38,0.36,-0.38,0.27,-49.98,8.00,-26.04
15163,-9.08,3.96,-3.46,0.57,-0.39,0.17,-49.98,8.00,-26.04
15174,-9.08,3.96,-3.46,0.57,-0.39,0.17,-49.98,8.00,-26.04
15185,-8.90,3.26,-3.72,0.51,-0.36,0.24,-49.98,8.00,-26.04
15196,-8.90,3.26,-3.72,0.51,-0.36,0.24,-49.98,8.00,-26.04
15207,-9.12,3.53,-3.82,0.36,-0.40,0.27,-51.60,6.92,-24.93
15218,-9.01,3.03,-3.89,0.32,-0.39,0.13,-51.60,6.92,-24.93
15229,-9.01,3.03,-3.89,0.32,-0.39,0.13,-51.60,6.92,-24.93
15240,-9.18,2.93,-3.82,0.29,-0.32,0.11,-51.60,6.92,-24.93
15251,-9.18,2.93,-3.82,0.29,-0.32,0.11,-51.60,6.92,-24.93
15262,-8.19,3.63,-4.50,0.25,-0.28,0.26,-51.60,6.92,-24.93
15273,-8.19,3.63,-4.50,0.25,-0.28,0.26,-51.60,6.92,-24.93
15284,-8.64,4.14,-3.71,0.29,-0.35,0.28,-51.60,6.92,-24.93
15295,-8.64,4.14,-3.71,0.29,-0.35,0.28,-51.60,6.92,-24.93
15306,-8.68,4.07,-3.57,0.32,-0.29,0.14,-51.60,6.92,-24.93
15317,-8.68,4.07,-3.57,0.32,-0.29,0.14,-51.60,6.92,-24.93
15328,-8.54,3.68,-3.70,0.38,-0.24,0.09,-51.60,6.92,-24.93
15339,-9.12,3.57,-3.29,0.39,-0.24,0.14,-52.98,5.99,-23.66
15350,-9.12,3.57,-3.29,0.39,-0.24,0.14,-52.98,5.99,-23.66
15361,-9.00,3.81,-3.54,0.35,-0.14,0.17,-52.98,5.99,-23.66
15372,-9.00,3.81,-3.54,0.35,-0.14,0.17,-52.98,5.99,-23.66
15383,-8.64,3.45,-3.71,0.31,-0.10,0.13,-52.98,5.99,-23.66
15394,-8.64,3.45,-3.71,0.31,-0.10,0.13,-52.98,5.99,-23.66
15406,-8.83,3.74,-3.51,0.25,-0.14,0.17,-52.98,5.99,-23.66
15416,-8.83,3.74,-3.51,0.25,-0.14,0.17,-52.98,5.99,-23.66
15427,-8.85,4.00,-3.60,0.21,-0.15,0.19,-52.98,5.99,-23.66
15438,-8.85,4.00,-3.60,0.21,-0.15,0.19,-52.98,5.99,-23.66
15449,-8.53,4.14,-3.83,0.11,-0.11,0.03,-52.98,5.99,-23.66
15460,-8.49,4.06,-3.98,0.13,-0.13,-0.08,-53.44,7.23,-24.29
15471,-8.49,4.06,-3.98,0.13,-0.13,-0.08,-53.44,7.23,-24.29
15482,-8.75,3.57,-3.84,0.19,-0.16,-0.03,-53.44,7.23,-24.29
15493,-8.75,3.57,-3.84,0.19,-0.16,-0.03,-53.44,7.23,-24.29
15504,-9.59,3.00,-3.27,0.10,-0.18,-0.06,-53.44,7.23,-24.29
15515,-9.59,3.00,-3.27,0.10,-0.18,-0.06,-53.44,7.23,-24.29
15526,-9.30,3.04,-3.16,-0.03,-0.04,-0.05,-53.44,7.23,-24.29
15537,-9.30,3.04,-3.16,-0.03,-0.04,-0.05,-53.44,7.23,-24.29
15548,-8.28,3.90,-3.96,-0.07,0.07,0.09,-53.44,7.23,-24.29
15559,-8.40,4.81,-3.79,-0.08,-0.04,0.06,-53.44,7.23,-24.29
15570,-8.40,4.81,-3.79,-0.08,-0.04,0.06,-53.44,7.23,-24.29
15581,-8.90,4.52,-3.45,-0.01,-0.08,-0.13,-53.67,6.45,-22.87
15592,-8.90,4.52,-3.45,-0.01,-0.08,-0.13,-53.67,6.45,-22.87
15603,-9.42,2.84,-3.13,0.07,-0.03,-0.28,-53.67,6.45,-22.87
15614,-9.42,2.84,-3.13,0.07,-0.03,-0.28,-53.67,6.45,-22.87
15625,-9.43,2.40,-3.66,-0.07,0.04,-0.20,-53.67,6.45,-22.87
15636,-9.43,2.40,-3.66,-0.07,0.04,-0.20,-53.67,6.45,-22.87
15647,-8.66,3.85,-2.99,-0.32,0.02,-0.10,-53.67,6.45,-22.87
15658,-8.66,3.85,-2.99,-0.32,0.02,-0.10,-53.67,6.45,-22.87
15669,-7.96,4.62,-3.98,-0.24,0.12,-0.18,-53.67,6.45,-22.87
15680,-7.21,5.34,-4.94,-0.12,-0.03,-0.25,-53.67,6.45,-22.87
15691,-7.21,5.34,-4.94,-0.12,-0.03,-0.25,-53.67,6.45,-22.87
15702,-7.15,6.26,-4.81,-0.19,-0.58,-0.54,-53.44,5.68,-22.39
15713,-7.15,6.26,-4.81,-0.19,-0.58,-0.54,-53.44,5.68,-22.39
15724,-10.77,1.02,0.93,-0.33,-0.85,-0.72,-53.44,5.68,-22.39
15735,-10.77,1.02,0.93,-0.33,-0.85,-0.72,-53.44,5.68,-22.39
15746,-8.20,1.16,-4.77,-0.72,-0.31,-0.04,-53.44,5.68,-22.39
15757,-8.20,1.16,-4.77,-0.72,-0.31,-0.04,-53.44,5.68,-22.39
15768,-9.26,3.35,-2.14,-0.50,-0.74,0.62,-53.44,5.68,-22.39
15779,-10.42,3.25,-1.77,-0.16,-0.40,0.61,-53.44,5.68,-22.39
15790,-10.42,3.25,-1.77,-0.16,-0.40,0.61,-53.44,5.68,-22.39
15801,-13.24,0.84,0.95,0.05,0.41,0.53,-53.44,5.68,-22.39
15812,-13.24,0.84,0.95,0.05,0.41,0.53,-53.44,5.68,-22.39
15823,-8.89,2.86,-4.47,-0.08,1.64,0.66,-53.44,5.68,-22.39
15834,-8.89,2.86,-4.47,-0.08,1.64,0.66,-53.44,5.68,-22.39
15845,-5.99,4.76,-5.65,0.03,1.55,0.27,-51.83,8.00,-23.50
15856,-5.99,4.76,-5.65,0.03,1.55,0.27,-51.83,8.00,-23.50
15867,-7.76,4.17,-4.47,0.36,1.03,-0.40,-51.83,8.00,-23.50
15878,-7.76,4.17,-4.47,0.36,1.03,-0.40,-51.83,8.00,-23.50
15889,-6.47,3.24,-5.26,0.17,0.62,-0.57,-51.83,8.00,-23.50
15900,-6.94,5.27,-4.77,-0.06,0.07,-0.09,-51.83,8.00,-23.50
15911,-6.94,5.27,-4.77,-0.06,0.07,-0.09,-51.83,8.00,-23.50
15922,-8.30,7.89,-3.04,-0.12,-0.28,0.34,-51.83,8.00,-23.50
15933,-8.30,7.89,-3.04,-0.12,-0.28,0.34,-51.83,8.00,-23.50
15944,-7.14,6.70,-3.94,0.09,-0.24,0.25,-51.83,8.00,-23.50
15955,-7.14,6.70,-3.94,0.09,-0.24,0.25,-51.83,8.00,-23.50
15966,-9.01,3.77,-3.28,0.31,-0.43,0.07,-51.60,7.23,-23.66
15977,-9.01,3.77,-3.28,0.31,-0.43,0.07,-51.60,7.23,-23.66
15988,-9.91,2.82,-2.58,0.23,-0.41,0.12,-51.60,7.23,-23.66
15999,-9.13,2.11,-3.63,0.11,-0.19,0.16,-51.60,7.23,-23.66
16010,-9.13,2.11,-3.63,0.11,-0.19,0.16,-51.60,7.23,-23.66
16021,-8.05,3.72,-4.43,-0.13,-0.24,0.16,-51.60,7.23,-23.66
16032,-8.05,3.72,-4.43,-0.13,-0.24,0.16,-51.60,7.23,-23.66
16043,-7.63,5.44,-4.64,-0.26,-0.57,0.02,-51.60,7.23,-23.66
16054,-7.63,5.44,-4.64,-0.26,-0.57,0.02,-51.60,7.23,-23.66
16065,-8.10,5.43,-3.47,-0.21,-0.85,-0.34,-51.60,7.23,-23.66
16076,-8.10,5.43,-3.47,-0.21,-0.85,-0.34,-51.60,7.23,-23.66
16087,-10.41,1.15,-1.84,-0.11,-0.55,-0.45,-53.44,8.15,-23.03
16098,-10.41,1.15,-1.84,-0.11,-0.55,-0.45,-53.44,8.15,-23.03
16109,-9.85,2.51,-2.66,-0.35,0.01,-0.10,-53.44,8.15,-23.03
16120,-8.78,3.94,-2.63,-0.35,0.34,-0.21,-53.44,8.15,-23.03
16131,-8.78,3.94,-2.63,-0.35,0.34,-0.21,-53.44,8.15,-23.03
16142,-8.14,4.08,-3.75,-0.14,0.37,-0.22,-53.44,8.15,-23.03
16153,-8.14,4.08,-3.75,-0.14,0.37,-0.22,-53.44,8.15,-23.03
16164,-8.60,4.44,-2.40,-0.15,0.02,-0.01,-53.44,8.15,-23.03
16175,-8.60,4.44,-2.40,-0.15,0.02,-0.01,-53.44,8.15,-23.03
16186,-9.41,3.24,-3.46,-0.14,-0.04,0.07,-53.44,8.15,-23.03
16197,-9.41,3.24,-3.46,-0.14,-0.04,0.07,-53.44,8.15,-23.03
16209,-9.12,3.52,-3.50,-0.30,-0.13,0.10,-53.44,8.15,-23.03
16219,-9.00,5.14,-2.92,-0.32,-0.10,0.06,-54.14,8.00,-21.60
16230,-9.00,5.14,-2.92,-0.32,-0.10,0.06,-54.14,8.00,-21.60
16241,-8.46,4.80,-3.10,-0.11,0.15,-0.15,-54.14,8.00,-21.60
16252,-8.46,4.80,-3.10,-0.11,0.15,-0.15,-54.14,8.00,-21.60
16263,-7.72,4.35,-2.94,0.18,0.42,-0.27,-54.14,8.00,-21.60
16279,-7.72,4.35,-2.94,0.18,0.42,-0.27,-54.14,8.00,-21.60
16285,-8.60,3.90,-3.88,0.43,0.53,-0.22,-54.14,8.00,-21.60
16296,-8.60,3.90,-3.88,0.43,0.53,-0.22,-54.14,8.00,-21.60
16307,-8.94,2.94,-2.59,0.22,0.20,-0.08,-54.14,8.00,-21.60
16318,-8.94,2.94,-2.59,0.22,0.20,-0.08,-54.14,8.00,-21.60
16329,-9.04,2.62,-3.63,0.01,-0.01,0.17,-54.14,8.00,-21.60
16340,-9.53,3.17,-3.61,-0.35,-0.37,0.37,-54.14,6.76,-22.24
16351,-9.53,3.17,-3.61,-0.35,-0.37,0.37,-54.14,6.76,-22.24
16362,-9.68,3.63,-2.47,-0.64,-0.55,0.23,-54.14,6.76,-22.24
16373,-9.68,3.63,-2.47,-0.64,-0.55,0.23,-54.14,6.76,-22.24
16384,-8.63,3.97,-4.30,-0.61,-0.33,0.05,-54.14,6.76,-22.24
16395,-8.63,3.97,-4.30,-0.61,-0.33,0.05,-54.14,6.76,-22.24
16406,-8.93,4.99,-2.67,-0.43,-0.22,-0.01,-54.14,6.76,-22.24
16417,-8.93,4.99,-2.67,-0.43,-0.22,-0.01,-54.14,6.76,-22.24
16428,-8.43,4.90,-2.77,-0.09,0.24,-0.26,-54.14,6.76,-22.24
16439,-8.43,4.90,-2.77,-0.09,0.24,-0.26,-54.14,6.76,-22.24
16450,-8.39,3.87,-2.10,0.43,0.55,-0.33,-54.14,6.76,-22.24
16462,-8.93,3.28,-3.34,0.57,0.56,-0.25,-52.98,8.15,-22.71
16472,-8.93,3.28,-3.34,0.57,0.56,-0.25,-52.98,8.15,-22.71
16483,-9.34,3.90,-1.84,0.10,0.13,-0.03,-52.98,8.15,-22.71
16494,-9.34,3.90,-1.84,0.10,0.13,-0.03,-52.98,8.15,-22.71
16505,-9.30,2.44,-5.13,-0.20,0.08,0.02,-52.98,8.15,-22.71
16516,-9.30,2.44,-5.13,-0.20,0.08,0.02,-52.98,8.15,-22.71
16527,-9.54,2.81,-3.86,-0.75,-0.54,0.15,-52.98,8.15,-22.71
16538,-9.54,2.81,-3.86,-0.75,-0.54,0.15,-52.98,8.15,-22.71
16549,-8.97,4.69,-2.98,-0.86,-0.66,0.13,-52.98,8.15,-22.71
16560,-9.06,5.66,-3.28,-0.51,-0.33,0.03,-52.98,8.15,-22.71
16571,-9.06,5.66,-3.28,-0.51,-0.33,0.03,-52.98,8.15,-22.71
16582,-8.76,4.56,-2.01,-0.20,0.03,-0.19,-52.98,8.15,-22.71
16593,-8.76,4.56,-2.01,-0.20,0.03,-0.19,-52.98,8.15,-22.71
16604,-8.56,3.89,-2.29,0.19,0.42,-0.26,-52.75,9.55,-22.24
16615,-8.56,3.89,-2.29,0.19,0.42,-0.26,-52.75,9.55,-22.24
16626,-8.89,3.23,-3.45,0.39,0.45,-0.19,-52.75,9.55,-22.24
16637,-8.89,3.23,-3.45,0.39,0.45,-0.19,-52.75,9.55,-22.24
16648,-8.93,3.90,-2.91,0.12,0.18,-0.02,-52.75,9.55,-22.24
16659,-8.93,3.90,-2.91,0.12,0.18,-0.02,-52.75,9.55,-22.24
16670,-9.44,2.75,-4.70,-0.17,0.03,-0.01,-52.75,9.55,-22.24
16681,-8.75,2.32,-3.47,-0.66,-0.43,0.08,-52.75,9.55,-22.24
16692,-8.75,2.32,-3.47,-0.66,-0.43,0.08,-52.75,9.55,-22.24
16703,-8.66,5.08,-2.10,-0.66,-0.44,0.15,-52.75,9.55,-22.24
16714,-8.66,5.08,-2.10,-0.66,-0.44,0.15,-52.75,9.55,-22.24
16725,-8.64,4.73,-2.27,-0.27,0.03,-0.03,-54.60,7.69,-21.60
16736,-8.64,4.73,-2.27,-0.27,0.03,-0.03,-54.60,7.69,-21.60
16747,-9.06,3.30,-4.27,-0.05,0.33,-0.13,-54.60,7.69,-21.60
16758,-9.06,3.30,-4.27,-0.05,0.33,-0.13,-54.60,7.69,-21.60
16769,-9.11,3.57,-2.48,-0.25,0.12,-0.04,-54.60,7.69,-21.60
16780,-9.11,3.51,-2.55,-0.30,0.00,0.04,-54.60,7.69,-21.60
16791,-9.11,3.51,-2.55,-0.30,0.00,0.04,-54.60,7.69,-21.60
16802,-9.07,4.56,-2.07,-0.33,-0.07,0.08,-54.60,7.69,-21.60
16813,-9.07,4.56,-2.07,-0.33,-0.07,0.08,-54.60,7.69,-21.60
16824,-8.77,4.93,-2.63,-0.25,0.03,-0.04,-54.60,7.69,-21.60
16835,-8.77,4.93,-2.63,-0.25,0.03,-0.04,-54.60,7.69,-21.60
16846,-8.61,4.79,-2.73,-0.14,0.16,-0.17,-52.98,8.46,-21.44
16857,-8.61,4.79,-2.73,-0.14,0.16,-0.17,-52.98,8.46,-21.44
16868,-8.58,3.99,-2.69,0.08,0.26,-0.18,-52.98,8.46,-21.44
16879,-8.58,3.99,-2.69,0.08,0.26,-0.18,-52.98,8.46,-21.44
16890,-8.71,3.41,-3.24,0.14,0.14,-0.05,-52.98,8.46,-21.44
16901,-8.78,3.19,-3.47,-0.03,-0.12,0.13,-52.98,8.46,-21.44
16912,-8.78,3.19,-3.47,-0.03,-0.12,0.13,-52.98,8.46,-21.44
16923,-9.37,2.83,-4.38,-0.49,-0.56,0.23,-52.98,8.46,-21.44
16934,-9.37,2.83,-4.38,-0.49,-0.56,0.23,-52.98,8.46,-21.44
16945,-9.62,4.15,-1.61,-0.76,-0.76,0.19,-52.98,8.46,-21.44
16956,-9.62,4.15,-1.61,-0.76,-0.76,0.19,-52.98,8.46,-21.44
16967,-9.05,4.96,-1.19,-0.66,-0.44,0.00,-54.83,11.25,-19.54
16978,-9.05,4.96,-1.19,-0.66,-0.44,0.00,-54.83,11.25,-19.54
16989,-9.31,6.12,-0.83,-0.29,0.07,-0.18,-54.83,11.25,-19.54
17000,-8.12,3.91,-3.27,0.11,0.64,-0.44,-54.83,11.25,-19.54
17011,-8.12,3.91,-3.27,0.11,0.64,-0.44,-54.83,11.25,-19.54
17022,-8.65,3.36,-3.57,0.24,0.47,-0.29,-54.83,11.25,-19.54
17033,-8.65,3.36,-3.57,0.24,0.47,-0.29,-54.83,11.25,-19.54
17044,-9.06,3.02,-3.00,0.10,0.12,-0.06,-54.83,11.25,-19.54
17055,-9.06,3.02,-3.00,0.10,0.12,-0.06,-54.83,11.25,-19.54
17066,-9.48,3.60,-4.33,-0.08,-0.05,0.03,-54.83,11.25,-19.54
17077,-9.48,3.60,-4.33,-0.08,-0.05,0.03,-54.83,11.25,-19.54
17088,-9.56,3.74,-1.14,-0.35,-0.33,-0.07,-54.83,11.25,-19.54
17099,-9.56,3.74,-1.14,-0.35,-0.33,-0.07,-54.83,11.25,-19.54
17110,-9.79,3.03,-0.82,-0.14,0.05,-0.27,-53.90,9.70,-20.18
17126,-10.35,-0.09,-2.35,0.10,0.62,-0.36,-53.90,9.70,-20.18
17132,-10.35,-0.09,-2.35,0.10,0.62,-0.36,-53.90,9.70,-20.18
17143,-8.95,2.48,-3.76,-0.06,0.79,0.26,-53.90,9.70,-20.18
17154,-8.95,2.48,-3.76,-0.06,0.79,0.26,-53.90,9.70,-20.18
17165,-7.52,3.64,-3.82,0.04,0.61,0.34,-53.90,9.70,-20.18
17176,-7.52,3.64,-3.82,0.04,0.61,0.34,-53.90,9.70,-20.18
17187,-7.91,4.68,-3.09,0.29,0.42,0.38,-53.90,9.70,-20.18
17198,-7.91,4.68,-3.09,0.29,0.42,0.38,-53.90,9.70,-20.18
17209,-7.28,6.32,-4.03,0.33,0.24,0.56,-53.90,9.70,-20.18
17220,-7.85,7.01,-2.52,0.09,-0.17,0.44,-51.37,10.79,-23.19
17231,-7.85,7.01,-2.52,0.09,-0.17,0.44,-51.37,10.79,-23.19
17242,-7.01,8.08,-3.83,-0.04,-0.39,0.21,-51.37,10.79,-23.19
17253,-7.01,8.08,-3.83,-0.04,-0.39,0.21,-51.37,10.79,-23.19
17264,-7.70,5.17,-3.44,-0.06,-0.76,-0.45,-51.37,10.79,-23.19
17275,-7.70,5.17,-3.44,-0.06,-0.76,-0.45,-51.37,10.79,-23.19
17286,-12.34,-0.18,1.84,-0.10,-0.83,-0.58,-51.37,10.79,-23.19
17297,-12.34,-0.18,1.84,-0.10,-0.83,-0.58,-51.37,10.79,-23.19
17308,-9.09,0.33,-4.20,-0.27,-0.04,-0.09,-51.37,10.79,-23.19
17319,-9.09,0.33,-4.20,-0.27,-0.04,-0.09,-51.37,10.79,-23.19
17330,-9.53,4.57,-1.14,-0.33,-0.11,0.22,-51.37,10.79,-23.19
17341,-8.51,4.65,-3.23,-0.05,0.42,-0.11,-54.83,10.94,-21.44
17352,-8.51,4.65,-3.23,-0.05,0.42,-0.11,-54.83,10.94,-21.44
17363,-9.28,5.68,-1.94,0.37,0.58,-0.15,-54.83,10.94,-21.44
17374,-9.28,5.68,-1.94,0.37,0.58,-0.15,-54.83,10.94,-21.44
17385,-8.92,3.74,-3.27,0.42,0.44,-0.15,-54.83,10.94,-21.44
17396,-8.92,3.74,-3.27,0.42,0.44,-0.15,-54.83,10.94,-21.44
17407,-9.05,3.65,-1.36,0.01,0.04,-0.04,-54.83,10.94,-21.44
17418,-9.05,3.65,-1.36,0.01,0.04,-0.04,-54.83,10.94,-21.44
17429,-9.05,3.40,-5.21,-0.11,0.13,-0.01,-54.83,10.94,-21.44
17440,-9.00,3.17,-4.29,-0.53,-0.40,0.05,-54.83,10.94,-21.44
17451,-9.00,3.17,-4.29,-0.53,-0.40,0.05,-54.83,10.94,-21.44
17462,-9.15,3.84,-2.14,-0.71,-0.56,0.00,-54.83,10.94,-21.44
17473,-9.15,3.84,-2.14,-0.71,-0.56,0.00,-54.83,10.94,-21.44
17484,-8.88,4.91,-2.72,-0.48,-0.25,-0.02,-53.21,9.86,-19.39
17495,-8.88,4.91,-2.72,-0.48,-0.25,-0.02,-53.21,9.86,-19.39
17506,-8.77,5.26,-1.09,-0.14,0.07,-0.13,-53.21,9.86,-19.39
17517,-8.77,5.26,-1.09,-0.14,0.07,-0.13,-53.21,9.86,-19.39
17528,-8.90,4.13,-2.52,0.35,0.54,-0.27,-53.21,9.86,-19.39
17539,-8.90,4.13,-2.52,0.35,0.54,-0.27,-53.21,9.86,-19.39
17550,-8.92,3.91,-2.71,0.63,0.67,-0.19,-53.21,9.86,-19.39
17561,-8.61,2.54,-3.68,0.32,0.35,-0.16,-53.21,9.86,-19.39
17572,-8.61,2.54,-3.68,0.32,0.35,-0.16,-53.21,9.86,-19.39
17583,-9.80,3.60,-4.80,-0.07,0.09,0.04,-53.21,9.86,-19.39
17594,-9.80,3.60,-4.80,-0.07,0.09,0.04,-53.21,9.86,-19.39
17605,-8.92,3.53,-4.24,-0.49,-0.40,0.13,-52.06,10.32,-22.08
17616,-8.92,3.53,-4.24,-0.49,-0.40,0.13,-52.06,10.32,-22.08
17627,-9.14,3.88,-3.91,-0.54,-0.42,0.04,-52.06,10.32,-22.08
17638,-9.14,3.88,-3.91,-0.54,-0.42,0.04,-52.06,10.32,-22.08
17649,-9.05,4.53,-2.04,-0.42,-0.29,-0.01,-52.06,10.32,-22.08
17660,-9.05,4.53,-2.04,-0.42,-0.29,-0.01,-52.06,10.32,-22.08
17671,-8.72,4.24,-1.67,-0.20,0.10,-0.17,-52.06,10.32,-22.08
17682,-8.82,4.60,-2.60,0.06,0.39,-0.26,-52.06,10.32,-22.08
17693,-8.82,4.60,-2.60,0.06,0.39,-0.26,-52.06,10.32,-22.08
17704,-8.95,3.81,-2.35,0.13,0.24,-0.18,-52.06,10.32,-22.08
17715,-8.95,3.81,-2.35,0.13,0.24,-0.18,-52.06,10.32,-22.08
17727,-9.10,3.10,-3.14,0.03,0.12,-0.10,-52.75,9.86,-21.92
17737,-9.10,3.10,-3.14,0.03,0.12,-0.10,-52.75,9.86,-21.92
17748,-9.04,2.37,-4.47,-0.28,-0.11,-0.01,-52.75,9.86,-21.92
17759,-9.04,2.37,-4.47,-0.28,-0.11,-0.01,-52.75,9.86,-21.92
17770,-9.46,3.74,-2.86,-0.58,-0.38,0.07,-52.75,9.86,-21.92
17781,-9.09,4.82,-1.87,-0.53,-0.22,-0.04,-52.75,9.86,-21.92
17792,-9.09,4.82,-1.87,-0.53,-0.22,-0.04,-52.75,9.86,-21.92
17803,-8.64,4.61,-3.04,-0.26,0.18,-0.20,-52.75,9.86,-21.92
17814,-8.64,4.61,-3.04,-0.26,0.18,-0.20,-52.75,9.86,-21.92
17825,-9.16,3.85,-2.45,-0.18,0.24,-0.27,-52.75,9.86,-21.92
17836,-9.16,3.85,-2.45,-0.18,0.24,-0.27,-52.75,9.86,-21.92
17847,-8.83,3.85,-2.94,-0.17,0.21,-0.25,-53.90,10.63,-21.13
17858,-8.83,3.85,-2.94,-0.17,0.21,-0.25,-53.90,10.63,-21.13
17869,-8.90,3.51,-2.66,-0.02,0.09,-0.03,-53.90,10.63,-21.13
17880,-8.90,3.51,-2.66,-0.02,0.09,-0.03,-53.90,10.63,-21.13
17891,-9.15,4.13,-2.72,-0.00,0.02,0.06,-53.90,10.63,-21.13
17902,-9.01,3.87,-2.72,-0.00,0.02,0.00,-53.90,10.63,-21.13
17913,-9.01,3.87,-2.72,-0.00,0.02,0.00,-53.90,10.63,-21.13
17924,-8.97,3.87,-2.64,0.01,0.01,-0.01,-53.90,10.63,-21.13
17935,-8.97,3.87,-2.64,0.01,0.01,-0.01,-53.90,10.63,-21.13
17946,-9.04,3.93,-2.93,0.02,0.01,-0.01,-53.90,10.63,-21.13
17957,-9.04,3.93,-2.93,0.02,0.01,-0.01,-53.90,10.63,-21.13
17968,-9.01,3.59,-2.84,-0.00,-0.02,-0.01,-53.90,10.63,-21.13
17979,-9.01,3.59,-2.84,-0.00,-0.02,-0.01,-53.90,10.63,-21.13
17990,-9.01,3.89,-2.33,-0.02,0.01,-0.01,-54.60,9.55,-20.65
18001,-8.85,3.68,-3.67,0.05,0.16,-0.08,-54.60,9.55,-20.65
18012,-8.85,3.68,-3.67,0.05,0.16,-0.08,-54.60,9.55,-20.65
18023,-8.99,3.81,-2.54,0.04,0.05,-0.06,-54.60,9.55,-20.65
18034,-8.99,3.81,-2.54,0.04,0.05,-0.06,-54.60,9.55,-20.65
18045,-8.92,3.57,-2.68,0.08,0.04,-0.02,-54.60,9.55,-20.65
18056,-8.92,3.57,-2.68,0.08,0.04,-0.02,-54.60,9.55,-20.65
18067,-9.34,3.53,-1.44,0.07,-0.04,0.06,-54.60,9.55,-20.65
18078,-9.34,3.53,-1.44,0.07,-0.04,0.06,-54.60,9.55,-20.65
18089,-9.36,3.09,-4.63,-0.09,-0.08,0.03,-54.60,9.55,-20.65
18100,-9.36,3.09,-4.63,-0.09,-0.08,0.03,-54.60,9.55,-20.65
18111,-9.35,2.79,-1.55,-0.51,-0.43,-0.11,-54.37,11.25,-20.81
18122,-9.76,3.71,0.13,-0.63,-0.17,-0.27,-54.37,11.25,-20.81
18133,-9.76,3.71,0.13,-0.63,-0.17,-0.27,-54.37,11.25,-20.81
18144,-10.49,2.26,-1.56,-0.21,0.68,-0.43,-54.37,11.25,-20.81
18155,-10.49,2.26,-1.56,-0.21,0.68,-0.43,-54.37,11.25,-20.81
18166,-11.49,-1.77,-1.67,-0.09,1.36,0.29,-54.37,11.25,-20.81
18177,-11.49,-1.77,-1.67,-0.09,1.36,0.29,-54.37,11.25,-20.81
18188,-9.78,0.75,-3.22,-0.79,1.63,0.84,-54.37,11.25,-20.81
18199,-9.78,0.75,-3.22,-0.79,1.63,0.84,-54.37,11.25,-20.81
18210,-8.13,4.00,-3.46,-1.15,1.52,0.78,-54.37,11.25,-20.81
18221,-7.61,6.59,-3.01,-1.18,1.43,0.69,-49.52,14.81,-23.82
18232,-7.61,6.59,-3.01,-1.18,1.43,0.69,-49.52,14.81,-23.82
18244,-6.35,8.39,-3.82,-1.13,1.20,0.37,-49.52,14.81,-23.82
18254,-6.35,8.39,-3.82,-1.13,1.20,0.37,-49.52,14.81,-23.82
18265,-6.36,9.23,-2.69,-1.07,0.69,-0.01,-49.52,14.81,-23.82
18276,-6.36,9.23,-2.69,-1.07,0.69,-0.01,-49.52,14.81,-23.82
18287,-7.86,12.82,-0.62,-0.98,0.32,-0.05,-49.52,14.81,-23.82
18298,-7.86,12.82,-0.62,-0.98,0.32,-0.05,-49.52,14.81,-23.82
18309,-6.44,12.56,-1.00,-0.13,0.40,-0.24,-49.52,14.81,-23.82
18320,-6.44,12.56,-1.00,-0.13,0.40,-0.24,-49.52,14.81,-23.82
18331,-3.60,7.73,-3.03,0.89,0.25,-0.11,-49.52,14.81,-23.82
18342,-3.30,8.89,-3.27,1.35,-0.47,0.94,-49.52,14.81,-23.82
18353,-3.30,8.89,-3.27,1.35,-0.47,0.94,-49.52,14.81,-23.82
18364,-5.20,8.75,-2.65,1.53,-1.14,1.30,-45.60,14.65,-24.93
18375,-5.20,8.75,-2.65,1.53,-1.14,1.30,-45.60,14.65,-24.93
18386,-7.42,6.28,-3.27,1.82,-1.45,1.26,-45.60,14.65,-24.93
18397,-7.42,6.28,-3.27,1.82,-1.45,1.26,-45.60,14.65,-24.93
18408,-7.70,5.47,-3.30,1.80,-1.61,1.43,-45.60,14.65,-24.93
18419,-7.70,5.47,-3.30,1.80,-1.61,1.43,-45.60,14.65,-24.93
18430,-8.44,6.41,-3.60,2.03,-1.68,1.56,-45.60,14.65,-24.93
18441,-10.60,3.56,-2.22,2.42,-1.53,1.01,-45.60,14.65,-24.93
18452,-10.60,3.56,-2.22,2.42,-1.53,1.01,-45.60,14.65,-24.93
18463,-10.30,1.16,-3.38,2.41,-1.02,0.67,-45.60,14.65,-24.93
18480,-10.30,1.16,-3.38,2.41,-1.02,0.67,-45.60,14.65,-24.93
18485,-9.88,2.31,-4.50,2.14,-0.80,0.76,-50.68,11.87,-23.98
18496,-9.88,2.31,-4.50,2.14,-0.80,0.76,-50.68,11.87,-23.98
18507,-9.40,3.57,-4.32,1.97,-0.91,0.62,-50.68,11.87,-23.98
18518,-9.40,3.57,-4.32,1.97,-0.91,0.62,-50.68,11.87,-23.98
18529,-10.18,1.95,-2.95,2.20,-0.94,0.28,-50.68,11.87,-23.98
18540,-10.18,1.95,-2.95,2.20,-0.94,0.28,-50.68,11.87,-23.98
18551,-10.91,0.62,-2.61,2.02,-0.79,-0.08,-50.68,11.87,-23.98
18562,-11.28,-0.03,-3.00,1.44,-0.61,-0.51,-50.68,11.87,-23.98
18573,-11.28,-0.03,-3.00,1.44,-0.61,-0.51,-50.68,11.87,-23.98
18584,-11.50,-0.84,-3.19,0.92,-0.58,-0.54,-50.68,11.87,-23.98
18595,-11.50,-0.84,-3.19,0.92,-0.58,-0.54,-50.68,11.87,-23.98
18606,-11.15,0.23,-1.51,0.46,-0.56,-0.26,-55.75,6.61,-22.39
18617,-11.15,0.23,-1.51,0.46,-0.56,-0.26,-55.75,6.61,-22.39
18628,-9.40,2.47,-3.74,0.14,-0.19,0.18,-55.75,6.61,-22.39
18639,-9.40,2.47,-3.74,0.14,-0.19,0.18,-55.75,6.61,-22.39
18650,-8.67,5.37,-3.73,-0.18,-0.26,0.33,-55.75,6.61,-22.39
18661,-8.67,5.37,-3.73,-0.18,-0.26,0.33,-55.75,6.61,-22.39
18672,-8.35,5.65,-3.52,-0.19,-0.25,0.04,-55.75,6.61,-22.39
18683,-7.07,5.61,-4.65,-0.12,-0.18,-0.13,-55.75,6.61,-22.39
18694,-7.07,5.61,-4.65,-0.12,-0.18,-0.13,-55.75,6.61,-22.39
18710,-8.28,5.05,-3.70,0.12,-0.29,-0.10,-55.75,6.61,-22.39
18716,-8.28,5.05,-3.70,0.12,-0.29,-0.10,-55.75,6.61,-22.39
18727,-8.46,3.80,-4.21,0.20,-0.24,-0.13,-55.75,6.61,-22.39
18738,-8.46,3.80,-4.21,0.20,-0.24,-0.13,-55.75,6.61,-22.39
18749,-9.65,3.29,-2.73,0.08,-0.31,-0.15,-55.06,5.83,-23.19
18760,-9.65,3.29,-2.73,0.08,-0.31,-0.15,-55.06,5.83,-23.19
18771,-8.46,3.21,-3.74,-0.11,-0.18,-0.22,-55.06,5.83,-23.19
18782,-8.16,5.43,-3.25,-0.19,-0.21,-0.29,-55.06,5.83,-23.19
18793,-8.16,5.43,-3.25,-0.19,-0.21,-0.29,-55.06,5.83,-23.19
18804,-6.85,6.94,-3.77,-0.07,-0.15,-0.72,-55.06,5.83,-23.19
18815,-6.85,6.94,-3.77,-0.07,-0.15,-0.72,-55.06,5.83,-23.19
18826,-10.62,2.87,0.07,0.25,-0.13,-1.07,-55.06,5.83,-23.19
18837,-10.62,2.87,0.07,0.25,-0.13,-1.07,-55.06,5.83,-23.19
18848,-8.72,2.07,-2.90,0.43,0.31,-0.53,-55.06,5.83,-23.19
18859,-8.72,2.07,-2.90,0.43,0.31,-0.53,-55.06,5.83,-23.19
18870,-8.66,0.77,-3.30,0.46,0.18,-0.07,-56.90,3.98,-22.87
18881,-8.66,0.77,-3.30,0.46,0.18,-0.07,-56.90,3.98,-22.87
18892,-9.23,2.35,-4.57,0.05,-0.14,0.45,-56.90,3.98,-22.87
18903,-9.48,3.42,-3.68,-0.40,-0.54,0.61,-56.90,3.98,-22.87
18914,-9.48,3.42,-3.68,-0.40,-0.54,0.61,-56.90,3.98,-22.87
18925,-9.06,3.90,-4.15,-0.67,-0.48,0.30,-56.90,3.98,-22.87
18936,-9.06,3.90,-4.15,-0.67,-0.48,0.30,-56.90,3.98,-22.87
18947,-9.23,5.68,-2.78,-0.63,-0.26,0.04,-56.90,3.98,-22.87
18958,-9.23,5.68,-2.78,-0.63,-0.26,0.04,-56.90,3.98,-22.87
18969,-8.34,4.78,-2.69,-0.31,0.18,-0.25,-56.90,3.98,-22.87
18980,-8.34,4.78,-2.69,-0.31,0.18,-0.25,-56.90,3.98,-22.87
18992,-8.47,4.23,-2.68,-0.11,0.16,-0.18,-54.37,6.61,-22.39
19002,-10.15,4.56,-1.95,-0.19,-0.07,-0.04,-54.37,6.61,-22.39
19013,-10.15,4.56,-1.95,-0.19,-0.07,-0.04,-54.37,6.61,-22.39
19024,-8.58,2.32,-5.08,-1.18,-0.61,-0.18,-54.37,6.61,-22.39
19035,-8.58,2.32,-5.08,-1.18,-0.61,-0.18,-54.37,6.61,-22.39
19046,-8.07,4.02,-1.89,-2.24,-1.73,0.12,-54.37,6.61,-22.39
19057,-8.07,4.02,-1.89,-2.24,-1.73,0.12,-54.37,6.61,-22.39
19068,-8.16,5.87,-1.25,-1.69,-1.61,0.30,-54.37,6.61,-22.39
19079,-8.16,5.87,-1.25,-1.69,-1.61,0.30,-54.37,6.61,-22.39
19090,-8.61,5.32,-1.99,-0.72,-1.18,0.23,-54.37,6.61,-22.39
19101,-8.61,5.32,-1.99,-0.72,-1.18,0.23,-54.37,6.61,-22.39
19112,-9.29,3.68,-0.86,-0.13,-0.59,0.24,-59.90,8.15,-16.69
19123,-8.75,4.16,-1.92,0.41,0.28,0.32,-59.90,8.15,-16.69
19134,-8.75,4.16,-1.92,0.41,0.28,0.32,-59.90,8.15,-16.69
19145,-9.96,4.66,-1.48,0.92,0.91,0.20,-59.90,8.15,-16.69
19156,-9.96,4.66,-1.48,0.92,0.91,0.20,-59.90,8.15,-16.69
19167,-9.11,4.45,-1.03,1.23,1.35,-0.17,-59.90,8.15,-16.69
19178,-9.11,4.45,-1.03,1.23,1.35,-0.17,-59.90,8.15,-16.69
19189,-8.91,2.85,-4.88,0.99,1.35,-0.44,-59.90,8.15,-16.69
19200,-8.91,2.85,-4.88,0.99,1.35,-0.44,-59.90,8.15,-16.69
19211,-9.44,4.93,-1.17,-0.28,0.28,-0.21,-59.90,8.15,-16.69
19222,-9.15,4.43,-1.89,-0.57,0.13,-0.26,-59.90,8.15,-16.69
19233,-9.15,4.43,-1.89,-0.57,0.13,-0.26,-59.90,8.15,-16.69
19244,-8.63,3.79,-2.72,-0.65,0.05,-0.28,-55.98,8.31,-20.65
19255,-8.63,3.79,-2.72,-0.65,0.05,-0.28,-55.98,8.31,-20.65
19266,-8.21,4.15,-3.38,-0.63,-0.12,-0.14,-55.98,8.31,-20.65
19277,-8.21,4.15,-3.38,-0.63,-0.12,-0.14,-55.98,8.31,-20.65
19288,-9.13,4.56,-2.52,-0.46,-0.20,-0.03,-55.98,8.31,-20.65
19299,-9.13,4.56,-2.52,-0.46,-0.20,-0.03,-55.98,8.31,-20.65
19310,-9.46,4.07,-1.71,-0.38,-0.09,-0.10,-55.98,8.31,-20.65
19321,-9.46,4.07,-1.71,-0.38,-0.09,-0.10,-55.98,8.31,-20.65
19332,-8.96,4.58,-2.08,-0.34,0.20,-0.22,-55.98,8.31,-20.65
19343,-8.83,4.25,-2.58,-0.26,0.30,-0.27,-55.98,8.31,-20.65
19354,-8.83,4.25,-2.58,-0.26,0.30,-0.27,-55.98,8.31,-20.65
19365,-8.69,4.29,-2.29,-0.23,0.19,-0.20,-57.13,8.46,-19.86
19376,-8.69,4.29,-2.29,-0.23,0.19,-0.20,-57.13,8.46,-19.86
19387,-8.71,4.47,-2.51,-0.17,0.11,-0.11,-57.13,8.46,-19.86
19398,-8.71,4.47,-2.51,-0.17,0.11,-0.11,-57.13,8.46,-19.86
19415,-8.99,4.22,-2.50,-0.10,0.04,-0.09,-57.13,8.46,-19.86
19420,-8.99,4.22,-2.50,-0.10,0.04,-0.09,-57.13,8.46,-19.86
19431,-8.93,3.84,-2.38,-0.11,0.03,-0.09,-57.13,8.46,-19.86
19442,-8.95,4.14,-3.10,-0.10,0.04,-0.05,-57.13,8.46,-19.86
19453,-8.95,4.14,-3.10,-0.10,0.04,-0.05,-57.13,8.46,-19.86
19464,-8.98,4.09,-1.56,-0.08,-0.04,-0.02,-57.13,8.46,-19.86
19475,-8.98,4.09,-1.56,-0.08,-0.04,-0.02,-57.13,8.46,-19.86
19486,-8.87,4.44,-1.82,0.07,0.07,0.02,-57.60,7.85,-19.54
19497,-8.87,4.44,-1.82,0.07,0.07,0.02,-57.60,7.85,-19.54
19508,-9.00,3.93,-2.04,0.24,0.13,0.03,-57.60,7.85,-19.54
19519,-9.00,3.93,-2.04,0.24,0.13,0.03,-57.60,7.85,-19.54
19530,-9.19,4.17,-2.92,0.25,0.10,0.08,-57.60,7.85,-19.54
19541,-9.19,4.17,-2.92,0.25,0.10,0.08,-57.60,7.85,-19.54
19552,-9.12,3.82,-3.16,0.11,-0.11,0.12,-57.60,7.85,-19.54
19563,-9.40,4.06,-2.15,-0.14,-0.33,0.14,-57.60,7.85,-19.54
19574,-9.40,4.06,-2.15,-0.14,-0.33,0.14,-57.60,7.85,-19.54
19585,-9.29,3.29,-2.34,-0.23,-0.27,-0.01,-57.60,7.85,-19.54
19596,-9.29,3.29,-2.34,-0.23,-0.27,-0.01,-57.60,7.85,-19.54
19607,-9.08,3.43,-3.34,-0.25,-0.19,-0.04,-57.60,7.85,-19.54
19618,-9.08,3.43,-3.34,-0.25,-0.19,-0.04,-57.60,7.85,-19.54
19629,-9.27,4.10,-1.44,-0.27,-0.17,-0.04,-57.13,7.23,-20.81
19640,-9.27,4.10,-1.44,-0.27,-0.17,-0.04,-57.13,7.23,-20.81
19651,-8.87,4.85,-1.48,-0.14,0.15,-0.14,-57.13,7.23,-20.81
19662,-8.87,4.85,-1.48,-0.14,0.15,-0.14,-57.13,7.23,-20.81
19673,-8.75,4.50,-2.03,0.18,0.42,-0.21,-57.13,7.23,-20.81
19684,-8.88,4.08,-1.67,0.19,0.25,-0.16,-57.13,7.23,-20.81
19695,-8.88,4.08,-1.67,0.19,0.25,-0.16,-57.13,7.23,-20.81
19706,-9.63,3.80,-2.32,0.00,0.05,-0.09,-57.13,7.23,-20.81
19717,-9.63,3.80,-2.32,0.00,0.05,-0.09,-57.13,7.23,-20.81
19728,-8.91,2.71,-2.90,-0.36,-0.26,-0.05,-57.13,7.23,-20.81
19739,-8.91,2.71,-2.90,-0.36,-0.26,-0.05,-57.13,7.23,-20.81
19750,-9.10,4.28,-1.63,-0.50,-0.41,0.05,-58.29,7.38,-19.07
19761,-9.10,4.28,-1.63,-0.50,-0.41,0.05,-58.29,7.38,-19.07
19772,-9.01,4.41,-2.39,-0.29,-0.15,-0.01,-58.29,7.38,-19.07
19783,-9.14,4.07,-1.23,-0.20,0.02,-0.11,-58.29,7.38,-19.07
19795,-9.14,4.07,-1.23,-0.20,0.02,-0.11,-58.29,7.38,-19.07
19805,-9.12,3.95,-2.13,0.03,0.34,-0.18,-58.29,7.38,-19.07
19816,-9.12,3.95,-2.13,0.03,0.34,-0.18,-58.29,7.38,-19.07
19827,-9.02,4.70,-2.10,0.20,0.37,-0.13,-58.29,7.38,-19.07
19838,-9.02,4.70,-2.10,0.20,0.37,-0.13,-58.29,7.38,-19.07
19849,-9.22,4.36,-1.81,0.16,0.18,-0.14,-58.29,7.38,-19.07
19860,-9.22,4.36,-1.81,0.16,0.18,-0.14,-58.29,7.38,-19.07
19871,-9.85,3.29,-3.40,-0.03,0.02,-0.21,-57.13,5.68,-18.59
19882,-9.85,3.29,-3.40,-0.03,0.02,-0.21,-57.13,5.68,-18.59
19893,-9.26,2.78,-2.06,-0.46,-0.37,-0.24,-57.13,5.68,-18.59
19904,-8.93,4.10,-1.64,-0.55,-0.40,-0.16,-57.13,5.68,-18.59
19915,-8.93,4.10,-1.64,-0.55,-0.40,-0.16,-57.13,5.68,-18.59
19926,-9.20,4.99,-0.60,-0.40,-0.11,-0.20,-57.13,5.68,-18.59
19937,-9.20,4.99,-0.60,-0.40,-0.11,-0.20,-57.13,5.68,-18.59
19948,-8.90,4.47,-1.83,-0.15,0.35,-0.40,-57.13,5.68,-18.59
19959,-8.90,4.47,-1.83,-0.15,0.35,-0.40,-57.13,5.68,-18.59
19970,-8.99,3.00,-2.35,0.06,0.44,-0.40,-57.13,5.68,-18.59
19981,-8.99,3.00,-2.35,0.06,0.44,-0.40,-57.13,5.68,-18.59
19992,-9.37,3.11,-2.31,-0.01,0.27,-0.21,-57.13,5.68,-18.59
20003,-9.73,3.29,-2.91,-0.25,0.08,-0.21,-57.60,8.15,-20.49
20014,-9.73,3.29,-2.91,-0.25,0.08,-0.21,-57.60,8.15,-20.49
20026,-9.61,2.79,-1.83,-0.53,-0.04,-0.36,-57.60,8.15,-20.49
20036,-9.61,2.79,-1.83,-0.53,-0.04,-0.36,-57.60,8.15,-20.49
20047,-9.04,2.44,-2.23,-0.64,0.10,-0.37,-57.60,8.15,-20.49
20058,-9.04,2.44,-2.23,-0.64,0.10,-0.37,-57.60,8.15,-20.49
20069,-9.23,3.74,-2.61,-0.69,0.27,-0.34,-57.60,8.15,-20.49
20080,-9.23,3.74,-2.61,-0.69,0.27,-0.34,-57.60,8.15,-20.49
20091,-8.63,3.77,-2.40,-0.62,0.31,-0.36,-57.60,8.15,-20.49
20102,-8.63,3.77,-2.40,-0.62,0.31,-0.36,-57.60,8.15,-20.49
20113,-8.51,4.19,-2.81,-0.23,0.29,-0.14,-57.60,8.15,-20.49
20124,-8.86,3.65,-1.63,0.19,0.19,0.07,-56.44,6.14,-20.65
20135,-8.86,3.65,-1.63,0.19,0.19,0.07,-56.44,6.14,-20.65
20146,-9.55,3.60,-2.37,0.36,0.10,0.26,-56.44,6.14,-20.65
20157,-9.55,3.60,-2.37,0.36,0.10,0.26,-56.44,6.14,-20.65
20168,-9.66,3.29,-1.73,0.19,-0.16,0.37,-56.44,6.14,-20.65
20179,-9.66,3.29,-1.73,0.19,-0.16,0.37,-56.44,6.14,-20.65
20190,-9.73,3.47,-2.88,-0.01,-0.26,0.28,-56.44,6.14,-20.65
20201,-9.73,3.47,-2.88,-0.01,-0.26,0.28,-56.44,6.14,-20.65
20212,-9.29,3.51,-2.52,-0.21,-0.28,0.04,-56.44,6.14,-20.65
20223,-9.26,3.85,-2.99,-0.17,-0.11,-0.08,-56.44,6.14,-20.65
20234,-9.26,3.85,-2.99,-0.17,-0.11,-0.08,-56.44,6.14,-20.65
20245,-9.39,3.86,-2.32,-0.08,0.07,-0.15,-58.75,6.76,-20.02
20256,-9.39,3.86,-2.32,-0.08,0.07,-0.15,-58.75,6.76,-20.02
20267,-8.95,3.52,-1.59,0.04,0.27,-0.18,-58.75,6.76,-20.02
20278,-8.95,3.52,-1.59,0.04,0.27,-0.18,-58.75,6.76,-20.02
20289,-8.55,3.98,-1.28,0.30,0.56,-0.07,-58.75,6.76,-20.02
20300,-8.55,3.98,-1.28,0.30,0.56,-0.07,-58.75,6.76,-20.02
20311,-9.03,4.83,-2.78,1.07,1.10,-0.02,-58.75,6.76,-20.02
20322,-9.03,4.83,-2.78,1.07,1.10,-0.02,-58.75,6.76,-20.02
20333,-9.68,2.49,-3.36,1.10,0.83,-0.18,-58.75,6.76,-20.02
20344,-9.46,1.79,-0.83,0.32,0.17,-0.10,-58.75,6.76,-20.02
20355,-9.46,1.79,-0.83,0.32,0.17,-0.10,-58.75,6.76,-20.02
20366,-9.72,3.03,-5.50,-0.06,0.11,0.06,-56.90,5.52,-21.29
20377,-9.72,3.03,-5.50,-0.06,0.11,0.06,-56.90,5.52,-21.29
20388,-9.95,3.77,-1.46,-0.78,-0.75,0.04,-56.90,5.52,-21.29
20399,-9.95,3.77,-1.46,-0.78,-0.75,0.04,-56.90,5.52,-21.29
20410,-9.61,3.83,-2.14,-1.00,-0.87,-0.20,-56.90,5.52,-21.29
20421,-9.61,3.83,-2.14,-1.00,-0.87,-0.20,-56.90,5.52,-21.29
20432,-8.83,3.14,-2.82,-0.65,-0.58,-0.33,-56.90,5.52,-21.29
20443,-9.09,3.08,-2.15,-0.32,-0.33,-0.28,-56.90,5.52,-21.29
20454,-9.09,3.08,-2.15,-0.32,-0.33,-0.28,-56.90,5.52,-21.29
20465,-9.69,4.35,-1.19,-0.18,-0.07,-0.23,-56.90,5.52,-21.29
20476,-9.69,4.35,-1.19,-0.18,-0.07,-0.23,-56.90,5.52,-21.29
20487,-9.10,2.83,-1.14,0.11,0.45,-0.42,-56.90,5.52,-21.29
20498,-9.10,2.83,-1.14,0.11,0.45,-0.42,-56.90,5.52,-21.29
20509,-8.78,2.07,-4.58,0.39,0.63,-0.28,-59.90,5.99,-20.81
20521,-8.78,2.07,-4.58,0.39,0.63,-0.28,-59.90,5.99,-20.81
20531,-9.46,2.70,-1.31,0.14,0.04,0.04,-59.90,5.99,-20.81
20542,-9.46,2.70,-1.31,0.14,0.04,0.04,-59.90,5.99,-20.81
20553,-9.74,3.21,-3.79,0.04,0.08,0.11,-59.90,5.99,-20.81
20564,-9.54,2.43,-1.72,-0.20,-0.27,0.01,-59.90,5.99,-20.81
20575,-9.54,2.43,-1.72,-0.20,-0.27,0.01,-59.90,5.99,-20.81
20586,-10.37,1.74,-1.77,-0.33,-0.27,-0.04,-59.90,5.99,-20.81
20597,-10.37,1.74,-1.77,-0.33,-0.27,-0.04,-59.90,5.99,-20.81
20608,-11.73,-1.95,-1.14,-0.23,0.16,-0.17,-59.90,5.99,-20.81
20619,-11.73,-1.95,-1.14,-0.23,0.16,-0.17,-59.90,5.99,-20.81
20630,-11.13,-2.72,-2.10,-0.26,0.83,0.46,-57.60,5.99,-20.49
20641,-11.13,-2.72,-2.10,-0.26,0.83,0.46,-57.60,5.99,-20.49
20652,-9.06,3.14,-1.94,-0.25,1.18,1.34,-57.60,5.99,-20.49
20663,-9.06,3.14,-1.94,-0.25,1.18,1.34,-57.60,5.99,-20.49
20674,-7.03,6.74,-4.11,0.50,1.63,1.39,-57.60,5.99,-20.49
20685,-4.05,6.00,-6.33,0.98,1.28,0.78,-57.60,5.99,-20.49
20696,-4.05,6.00,-6.33,0.98,1.28,0.78,-57.60,5.99,-20.49
20707,-6.17,5.60,-5.73,1.20,0.23,0.69,-57.60,5.99,-20.49
20718,-6.17,5.60,-5.73,1.20,0.23,0.69,-57.60,5.99,-20.49
20734,-9.60,9.47,-0.89,0.75,-0.61,0.96,-57.60,5.99,-20.49
20740,-9.60,9.47,-0.89,0.75,-0.61,0.96,-57.60,5.99,-20.49
20751,-6.85,8.06,-3.32,0.74,-0.31,0.64,-54.83,8.15,-23.34
20762,-6.85,8.06,-3.32,0.74,-0.31,0.64,-54.83,8.15,-23.34
20773,-8.30,5.38,-3.58,0.77,-0.56,0.31,-54.83,8.15,-23.34
20784,-9.73,3.35,-2.16,0.46,-0.85,0.09,-54.83,8.15,-23.34
20795,-9.73,3.35,-2.16,0.46,-0.85,0.09,-54.83,8.15,-23.34
20806,-8.87,2.43,-3.52,0.08,-0.84,-0.08,-54.83,8.15,-23.34
20817,-8.87,2.43,-3.52,0.08,-0.84,-0.08,-54.83,8.15,-23.34
20828,-9.29,2.51,-3.09,-0.46,-1.06,-0.40,-54.83,8.15,-23.34
20839,-9.29,2.51,-3.09,-0.46,-1.06,-0.40,-54.83,8.15,-23.34
20850,-12.40,0.70,-0.31,-0.73,-0.95,-0.56,-54.83,8.15,-23.34
20861,-12.40,0.70,-0.31,-0.73,-0.95,-0.56,-54.83,8.15,-23.34
20872,-9.30,2.15,-3.12,-1.02,-0.25,-0.23,-54.83,8.15,-23.34
20883,-9.30,2.15,-3.12,-1.02,-0.25,-0.23,-54.83,8.15,-23.34
20894,-8.97,5.44,-2.30,-0.79,0.06,-0.12,-55.06,8.31,-20.97
20905,-8.12,5.02,-3.05,-0.16,0.35,-0.23,-55.06,8.31,-20.97
20916,-8.12,5.02,-3.05,-0.16,0.35,-0.23,-55.06,8.31,-20.97
20927,-8.68,4.93,-2.72,0.46,0.54,-0.17,-55.06,8.31,-20.97
20938,-8.68,4.93,-2.72,0.46,0.54,-0.17,-55.06,8.31,-20.97
20949,-9.03,4.04,-2.94,0.53,0.36,-0.10,-55.06,8.31,-20.97
20960,-9.03,4.04,-2.94,0.53,0.36,-0.10,-55.06,8.31,-20.97
20971,-9.69,3.09,-0.48,0.13,-0.06,-0.02,-55.06,8.31,-20.97
20982,-9.69,3.09,-0.48,0.13,-0.06,-0.02,-55.06,8.31,-20.97
20993,-9.95,2.69,-3.27,-0.16,-0.12,0.09,-55.06,8.31,-20.97
21004,-9.67,3.68,-1.08,-0.90,-0.69,0.16,-55.75,7.85,-20.81
21015,-9.67,3.68,-1.08,-0.90,-0.69,0.16,-55.75,7.85,-20.81
21026,-9.99,3.95,-2.50,-1.35,-0.93,0.04,-55.75,7.85,-20.81
21037,-9.99,3.95,-2.50,-1.35,-0.93,0.04,-55.75,7.85,-20.81
21048,-9.39,3.55,-1.99,-1.55,-1.10,-0.05,-55.75,7.85,-20.81
21059,-9.39,3.55,-1.99,-1.55,-1.10,-0.05,-55.75,7.85,-20.81
21070,-9.08,3.48,-1.95,-1.33,-0.95,-0.01,-55.75,7.85,-20.81
21081,-9.08,3.48,-1.95,-1.33,-0.95,-0.01,-55.75,7.85,-20.81
21092,-9.23,4.26,-1.18,-0.92,-0.64,0.08,-55.75,7.85,-20.81
21103,-9.23,4.26,-1.18,-0.92,-0.64,0.08,-55.75,7.85,-20.81
21114,-9.16,4.47,-2.39,-0.46,-0.22,0.08,-55.75,7.85,-20.81
21125,-9.48,5.25,-0.81,-0.34,0.05,-0.02,-59.67,9.86,-16.85
21136,-9.48,5.25,-0.81,-0.34,0.05,-0.02,-59.67,9.86,-16.85
21147,-8.24,4.75,-1.09,0.23,0.68,-0.18,-59.67,9.86,-16.85
21158,-8.24,4.75,-1.09,0.23,0.68,-0.18,-59.67,9.86,-16.85
21169,-8.51,4.42,-0.57,1.05,0.99,-0.02,-59.67,9.86,-16.85
21180,-8.51,4.42,-0.57,1.05,0.99,-0.02,-59.67,9.86,-16.85
21191,-8.67,4.46,-2.93,1.13,0.79,0.16,-59.67,9.86,-16.85
21202,-8.67,4.46,-2.93,1.13,0.79,0.16,-59.67,9.86,-16.85
21213,-9.02,3.07,-0.88,0.68,0.14,0.30,-59.67,9.86,-16.85
21224,-9.79,2.10,-0.76,0.32,-0.10,0.36,-59.67,9.86,-16.85
21235,-9.79,2.10,-0.76,0.32,-0.10,0.36,-59.67,9.86,-16.85
21246,-9.95,3.59,-2.55,0.04,0.02,0.29,-57.13,9.70,-19.54
21257,-9.95,3.59,-2.55,0.04,0.02,0.29,-57.13,9.70,-19.54
21268,-10.00,4.54,-0.74,-0.18,0.03,0.03,-57.13,9.70,-19.54
21279,-10.00,4.54,-0.74,-0.18,0.03,0.03,-57.13,9.70,-19.54
21290,-8.70,3.41,-2.67,-0.21,0.31,-0.32,-57.13,9.70,-19.54
21301,-8.70,3.41,-2.67,-0.21,0.31,-0.32,-57.13,9.70,-19.54
21312,-8.61,3.58,-2.53,-0.36,0.22,-0.26,-57.13,9.70,-19.54
21323,-8.61,3.58,-2.53,-0.36,0.22,-0.26,-57.13,9.70,-19.54
21334,-9.01,4.73,-2.04,-0.58,-0.00,-0.08,-57.13,9.70,-19.54
21345,-9.42,4.18,-1.61,-0.67,-0.12,-0.12,-57.13,9.70,-19.54
21356,-9.42,4.18,-1.61,-0.67,-0.12,-0.12,-57.13,9.70,-19.54
21368,-9.24,3.98,-1.31,-0.64,-0.05,-0.15,-57.13,9.70,-19.54
21378,-9.24,3.98,-1.31,-0.64,-0.05,-0.15,-57.13,9.70,-19.54
21389,-8.86,4.99,-2.08,-0.45,0.20,-0.15,-55.52,9.86,-19.70
21400,-8.86,4.99,-2.08,-0.45,0.20,-0.15,-55.52,9.86,-19.70
21411,-8.15,4.73,-1.63,-0.09,0.26,-0.10,-55.52,9.86,-19.70
21422,-8.15,4.73,-1.63,-0.09,0.26,-0.10,-55.52,9.86,-19.70
21433,-8.67,4.50,-2.68,0.39,0.40,-0.00,-55.52,9.86,-19.70
21444,-9.23,4.07,-2.27,0.47,0.25,0.06,-55.52,9.86,-19.70
21455,-9.23,4.07,-2.27,0.47,0.25,0.06,-55.52,9.86,-19.70
21466,-8.80,3.29,-2.91,0.28,-0.00,0.16,-55.52,9.86,-19.70
21477,-8.80,3.29,-2.91,0.28,-0.00,0.16,-55.52,9.86,-19.70
21488,-10.15,4.38,-0.77,-0.15,-0.42,0.25,-55.52,9.86,-19.70
21499,-10.15,4.38,-0.77,-0.15,-0.42,0.25,-55.52,9.86,-19.70
21510,-9.32,2.97,-3.10,-0.38,-0.34,-0.03,-58.52,10.01,-19.54
21521,-9.32,2.97,-3.10,-0.38,-0.34,-0.03,-58.52,10.01,-19.54
21532,-8.81,2.98,-2.90,-0.45,-0.34,-0.05,-58.52,10.01,-19.54
21543,-8.81,2.98,-2.90,-0.45,-0.34,-0.05,-58.52,10.01,-19.54
21554,-9.70,4.66,-0.65,-0.40,-0.21,-0.02,-58.52,10.01,-19.54
21565,-8.85,3.61,-1.67,-0.19,0.30,-0.27,-58.52,10.01,-19.54
21576,-8.85,3.61,-1.67,-0.19,0.30,-0.27,-58.52,10.01,-19.54
21587,-8.88,4.98,-2.40,-0.14,0.39,-0.28,-58.52,10.01,-19.54
21598,-8.88,4.98,-2.40,-0.14,0.39,-0.28,-58.52,10.01,-19.54
21609,-8.47,4.10,-2.28,-0.05,0.22,-0.22,-58.52,10.01,-19.54
21620,-8.47,4.10,-2.28,-0.05,0.22,-0.22,-58.52,10.01,-19.54
21631,-9.52,3.47,-2.17,-0.08,0.06,-0.07,-54.83,10.32,-20.18
21642,-9.52,3.47,-2.17,-0.08,0.06,-0.07,-54.83,10.32,-20.18
21653,-9.60,1.68,-3.34,-0.28,-0.11,-0.02,-54.83,10.32,-20.18
21664,-9.60,1.68,-3.34,-0.28,-0.11,-0.02,-54.83,10.32,-20.18
21675,-9.63,3.46,-0.63,-0.61,-0.40,0.10,-54.83,10.32,-20.18
21686,-9.26,4.57,-1.07,-0.40,0.02,0.07,-54.83,10.32,-20.18
21697,-9.26,4.57,-1.07,-0.40,0.02,0.07,-54.83,10.32,-20.18
21708,-8.07,5.74,-2.31,-0.11,0.46,-0.04,-54.83,10.32,-20.18
21719,-8.07,5.74,-2.31,-0.11,0.46,-0.04,-54.83,10.32,-20.18
21730,-8.63,5.46,-1.88,0.18,0.55,-0.14,-54.83,10.32,-20.18
21741,-8.63,5.46,-1.88,0.18,0.55,-0.14,-54.83,10.32,-20.18
21752,-8.95,3.91,-2.91,0.32,0.50,-0.27,-54.83,10.32,-20.18
21763,-8.95,3.91,-2.91,0.32,0.50,-0.27,-54.83,10.32,-20.18
21774,-9.27,2.94,-1.33,0.11,0.08,-0.23,-55.75,8.77,-19.54
21785,-9.23,3.03,-3.19,-0.01,0.02,-0.06,-55.75,8.77,-19.54
21796,-9.23,3.03,-3.19,-0.01,0.02,-0.06,-55.75,8.77,-19.54
21812,-8.70,3.13,-4.15,-0.42,-0.39,0.02,-55.75,8.77,-19.54
21818,-8.70,3.13,-4.15,-0.42,-0.39,0.02,-55.75,8.77,-19.54
21829,-9.80,4.39,-2.51,-0.64,-0.63,-0.13,-55.75,8.77,-19.54
21840,-9.80,4.39,-2.51,-0.64,-0.63,-0.13,-55.75,8.77,-19.54
21851,-8.59,3.11,-1.49,-0.61,-0.39,-0.42,-55.75,8.77,-19.54
21862,-8.59,3.11,-1.49,-0.61,-0.39,-0.42,-55.75,8.77,-19.54
21873,-9.34,4.53,-0.67,-0.40,-0.01,-0.33,-55.75,8.77,-19.54
21884,-9.34,4.53,-0.67,-0.40,-0.01,-0.33,-55.75,8.77,-19.54
21895,-9.09,4.80,-0.56,-0.13,0.38,-0.39,-58.29,9.86,-18.44
21906,-8.74,4.42,-2.72,0.26,0.79,-0.43,-58.29,9.86,-18.44
21917,-8.74,4.42,-2.72,0.26,0.79,-0.43,-58.29,9.86,-18.44
21928,-9.06,2.59,-1.77,0.34,0.38,-0.26,-58.29,9.86,-18.44
21939,-9.06,2.59,-1.77,0.34,0.38,-0.26,-58.29,9.86,-18.44
21950,-9.56,1.51,-2.06,0.24,0.13,0.01,-58.29,9.86,-18.44
21961,-9.56,1.51,-2.06,0.24,0.13,0.01,-58.29,9.86,-18.44
21972,-9.66,0.54,-6.20,-0.09,-0.09,0.23,-58.29,9.86,-18.44
21983,-9.66,0.54,-6.20,-0.09,-0.09,0.23,-58.29,9.86,-18.44
21994,-12.31,4.58,4.16,-0.66,-0.76,0.36,-58.29,9.86,-18.44
22005,-7.32,4.69,-3.73,-0.62,0.42,-0.29,-56.67,9.08,-20.18
22016,-7.32,4.69,-3.73,-0.62,0.42,-0.29,-56.67,9.08,-20.18
22027,-8.94,6.10,-3.09,-0.70,0.14,-0.73,-56.67,9.08,-20.18
22038,-8.94,6.10,-3.09,-0.70,0.14,-0.73,-56.67,9.08,-20.18
22049,-8.31,4.14,-3.72,-0.67,-0.06,-0.76,-56.67,9.08,-20.18
22060,-8.31,4.14,-3.72,-0.67,-0.06,-0.76,-56.67,9.08,-20.18
22071,-8.97,-1.80,-2.67,-0.40,-0.26,-0.28,-56.67,9.08,-20.18
22082,-8.97,-1.80,-2.67,-0.40,-0.26,-0.28,-56.67,9.08,-20.18
22093,-14.50,-2.24,1.70,-0.12,-0.16,0.80,-56.67,9.08,-20.18
22104,-14.50,-2.24,1.70,-0.12,-0.16,0.80,-56.67,9.08,-20.18
22115,-10.33,-4.49,-0.27,-0.19,0.70,2.29,-56.67,9.08,-20.18
22126,-9.58,-2.76,-4.38,-0.54,1.15,3.77,-56.67,9.08,-20.18
22137,-9.58,-2.76,-4.38,-0.54,1.15,3.77,-56.67,9.08,-20.18
22148,-10.37,1.12,0.20,-0.15,0.55,5.70,-50.91,14.81,-20.97
22159,-10.37,1.12,0.20,-0.15,0.55,5.70,-50.91,14.81,-20.97
22170,-7.87,5.16,0.41,-0.19,1.17,6.35,-50.91,14.81,-20.97
22181,-7.87,5.16,0.41,-0.19,1.17,6.35,-50.91,14.81,-20.97
22192,-5.68,8.60,-0.68,-0.59,1.69,5.89,-50.91,14.81,-20.97
22203,-5.68,8.60,-0.68,-0.59,1.69,5.89,-50.91,14.81,-20.97
22214,-5.72,12.80,-0.15,-0.99,1.74,4.72,-50.91,14.81,-20.97
22225,-5.38,11.18,-1.30,-0.78,1.84,3.45,-50.91,14.81,-20.97
22236,-5.38,11.18,-1.30,-0.78,1.84,3.45,-50.91,14.81,-20.97
22247,-4.35,11.46,-1.92,-0.53,1.77,3.21,-50.91,14.81,-20.97
22258,-4.35,11.46,-1.92,-0.53,1.77,3.21,-50.91,14.81,-20.97
22269,-2.66,13.23,-2.06,-0.30,1.52,2.96,-25.07,28.43,-21.92
22280,-2.66,13.23,-2.06,-0.30,1.52,2.96,-25.07,28.43,-21.92
22291,-1.50,14.08,-2.76,0.00,1.20,2.13,-25.07,28.43,-21.92
22302,-1.50,14.08,-2.76,0.00,1.20,2.13,-25.07,28.43,-21.92
22313,-0.86,13.12,-2.82,0.46,0.79,1.08,-25.07,28.43,-21.92
22324,-0.86,13.12,-2.82,0.46,0.79,1.08,-25.07,28.43,-21.92
22335,-0.39,13.71,-3.82,0.84,0.43,0.12,-25.07,28.43,-21.92
22346,0.31,14.68,-6.17,0.97,-0.32,-1.36,-25.07,28.43,-21.92
22357,0.31,14.68,-6.17,0.97,-0.32,-1.36,-25.07,28.43,-21.92
22368,-2.34,9.04,-3.36,2.32,-1.37,-2.72,-25.07,28.43,-21.92
22379,-2.34,9.04,-3.36,2.32,-1.37,-2.72,-25.07,28.43,-21.92
22390,-2.70,6.15,0.59,4.54,-1.54,-2.38,-27.84,24.40,-27.62
22401,-2.70,6.15,0.59,4.54,-1.54,-2.38,-27.84,24.40,-27.62
22412,-3.53,6.27,-5.91,2.02,-1.37,-1.70,-27.84,24.40,-27.62
22423,-3.53,6.27,-5.91,2.02,-1.37,-1.70,-27.84,24.40,-27.62
22434,-1.49,9.45,-7.78,0.79,-2.19,-1.51,-27.84,24.40,-27.62
22445,-3.94,5.93,-6.53,2.62,-3.05,-1.79,-27.84,24.40,-27.62
22456,-3.94,5.93,-6.53,2.62,-3.05,-1.79,-27.84,24.40,-27.62
22467,-4.06,3.14,-3.59,4.07,-3.11,-0.94,-27.84,24.40,-27.62
22478,-4.06,3.14,-3.59,4.07,-3.11,-0.94,-27.84,24.40,-27.62
22489,-2.17,4.66,-4.89,1.75,-3.42,-0.08,-27.84,24.40,-27.62
22500,-2.17,4.66,-4.89,1.75,-3.42,-0.08,-27.84,24.40,-27.62
22511,-4.12,6.14,-5.88,0.98,-3.87,0.14,-47.45,15.89,-24.93
22522,-4.12,6.14,-5.88,0.98,-3.87,0.14,-47.45,15.89,-24.93
22533,-5.04,5.41,-3.88,1.49,-4.08,0.13,-47.45,15.89,-24.93
22544,-5.04,5.41,-3.88,1.49,-4.08,0.13,-47.45,15.89,-24.93
22555,-5.21,5.00,-2.61,1.68,-3.91,0.30,-47.45,15.89,-24.93
22566,-4.77,4.23,0.71,1.54,-3.40,0.71,-47.45,15.89,-24.93
22577,-4.77,4.23,0.71,1.54,-3.40,0.71,-47.45,15.89,-24.93
22588,-6.51,5.68,0.67,0.54,-2.66,0.99,-47.45,15.89,-24.93
22599,-6.51,5.68,0.67,0.54,-2.66,0.99,-47.45,15.89,-24.93
22610,-7.99,6.95,1.57,1.54,-1.46,1.27,-47.45,15.89,-24.93
22621,-7.99,6.95,1.57,1.54,-1.46,1.27,-47.45,15.89,-24.93
22632,-7.98,8.92,-2.13,0.67,-0.28,1.13,-47.45,15.89,-24.93
22643,-7.98,8.92,-2.13,0.67,-0.28,1.13,-47.45,15.89,-24.93
22654,-6.48,9.18,-7.52,0.08,-0.06,0.40,-55.06,15.43,-19.39
22665,-6.48,9.18,-7.52,0.08,-0.06,0.40,-55.06,15.43,-19.39
22677,-6.05,8.10,-9.03,0.76,-1.22,-0.33,-55.06,15.43,-19.39
22687,-7.68,5.75,-3.38,2.62,-2.58,-0.29,-55.06,15.43,-19.39
22698,-7.68,5.75,-3.38,2.62,-2.58,-0.29,-55.06,15.43,-19.39
22709,-7.58,3.60,-0.59,3.23,-2.70,0.37,-55.06,15.43,-19.39
22720,-7.58,3.60,-0.59,3.23,-2.70,0.37,-55.06,15.43,-19.39
22731,-8.08,5.24,-2.01,1.86,-2.29,1.30,-55.06,15.43,-19.39
22742,-8.08,5.24,-2.01,1.86,-2.29,1.30,-55.06,15.43,-19.39
22753,-4.11,7.93,-1.90,0.82,-2.05,1.58,-55.06,15.43,-19.39
22764,-4.11,7.93,-1.90,0.82,-2.05,1.58,-55.06,15.43,-19.39
22775,-7.48,11.37,-4.35,-0.73,-2.39,1.14,-59.44,14.96,-12.26
22786,-10.25,11.60,-1.52,0.94,-2.57,0.28,-59.44,14.96,-12.26
22797,-10.25,11.60,-1.52,0.94,-2.57,0.28,-59.44,14.96,-12.26
22808,-7.32,8.35,3.76,3.93,-1.90,-0.36,-59.44,14.96,-12.26
22819,-7.32,8.35,3.76,3.93,-1.90,-0.36,-59.44,14.96,-12.26
22830,-7.04,8.53,-2.03,2.13,-1.62,-0.87,-59.44,14.96,-12.26
22841,-7.04,8.53,-2.03,2.13,-1.62,-0.87,-59.44,14.96,-12.26
22852,-7.13,8.65,-2.72,2.75,-1.78,-1.26,-59.44,14.96,-12.26
22863,-7.13,8.65,-2.72,2.75,-1.78,-1.26,-59.44,14.96,-12.26
22874,-9.80,6.74,-3.36,3.90,-1.81,-1.39,-59.44,14.96,-12.26
