time,ax,ay,az,gx,gy,gz,mx,my,mz
402,-0.50,6.40,-8.07,0.02,0.01,-0.00,-45.78,22.80,-26.53
412,-0.51,6.41,-8.04,0.02,0.01,-0.01,-45.78,22.80,-26.53
423,-0.53,6.42,-8.05,0.02,0.01,-0.00,-45.78,22.80,-26.53
434,-0.53,6.42,-8.05,0.02,0.01,-0.00,-45.78,22.80,-26.53
445,-0.51,6.40,-8.06,0.02,0.01,-0.00,-45.78,22.80,-26.53
456,-0.51,6.40,-8.06,0.02,0.01,-0.00,-45.78,22.80,-26.53
468,-0.49,6.39,-8.02,0.02,0.01,-0.00,-45.78,22.80,-26.53
478,-0.49,6.39,-8.02,0.02,0.01,-0.00,-45.78,22.80,-26.53
489,-0.51,6.38,-8.06,0.02,0.01,-0.00,-45.78,22.80,-26.53
500,-0.51,6.38,-8.06,0.02,0.01,-0.00,-45.78,22.80,-26.53
511,-0.51,6.40,-8.05,0.02,0.01,-0.00,-45.08,22.95,-27.96
522,-0.51,6.40,-8.05,0.02,0.01,-0.00,-45.08,22.95,-27.96
533,-0.51,6.42,-8.05,0.02,0.01,-0.00,-45.08,22.95,-27.96
544,-0.49,6.40,-8.04,0.02,0.01,-0.00,-45.08,22.95,-27.96
555,-0.49,6.40,-8.04,0.02,0.01,-0.00,-45.08,22.95,-27.96
566,-0.49,6.39,-8.07,0.02,0.01,-0.00,-45.08,22.95,-27.96
577,-0.49,6.39,-8.07,0.02,0.01,-0.00,-45.08,22.95,-27.96
588,-0.50,6.39,-8.06,0.02,0.01,-0.00,-45.08,22.95,-27.96
599,-0.50,6.39,-8.06,0.02,0.01,-0.00,-45.08,22.95,-27.96
610,-0.52,6.41,-8.03,0.02,0.01,-0.00,-45.08,22.95,-27.96
621,-0.52,6.41,-8.03,0.02,0.01,-0.00,-45.08,22.95,-27.96
632,-0.51,6.41,-8.06,0.02,0.01,-0.00,-46.01,21.72,-27.96
643,-0.49,6.41,-8.07,0.02,0.01,-0.00,-46.01,21.72,-27.96
654,-0.49,6.41,-8.07,0.02,0.01,-0.00,-46.01,21.72,-27.96
665,-0.51,6.39,-8.07,0.02,0.01,-0.00,-46.01,21.72,-27.96
676,-0.51,6.39,-8.07,0.02,0.01,-0.00,-46.01,21.72,-27.96
687,-0.52,6.41,-8.05,0.02,0.01,-0.00,-46.01,21.72,-27.96
698,-0.52,6.41,-8.05,0.02,0.01,-0.00,-46.01,21.72,-27.96
709,-0.51,6.41,-8.03,0.02,0.01,-0.00,-46.01,21.72,-27.96
720,-0.51,6.41,-8.03,0.02,0.01,-0.00,-46.01,21.72,-27.96
731,-0.51,6.42,-8.05,0.02,0.01,-0.00,-46.01,21.72,-27.96
742,-0.51,6.42,-8.05,0.02,0.01,-0.00,-46.01,21.72,-27.96
753,-0.49,6.40,-8.04,0.02,0.01,-0.00,-46.01,21.72,-27.96
765,-0.49,6.39,-8.06,0.02,0.01,-0.00,-44.61,22.34,-27.96
775,-0.49,6.39,-8.06,0.02,0.01,-0.00,-44.61,22.34,-27.96
786,-0.49,6.40,-8.05,0.02,0.01,-0.00,-44.61,22.34,-27.96
797,-0.49,6.40,-8.05,0.02,0.01,-0.00,-44.61,22.34,-27.96
808,-0.51,6.41,-8.04,0.02,0.01,-0.00,-44.61,22.34,-27.96
819,-0.51,6.41,-8.04,0.02,0.01,-0.00,-44.61,22.34,-27.96
830,-0.51,6.41,-8.03,0.02,0.01,-0.00,-44.61,22.34,-27.96
841,-0.51,6.41,-8.03,0.02,0.01,-0.00,-44.61,22.34,-27.96
852,-0.50,6.41,-8.06,0.02,0.01,-0.00,-44.61,22.34,-27.96
863,-0.50,6.40,-8.06,0.02,0.01,-0.00,-44.61,22.34,-27.96
874,-0.50,6.40,-8.06,0.02,0.01,-0.00,-44.61,22.34,-27.96
885,-0.51,6.39,-8.06,0.02,0.01,-0.00,-45.78,21.57,-27.16
896,-0.51,6.39,-8.06,0.02,0.01,-0.00,-45.78,21.57,-27.16
907,-0.51,6.40,-8.05,0.02,0.01,-0.00,-45.78,21.57,-27.16
918,-0.51,6.40,-8.05,0.02,0.01,-0.00,-45.78,21.57,-27.16
929,-0.50,6.42,-8.05,0.02,0.01,-0.00,-45.78,21.57,-27.16
940,-0.50,6.42,-8.05,0.02,0.01,-0.00,-45.78,21.57,-27.16
951,-0.48,6.40,-8.05,0.02,0.01,-0.00,-45.78,21.57,-27.16
962,-0.48,6.40,-8.05,0.02,0.01,-0.00,-45.78,21.57,-27.16
973,-0.49,6.39,-8.04,0.02,0.01,-0.00,-45.78,21.57,-27.16
984,-0.51,6.40,-8.03,0.02,0.01,-0.00,-45.78,21.57,-27.16
995,-0.51,6.40,-8.03,0.02,0.01,-0.00,-45.78,21.57,-27.16
1006,-0.51,6.41,-8.05,0.02,0.01,-0.00,-43.68,22.95,-27.96
1017,-0.51,6.41,-8.05,0.02,0.01,-0.00,-43.68,22.95,-27.96
1028,-0.51,6.40,-8.05,0.02,0.01,-0.00,-43.68,22.95,-27.96
1039,-0.51,6.40,-8.05,0.02,0.01,-0.00,-43.68,22.95,-27.96
1050,-0.50,6.41,-8.06,0.02,0.01,-0.00,-43.68,22.95,-27.96
1061,-0.50,6.41,-8.06,0.02,0.01,-0.00,-43.68,22.95,-27.96
1072,-0.51,6.39,-8.08,0.02,0.01,-0.00,-43.68,22.95,-27.96
1083,-0.52,6.39,-8.04,0.02,0.01,-0.00,-43.68,22.95,-27.96
1094,-0.52,6.39,-8.04,0.02,0.01,-0.00,-43.68,22.95,-27.96
1105,-0.51,6.41,-8.03,0.02,0.01,-0.00,-43.68,22.95,-27.96
1116,-0.51,6.41,-8.03,0.02,0.01,-0.00,-43.68,22.95,-27.96
1127,-0.50,6.39,-8.06,0.02,0.01,-0.00,-45.78,22.19,-27.80
1138,-0.50,6.39,-8.06,0.02,0.01,-0.00,-45.78,22.19,-27.80
1149,-0.50,6.39,-8.05,0.02,0.01,-0.00,-45.78,22.19,-27.80
1160,-0.50,6.39,-8.05,0.02,0.01,-0.00,-45.78,22.19,-27.80
1172,-0.51,6.40,-8.08,0.02,0.01,-0.00,-45.78,22.19,-27.80
1182,-0.51,6.40,-8.08,0.02,0.01,-0.00,-45.78,22.19,-27.80
1193,-0.51,6.41,-8.05,0.02,0.01,-0.00,-45.78,22.19,-27.80
1204,-0.50,6.40,-8.04,0.02,0.01,-0.00,-45.78,22.19,-27.80
1215,-0.50,6.40,-8.04,0.02,0.01,-0.00,-45.78,22.19,-27.80
1226,-0.50,6.41,-8.04,0.02,0.01,-0.00,-45.78,22.19,-27.80
1237,-0.50,6.41,-8.04,0.02,0.01,-0.00,-45.78,22.19,-27.80
1248,-0.51,6.41,-8.05,0.02,0.01,-0.00,-45.78,22.19,-27.80
1259,-0.51,6.41,-8.05,0.02,0.01,-0.00,-45.78,22.19,-27.80
1270,-0.51,6.40,-8.07,0.02,0.01,-0.00,-47.40,21.72,-26.69
1281,-0.51,6.40,-8.07,0.02,0.01,-0.00,-47.40,21.72,-26.69
1292,-0.52,6.40,-8.03,0.02,0.01,-0.00,-47.40,21.72,-26.69
1303,-0.52,6.40,-8.03,0.02,0.01,-0.00,-47.40,21.72,-26.69
1314,-0.51,6.41,-8.04,0.02,0.01,-0.00,-47.40,21.72,-26.69
1325,-0.50,6.41,-8.03,0.02,0.01,-0.00,-47.40,21.72,-26.69
1340,-0.50,6.41,-8.03,0.02,0.01,-0.00,-47.40,21.72,-26.69
1347,-0.49,6.39,-8.03,0.02,0.01,-0.00,-47.40,21.72,-26.69
1358,-0.49,6.39,-8.03,0.02,0.01,-0.00,-47.40,21.72,-26.69
1369,-0.52,6.41,-8.03,0.02,0.01,-0.00,-47.40,21.72,-26.69
1380,-0.52,6.41,-8.03,0.02,0.01,-0.00,-47.40,21.72,-26.69
1391,-0.51,6.41,-8.06,0.02,0.01,-0.00,-43.68,22.03,-27.96
1402,-0.51,6.41,-8.06,0.02,0.01,-0.00,-43.68,22.03,-27.96
1413,-0.51,6.40,-8.05,0.02,0.01,-0.00,-43.68,22.03,-27.96
1424,-0.49,6.40,-8.04,0.02,0.01,-0.00,-43.68,22.03,-27.96
1435,-0.49,6.40,-8.04,0.02,0.01,-0.00,-43.68,22.03,-27.96
1446,-0.51,6.40,-8.05,0.02,0.01,-0.00,-43.68,22.03,-27.96
1457,-0.51,6.40,-8.05,0.02,0.01,-0.00,-43.68,22.03,-27.96
1468,-0.51,6.40,-8.05,0.02,0.01,-0.00,-43.68,22.03,-27.96
1484,-0.51,6.40,-8.05,0.02,0.01,-0.00,-43.68,22.03,-27.96
1490,-0.51,6.41,-8.06,0.02,0.01,-0.00,-43.68,22.03,-27.96
1501,-0.51,6.41,-8.06,0.02,0.01,-0.00,-43.68,22.03,-27.96
1512,-0.50,6.41,-8.04,0.02,0.01,-0.00,-43.91,21.26,-27.80
1523,-0.50,6.41,-8.04,0.02,0.01,-0.00,-43.91,21.26,-27.80
1534,-0.50,6.40,-8.07,0.02,0.01,-0.00,-43.91,21.26,-27.80
1545,-0.52,6.40,-8.05,0.02,0.01,-0.00,-43.91,21.26,-27.80
1556,-0.52,6.40,-8.05,0.02,0.01,-0.00,-43.91,21.26,-27.80
1567,-0.51,6.40,-8.06,0.02,0.01,-0.00,-43.91,21.26,-27.80
1579,-0.51,6.40,-8.06,0.02,0.01,-0.00,-43.91,21.26,-27.80
1589,-0.49,6.40,-8.06,0.02,0.01,-0.00,-43.91,21.26,-27.80
1600,-0.49,6.40,-8.06,0.02,0.01,-0.00,-43.91,21.26,-27.80
1611,-0.50,6.40,-8.07,0.02,0.01,-0.00,-43.91,21.26,-27.80
1622,-0.50,6.40,-8.07,0.02,0.01,-0.00,-43.91,21.26,-27.80
1633,-0.50,6.40,-8.03,0.02,0.01,-0.00,-43.91,21.26,-27.80
1644,-0.51,6.40,-8.06,0.02,0.01,-0.00,-45.78,23.11,-26.53
1655,-0.51,6.40,-8.06,0.02,0.01,-0.00,-45.78,23.11,-26.53
1666,-0.53,6.40,-8.06,0.02,0.01,-0.00,-45.78,23.11,-26.53
1677,-0.53,6.40,-8.06,0.02,0.01,-0.00,-45.78,23.11,-26.53
1688,-0.50,6.41,-8.03,0.02,0.00,-0.00,-45.78,23.11,-26.53
1699,-0.50,6.41,-8.03,0.02,0.00,-0.00,-45.78,23.11,-26.53
1710,-0.49,6.41,-8.04,0.02,0.01,-0.00,-45.78,23.11,-26.53
1721,-0.49,6.41,-8.04,0.02,0.01,-0.00,-45.78,23.11,-26.53
1732,-0.50,6.39,-8.05,0.02,0.01,-0.00,-45.78,23.11,-26.53
1743,-0.50,6.39,-8.05,0.02,0.01,-0.00,-45.78,23.11,-26.53
1754,-0.51,6.39,-8.02,0.02,0.01,-0.00,-45.78,23.11,-26.53
1765,-0.52,6.41,-8.04,0.02,0.01,-0.00,-45.08,22.34,-27.01
1776,-0.52,6.41,-8.04,0.02,0.01,-0.00,-45.08,22.34,-27.01
1787,-0.51,6.41,-8.05,0.02,0.01,-0.00,-45.08,22.34,-27.01
1798,-0.51,6.41,-8.05,0.02,0.01,-0.00,-45.08,22.34,-27.01
1809,-0.50,6.41,-8.04,0.02,0.01,-0.00,-45.08,22.34,-27.01
1820,-0.50,6.41,-8.04,0.02,0.01,-0.00,-45.08,22.34,-27.01
1831,-0.51,6.40,-8.06,0.02,0.01,-0.00,-45.08,22.34,-27.01
1842,-0.51,6.40,-8.06,0.02,0.01,-0.00,-45.08,22.34,-27.01
1853,-0.51,6.39,-8.04,0.02,0.01,-0.00,-45.08,22.34,-27.01
1864,-0.51,6.40,-8.04,0.02,0.01,-0.00,-45.08,22.34,-27.01
1875,-0.51,6.40,-8.04,0.02,0.01,-0.00,-45.08,22.34,-27.01
1886,-0.50,6.40,-8.05,0.02,0.01,-0.00,-44.61,22.34,-27.96
1897,-0.50,6.40,-8.05,0.02,0.01,-0.00,-44.61,22.34,-27.96
1908,-0.49,6.40,-8.07,0.02,0.01,-0.00,-44.61,22.34,-27.96
1919,-0.49,6.40,-8.07,0.02,0.01,-0.00,-44.61,22.34,-27.96
1930,-0.51,6.41,-8.07,0.02,0.01,-0.00,-44.61,22.34,-27.96
1941,-0.51,6.41,-8.07,0.02,0.01,-0.00,-44.61,22.34,-27.96
1952,-0.53,6.40,-8.03,0.02,0.01,-0.00,-44.61,22.34,-27.96
1963,-0.53,6.40,-8.03,0.02,0.01,-0.00,-44.61,22.34,-27.96
1974,-0.51,6.39,-8.05,0.02,0.01,-0.00,-44.61,22.34,-27.96
1985,-0.50,6.40,-8.03,0.02,0.01,-0.00,-44.61,22.34,-27.96
1996,-0.50,6.40,-8.03,0.02,0.01,-0.00,-44.61,22.34,-27.96
2007,-0.50,6.41,-8.02,0.02,0.01,-0.00,-44.61,22.34,-27.96
2018,-0.50,6.41,-8.02,0.02,0.01,-0.00,-44.61,22.34,-27.96
2029,-0.51,6.40,-8.06,0.02,0.01,-0.00,-46.01,21.72,-26.69
2040,-0.51,6.40,-8.06,0.02,0.01,-0.00,-46.01,21.72,-26.69
2051,-0.51,6.40,-8.05,0.02,0.01,-0.00,-46.01,21.72,-26.69
2062,-0.51,6.40,-8.05,0.02,0.01,-0.00,-46.01,21.72,-26.69
2073,-0.51,6.40,-8.04,0.02,0.01,-0.00,-46.01,21.72,-26.69
2084,-0.51,6.39,-8.05,0.02,0.01,-0.00,-46.01,21.72,-26.69
2095,-0.51,6.39,-8.05,0.02,0.01,-0.00,-46.01,21.72,-26.69
2106,-0.51,6.39,-8.03,0.02,0.01,-0.00,-46.01,21.72,-26.69
2117,-0.51,6.39,-8.03,0.02,0.01,-0.00,-46.01,21.72,-26.69
2128,-0.51,6.40,-8.04,0.02,0.01,-0.00,-46.01,21.72,-26.69
2139,-0.51,6.40,-8.04,0.02,0.01,-0.00,-46.01,21.72,-26.69
2150,-0.51,6.40,-8.06,0.02,0.01,-0.00,-44.61,20.80,-27.32
2161,-0.51,6.40,-8.06,0.02,0.01,-0.00,-44.61,20.80,-27.32
2172,-0.50,6.40,-8.07,0.02,0.01,-0.00,-44.61,20.80,-27.32
2183,-0.50,6.40,-8.07,0.02,0.01,-0.00,-44.61,20.80,-27.32
2194,-0.51,6.40,-8.05,0.02,0.01,-0.00,-44.61,20.80,-27.32
2205,-0.50,6.40,-8.05,0.02,0.01,-0.00,-44.61,20.80,-27.32
2216,-0.50,6.40,-8.05,0.02,0.01,-0.00,-44.61,20.80,-27.32
2227,-0.51,6.40,-8.01,0.02,0.01,-0.00,-44.61,20.80,-27.32
2238,-0.51,6.40,-8.01,0.02,0.01,-0.00,-44.61,20.80,-27.32
2249,-0.51,6.41,-8.03,0.02,0.01,-0.00,-44.61,20.80,-27.32
2260,-0.51,6.41,-8.03,0.02,0.01,-0.00,-44.61,20.80,-27.32
2271,-0.51,6.39,-8.07,0.02,0.01,-0.00,-43.91,22.19,-28.12
2282,-0.51,6.39,-8.07,0.02,0.01,-0.00,-43.91,22.19,-28.12
2293,-0.51,6.41,-8.05,0.02,0.01,-0.00,-43.91,22.19,-28.12
2304,-0.51,6.41,-8.05,0.02,0.01,-0.00,-43.91,22.19,-28.12
2316,-0.50,6.40,-8.04,0.02,0.01,-0.00,-43.91,22.19,-28.12
2326,-0.50,6.39,-8.04,0.02,0.01,-0.00,-43.91,22.19,-28.12
2337,-0.50,6.39,-8.04,0.02,0.01,-0.00,-43.91,22.19,-28.12
2348,-0.52,6.40,-8.04,0.02,0.01,-0.00,-43.91,22.19,-28.12
2359,-0.52,6.40,-8.04,0.02,0.01,-0.00,-43.91,22.19,-28.12
2370,-0.50,6.40,-8.04,0.02,0.01,-0.00,-43.91,22.19,-28.12
2381,-0.50,6.40,-8.04,0.02,0.01,-0.00,-43.91,22.19,-28.12
2392,-0.50,6.40,-8.06,0.02,0.01,-0.00,-43.91,22.19,-28.12
2403,-0.50,6.40,-8.06,0.02,0.01,-0.00,-43.91,22.19,-28.12
2414,-0.51,6.40,-8.06,0.02,0.01,-0.00,-43.91,22.19,-28.12
2425,-0.53,6.41,-8.03,0.02,0.01,-0.00,-43.91,22.19,-28.12
2436,-0.53,6.41,-8.03,0.02,0.01,-0.00,-43.91,22.19,-28.12
2447,-0.50,6.39,-8.04,0.02,0.01,-0.00,-43.91,22.19,-28.12
2458,-0.50,6.39,-8.04,0.02,0.01,-0.00,-43.91,22.19,-28.12
2469,-0.51,6.39,-8.06,0.02,0.01,-0.00,-43.91,22.19,-28.12
2480,-0.51,6.39,-8.06,0.02,0.01,-0.00,-43.91,22.19,-28.12
2491,-0.51,6.41,-8.05,0.02,0.01,-0.00,-43.91,22.19,-28.12
2502,-0.51,6.41,-8.05,0.02,0.01,-0.00,-43.91,22.19,-28.12
2513,-0.52,6.41,-8.05,0.02,0.01,-0.00,-43.91,22.19,-28.12
2524,-0.52,6.41,-8.05,0.02,0.01,-0.00,-43.91,22.19,-28.12
2535,-0.51,6.40,-8.05,0.02,0.01,-0.00,-42.98,21.57,-28.43
2546,-0.49,6.40,-8.04,0.02,0.01,-0.00,-42.98,21.57,-28.43
2557,-0.49,6.40,-8.04,0.02,0.01,-0.00,-42.98,21.57,-28.43
2568,-0.48,6.41,-8.03,0.02,0.01,-0.00,-42.98,21.57,-28.43
2579,-0.48,6.41,-8.03,0.02,0.01,-0.00,-42.98,21.57,-28.43
2590,-0.50,6.42,-8.05,0.02,0.01,-0.00,-42.98,21.57,-28.43
2601,-0.50,6.42,-8.05,0.02,0.01,-0.00,-42.98,21.57,-28.43
2612,-0.51,6.41,-8.04,0.02,0.01,-0.00,-42.98,21.57,-28.43
2623,-0.51,6.41,-8.04,0.02,0.01,-0.00,-42.98,21.57,-28.43
2634,-0.51,6.41,-8.03,0.02,0.01,-0.00,-42.98,21.57,-28.43
2645,-0.50,6.40,-8.06,0.02,0.01,-0.00,-45.31,22.49,-27.80
2656,-0.50,6.40,-8.06,0.02,0.01,-0.00,-45.31,22.49,-27.80
2667,-0.49,6.40,-8.05,0.02,0.01,-0.00,-45.31,22.49,-27.80
2678,-0.49,6.40,-8.05,0.02,0.01,-0.00,-45.31,22.49,-27.80
2689,-0.49,6.41,-8.05,0.02,0.01,-0.00,-45.31,22.49,-27.80
2700,-0.49,6.41,-8.05,0.02,0.01,-0.00,-45.31,22.49,-27.80
2711,-0.51,6.41,-8.06,0.02,0.01,-0.00,-45.31,22.49,-27.80
2723,-0.51,6.41,-8.06,0.02,0.01,-0.00,-45.31,22.49,-27.80
2733,-0.50,6.41,-8.05,0.02,0.01,-0.00,-45.31,22.49,-27.80
2744,-0.50,6.41,-8.05,0.02,0.01,-0.00,-45.31,22.49,-27.80
2755,-0.51,6.41,-8.06,0.02,0.01,-0.00,-45.31,22.49,-27.80
2766,-0.50,6.40,-8.05,0.02,0.01,-0.00,-45.31,22.80,-27.16
2777,-0.50,6.40,-8.05,0.02,0.01,-0.00,-45.31,22.80,-27.16
2788,-0.51,6.40,-8.05,0.02,0.01,-0.00,-45.31,22.80,-27.16
2799,-0.51,6.40,-8.05,0.02,0.01,-0.00,-45.31,22.80,-27.16
2810,-0.51,6.41,-8.05,0.02,0.01,-0.00,-45.31,22.80,-27.16
2821,-0.51,6.41,-8.05,0.02,0.01,-0.00,-45.31,22.80,-27.16
2832,-0.50,6.40,-8.03,0.02,0.01,-0.00,-45.31,22.80,-27.16
2843,-0.50,6.40,-8.03,0.02,0.01,-0.00,-45.31,22.80,-27.16
2854,-0.51,6.40,-8.04,0.02,0.01,-0.00,-45.31,22.80,-27.16
2865,-0.50,6.40,-8.04,0.02,0.01,-0.00,-45.31,22.80,-27.16
2876,-0.50,6.40,-8.04,0.02,0.01,-0.00,-45.31,22.80,-27.16
2887,-0.53,6.41,-8.04,0.02,0.01,-0.00,-45.31,22.80,-27.16
2898,-0.53,6.41,-8.04,0.02,0.01,-0.00,-45.31,22.80,-27.16
2909,-0.51,6.40,-8.07,0.02,0.01,-0.00,-45.78,22.49,-26.53
2920,-0.51,6.40,-8.07,0.02,0.01,-0.00,-45.78,22.49,-26.53
2931,-0.51,6.40,-8.04,0.02,0.01,-0.00,-45.78,22.49,-26.53
2942,-0.51,6.40,-8.04,0.02,0.01,-0.00,-45.78,22.49,-26.53
2953,-0.48,6.41,-8.04,0.02,0.01,-0.00,-45.78,22.49,-26.53
2964,-0.48,6.41,-8.04,0.02,0.01,-0.00,-45.78,22.49,-26.53
2975,-0.50,6.39,-8.05,0.02,0.01,-0.00,-45.78,22.49,-26.53
2986,-0.50,6.41,-8.04,0.02,0.01,-0.00,-45.78,22.49,-26.53
2997,-0.50,6.41,-8.04,0.02,0.01,-0.00,-45.78,22.49,-26.53
3008,-0.51,6.41,-8.05,0.02,0.01,-0.00,-45.78,22.49,-26.53
3019,-0.51,6.41,-8.05,0.02,0.01,-0.00,-45.78,22.49,-26.53
3030,-0.51,6.41,-8.08,0.02,0.01,-0.00,-46.01,22.34,-27.32
3041,-0.51,6.41,-8.08,0.02,0.01,-0.00,-46.01,22.34,-27.32
3052,-0.51,6.41,-8.05,0.02,0.01,-0.00,-46.01,22.34,-27.32
3063,-0.51,6.41,-8.05,0.02,0.01,-0.00,-46.01,22.34,-27.32
3074,-0.51,6.41,-8.05,0.02,0.01,-0.00,-46.01,22.34,-27.32
3085,-0.50,6.40,-8.04,0.02,0.01,-0.00,-46.01,22.34,-27.32
3096,-0.50,6.40,-8.04,0.02,0.01,-0.00,-46.01,22.34,-27.32
3107,-0.51,6.40,-8.04,0.02,0.01,-0.00,-46.01,22.34,-27.32
3118,-0.51,6.40,-8.04,0.02,0.01,-0.00,-46.01,22.34,-27.32
3129,-0.49,6.40,-8.03,0.02,0.01,-0.00,-46.01,22.34,-27.32
3140,-0.49,6.40,-8.03,0.02,0.01,-0.00,-46.01,22.34,-27.32
3151,-0.50,6.40,-8.07,0.02,0.01,-0.00,-43.91,21.26,-27.48
3162,-0.50,6.40,-8.07,0.02,0.01,-0.00,-43.91,21.26,-27.48
3174,-0.51,6.41,-8.06,0.02,0.01,-0.00,-43.91,21.26,-27.48
3184,-0.51,6.41,-8.06,0.02,0.01,-0.00,-43.91,21.26,-27.48
3195,-0.52,6.40,-8.05,0.02,0.01,-0.00,-43.91,21.26,-27.48
3206,-0.51,6.41,-8.07,0.02,0.01,-0.00,-43.91,21.26,-27.48
3217,-0.51,6.41,-8.07,0.02,0.01,-0.00,-43.91,21.26,-27.48
3228,-0.51,6.40,-8.07,0.02,0.01,-0.00,-43.91,21.26,-27.48
3239,-0.51,6.40,-8.07,0.02,0.01,-0.00,-43.91,21.26,-27.48
3250,-0.49,6.40,-8.04,0.02,0.01,-0.00,-43.91,21.26,-27.48
3261,-0.49,6.40,-8.04,0.02,0.01,-0.00,-43.91,21.26,-27.48
3272,-0.49,6.40,-8.04,0.02,0.01,-0.00,-43.91,21.26,-27.48
3283,-0.49,6.40,-8.04,0.02,0.01,-0.00,-43.91,21.26,-27.48
3294,-0.52,6.40,-8.05,0.02,0.01,-0.00,-45.31,22.19,-26.85
3305,-0.52,6.40,-8.05,0.02,0.01,-0.00,-45.31,22.19,-26.85
3316,-0.51,6.42,-8.05,0.02,0.01,-0.00,-45.31,22.19,-26.85
3327,-0.50,6.40,-8.04,0.02,0.01,-0.00,-45.31,22.19,-26.85
3338,-0.50,6.40,-8.04,0.02,0.01,-0.00,-45.31,22.19,-26.85
3349,-0.50,6.40,-8.04,0.02,0.01,-0.00,-45.31,22.19,-26.85
3360,-0.50,6.40,-8.04,0.02,0.01,-0.00,-45.31,22.19,-26.85
3371,-0.51,6.40,-8.02,0.02,0.01,-0.00,-45.31,22.19,-26.85
3382,-0.51,6.40,-8.02,0.02,0.01,-0.00,-45.31,22.19,-26.85
3393,-0.50,6.39,-8.05,0.02,0.01,-0.00,-45.31,22.19,-26.85
3404,-0.50,6.39,-8.05,0.02,0.01,-0.00,-45.31,22.19,-26.85
3415,-0.51,6.41,-8.05,0.02,0.01,-0.00,-44.38,22.19,-27.80
3426,-0.50,6.41,-8.04,0.02,0.01,-0.00,-44.38,22.19,-27.80
3437,-0.50,6.41,-8.04,0.02,0.01,-0.00,-44.38,22.19,-27.80
3448,-0.51,6.40,-8.04,0.02,0.01,-0.00,-44.38,22.19,-27.80
3459,-0.51,6.40,-8.04,0.02,0.01,-0.00,-44.38,22.19,-27.80
3470,-0.52,6.41,-8.04,0.02,0.01,-0.00,-44.38,22.19,-27.80
3481,-0.52,6.41,-8.04,0.02,0.01,-0.00,-44.38,22.19,-27.80
3492,-0.50,6.42,-8.04,0.02,0.01,-0.00,-44.38,22.19,-27.80
3503,-0.50,6.42,-8.04,0.02,0.01,-0.00,-44.38,22.19,-27.80
3514,-0.49,6.40,-8.03,0.02,0.01,-0.00,-44.38,22.19,-27.80
3525,-0.49,6.40,-8.03,0.02,0.01,-0.00,-44.38,22.19,-27.80
3537,-0.49,6.39,-8.04,0.02,0.01,-0.00,-45.08,22.34,-27.32
3547,-0.50,6.41,-8.04,0.02,0.01,-0.00,-45.08,22.34,-27.32
3558,-0.50,6.41,-8.04,0.02,0.01,-0.00,-45.08,22.34,-27.32
3569,-0.52,6.41,-8.04,0.02,0.01,-0.00,-45.08,22.34,-27.32
3580,-0.52,6.41,-8.04,0.02,0.01,-0.00,-45.08,22.34,-27.32
3591,-0.51,6.40,-8.04,0.02,0.01,-0.00,-45.08,22.34,-27.32
3602,-0.51,6.40,-8.04,0.02,0.01,-0.00,-45.08,22.34,-27.32
3613,-0.49,6.41,-8.04,0.02,0.01,-0.00,-45.08,22.34,-27.32
3624,-0.49,6.41,-8.04,0.02,0.01,-0.00,-45.08,22.34,-27.32
3635,-0.51,6.41,-8.04,0.02,0.01,-0.00,-45.08,22.34,-27.32
3646,-0.51,6.40,-8.04,0.02,0.01,-0.00,-45.08,22.34,-27.32
3657,-0.51,6.40,-8.04,0.02,0.01,-0.00,-45.08,22.34,-27.32
3668,-0.50,6.40,-8.07,0.02,0.01,-0.00,-45.31,21.88,-28.12
3679,-0.50,6.40,-8.07,0.02,0.01,-0.00,-45.31,21.88,-28.12
3690,-0.51,6.40,-8.05,0.02,0.01,-0.00,-45.31,21.88,-28.12
3701,-0.51,6.40,-8.05,0.02,0.01,-0.00,-45.31,21.88,-28.12
3712,-0.51,6.40,-8.05,0.02,0.01,-0.00,-45.31,21.88,-28.12
3723,-0.51,6.40,-8.05,0.02,0.01,-0.00,-45.31,21.88,-28.12
3734,-0.50,6.40,-8.04,0.02,0.01,-0.00,-45.31,21.88,-28.12
3745,-0.50,6.40,-8.04,0.02,0.01,-0.00,-45.31,21.88,-28.12
3756,-0.50,6.41,-8.04,0.02,0.01,-0.00,-45.31,21.88,-28.12
3767,-0.51,6.41,-8.04,0.02,0.01,-0.00,-45.31,21.88,-28.12
3778,-0.51,6.41,-8.04,0.02,0.01,-0.00,-45.31,21.88,-28.12
3789,-0.51,6.41,-8.07,0.02,0.01,-0.00,-44.84,22.19,-26.85
3800,-0.51,6.41,-8.07,0.02,0.01,-0.00,-44.84,22.19,-26.85
3811,-0.50,6.41,-8.06,0.02,0.01,-0.00,-44.84,22.19,-26.85
3822,-0.50,6.41,-8.06,0.02,0.01,-0.00,-44.84,22.19,-26.85
3833,-0.49,6.41,-8.06,0.02,0.01,-0.00,-44.84,22.19,-26.85
3844,-0.49,6.41,-8.06,0.02,0.01,-0.00,-44.84,22.19,-26.85
3855,-0.50,6.40,-8.05,0.02,0.01,-0.00,-44.84,22.19,-26.85
3866,-0.50,6.40,-8.04,0.02,0.01,-0.00,-44.84,22.19,-26.85
3877,-0.50,6.40,-8.04,0.02,0.01,-0.00,-44.84,22.19,-26.85
3888,-0.50,6.40,-8.04,0.02,0.01,-0.00,-44.84,22.19,-26.85
3899,-0.50,6.40,-8.04,0.02,0.01,-0.00,-44.84,22.19,-26.85
3910,-0.51,6.41,-8.06,0.02,0.01,-0.00,-45.31,21.88,-27.80
3921,-0.51,6.41,-8.06,0.02,0.01,-0.00,-45.31,21.88,-27.80
3932,-0.52,6.40,-8.06,0.02,0.01,-0.00,-45.31,21.88,-27.80
3943,-0.52,6.40,-8.06,0.02,0.01,-0.00,-45.31,21.88,-27.80
3954,-0.52,6.40,-8.04,0.02,0.01,-0.00,-45.31,21.88,-27.80
3965,-0.52,6.40,-8.04,0.02,0.01,-0.00,-45.31,21.88,-27.80
3976,-0.51,6.41,-8.02,0.02,0.01,-0.00,-45.31,21.88,-27.80
3988,-0.51,6.41,-8.02,0.02,0.01,-0.00,-45.31,21.88,-27.80
3998,-0.51,6.41,-8.02,0.02,0.01,-0.00,-45.31,21.88,-27.80
4009,-0.50,6.40,-8.04,0.02,0.01,-0.00,-45.31,21.88,-27.80
4020,-0.50,6.40,-8.04,0.02,0.01,-0.00,-45.31,21.88,-27.80
4031,-0.50,6.40,-8.06,0.02,0.01,-0.00,-43.45,23.11,-26.85
4042,-0.50,6.40,-8.06,0.02,0.01,-0.00,-43.45,23.11,-26.85
4053,-0.51,6.39,-8.04,0.02,0.01,-0.00,-43.45,23.11,-26.85
4064,-0.51,6.39,-8.04,0.02,0.01,-0.00,-43.45,23.11,-26.85
4075,-0.51,6.41,-8.05,0.02,0.01,-0.00,-43.45,23.11,-26.85
4086,-0.51,6.41,-8.04,0.02,0.01,-0.00,-43.45,23.11,-26.85
4097,-0.51,6.41,-8.04,0.02,0.01,-0.00,-43.45,23.11,-26.85
4108,-0.50,6.41,-8.02,0.02,0.01,-0.00,-43.45,23.11,-26.85
4119,-0.50,6.41,-8.02,0.02,0.01,-0.00,-43.45,23.11,-26.85
4130,-0.50,6.40,-8.05,0.02,0.01,-0.00,-43.45,23.11,-26.85
4141,-0.50,6.40,-8.05,0.02,0.01,-0.00,-43.45,23.11,-26.85
4156,-0.52,6.40,-8.03,0.02,0.01,-0.00,-43.45,23.11,-26.85
4163,-0.52,6.40,-8.03,0.02,0.01,-0.00,-43.45,23.11,-26.85
4174,-0.50,6.41,-8.07,0.02,0.01,-0.00,-45.08,22.34,-25.42
4185,-0.50,6.41,-8.07,0.02,0.01,-0.00,-45.08,22.34,-25.42
4196,-0.51,6.40,-8.05,0.02,0.01,-0.00,-45.08,22.34,-25.42
4207,-0.52,6.40,-8.05,0.02,0.01,-0.00,-45.08,22.34,-25.42
4218,-0.52,6.40,-8.05,0.02,0.01,-0.00,-45.08,22.34,-25.42
4229,-0.50,6.40,-8.04,0.02,0.01,-0.00,-45.08,22.34,-25.42
4240,-0.50,6.40,-8.04,0.02,0.01,-0.00,-45.08,22.34,-25.42
4251,-0.51,6.41,-8.05,0.02,0.01,-0.00,-45.08,22.34,-25.42
4262,-0.51,6.41,-8.05,0.02,0.01,-0.00,-45.08,22.34,-25.42
4273,-0.49,6.42,-8.06,0.02,0.01,-0.00,-45.08,22.34,-25.42
4284,-0.49,6.42,-8.06,0.02,0.01,-0.00,-45.08,22.34,-25.42
4300,-0.50,6.41,-8.04,0.02,0.01,-0.00,-44.38,22.80,-26.85
4306,-0.50,6.41,-8.04,0.02,0.01,-0.00,-44.38,22.80,-26.85
4317,-0.50,6.41,-8.03,0.02,0.01,-0.00,-44.38,22.80,-26.85
4328,-0.51,6.40,-8.05,0.02,0.01,-0.00,-44.38,22.80,-26.85
4339,-0.51,6.40,-8.05,0.02,0.01,-0.00,-44.38,22.80,-26.85
4350,-0.51,6.40,-8.04,0.02,0.01,-0.00,-44.38,22.80,-26.85
4361,-0.51,6.40,-8.04,0.02,0.01,-0.00,-44.38,22.80,-26.85
4372,-0.51,6.40,-8.02,0.02,0.01,-0.00,-44.38,22.80,-26.85
4383,-0.51,6.40,-8.02,0.02,0.01,-0.00,-44.38,22.80,-26.85
4395,-0.51,6.40,-8.01,0.02,0.01,-0.00,-44.38,22.80,-26.85
4405,-0.51,6.40,-8.01,0.02,0.01,-0.00,-44.38,22.80,-26.85
4416,-0.50,6.41,-8.06,0.02,0.01,-0.00,-43.91,22.19,-27.16
4427,-0.50,6.41,-8.04,0.02,0.01,-0.00,-43.91,22.19,-27.16
4438,-0.50,6.41,-8.04,0.02,0.01,-0.00,-43.91,22.19,-27.16
4449,-0.50,6.40,-8.04,0.02,0.01,-0.00,-43.91,22.19,-27.16
4460,-0.50,6.40,-8.04,0.02,0.01,-0.00,-43.91,22.19,-27.16
4471,-0.51,6.41,-8.05,0.02,0.01,-0.00,-43.91,22.19,-27.16
4482,-0.51,6.41,-8.05,0.02,0.01,-0.00,-43.91,22.19,-27.16
4493,-0.51,6.41,-8.06,0.02,0.01,-0.00,-43.91,22.19,-27.16
4504,-0.51,6.41,-8.06,0.02,0.01,-0.00,-43.91,22.19,-27.16
4515,-0.51,6.41,-8.04,0.02,0.01,-0.00,-43.91,22.19,-27.16
4526,-0.51,6.41,-8.04,0.02,0.01,-0.00,-43.91,22.19,-27.16
4537,-0.51,6.41,-8.06,0.02,0.01,-0.00,-43.91,22.19,-27.16
4548,-0.51,6.41,-8.05,0.02,0.01,-0.00,-45.08,22.34,-27.32
4559,-0.51,6.41,-8.05,0.02,0.01,-0.00,-45.08,22.34,-27.32
4570,-0.50,6.41,-8.06,0.02,0.01,-0.00,-45.08,22.34,-27.32
4581,-0.50,6.41,-8.06,0.02,0.01,-0.00,-45.08,22.34,-27.32
4592,-0.51,6.40,-8.06,0.02,0.01,-0.00,-45.08,22.34,-27.32
4603,-0.51,6.40,-8.06,0.02,0.01,-0.00,-45.08,22.34,-27.32
4614,-0.51,6.40,-8.00,0.02,0.01,-0.00,-45.08,22.34,-27.32
4625,-0.51,6.40,-8.00,0.02,0.01,-0.00,-45.08,22.34,-27.32
4636,-0.50,6.40,-8.01,0.02,0.01,-0.00,-45.08,22.34,-27.32
4647,-0.49,6.40,-8.05,0.02,0.01,-0.00,-45.08,22.34,-27.32
4658,-0.49,6.40,-8.05,0.02,0.01,-0.00,-45.08,22.34,-27.32
4669,-0.48,6.40,-8.04,0.02,0.01,-0.00,-44.15,22.95,-26.05
4680,-0.48,6.40,-8.04,0.02,0.01,-0.00,-44.15,22.95,-26.05
4691,-0.50,6.40,-8.03,0.02,0.01,-0.00,-44.15,22.95,-26.05
4702,-0.50,6.40,-8.03,0.02,0.01,-0.00,-44.15,22.95,-26.05
4713,-0.51,6.40,-8.02,0.02,0.01,-0.00,-44.15,22.95,-26.05
4724,-0.51,6.40,-8.02,0.02,0.01,-0.00,-44.15,22.95,-26.05
4735,-0.51,6.41,-8.07,0.02,0.01,-0.00,-44.15,22.95,-26.05
4746,-0.51,6.41,-8.07,0.02,0.01,-0.00,-44.15,22.95,-26.05
4757,-0.51,6.41,-8.04,0.02,0.01,-0.00,-44.15,22.95,-26.05
4768,-0.51,6.40,-8.04,0.02,0.01,-0.00,-44.15,22.95,-26.05
4779,-0.51,6.40,-8.04,0.02,0.01,-0.00,-44.15,22.95,-26.05
4790,-0.51,6.42,-8.08,0.02,0.01,-0.00,-46.24,23.72,-27.80
4801,-0.51,6.42,-8.08,0.02,0.01,-0.00,-46.24,23.72,-27.80
4812,-0.51,6.41,-8.04,0.02,0.01,-0.00,-46.24,23.72,-27.80
4823,-0.51,6.41,-8.04,0.02,0.01,-0.00,-46.24,23.72,-27.80
4834,-0.49,6.40,-8.03,0.02,0.01,-0.00,-46.24,23.72,-27.80
4845,-0.49,6.40,-8.03,0.02,0.01,-0.00,-46.24,23.72,-27.80
4856,-0.51,6.40,-8.03,0.02,0.01,-0.00,-46.24,23.72,-27.80
4867,-0.49,6.42,-8.05,0.02,0.01,-0.00,-46.24,23.72,-27.80
4878,-0.49,6.42,-8.05,0.02,0.01,-0.00,-46.24,23.72,-27.80
4889,-0.55,6.31,-8.08,0.02,0.01,-0.00,-46.24,23.72,-27.80
4900,-0.55,6.31,-8.08,0.02,0.01,-0.00,-46.24,23.72,-27.80
4911,-0.71,6.56,-7.99,-0.01,0.32,-0.38,-46.24,23.72,-27.80
4922,-0.71,6.56,-7.99,-0.01,0.32,-0.38,-46.24,23.72,-27.80
4933,-0.43,6.58,-7.99,-0.02,0.95,-1.13,-45.08,21.72,-28.28
4944,-0.43,6.58,-7.99,-0.02,0.95,-1.13,-45.08,21.72,-28.28
4955,-0.43,5.11,-8.25,0.03,0.78,-0.89,-45.08,21.72,-28.28
4966,-0.43,5.11,-8.25,0.03,0.78,-0.89,-45.08,21.72,-28.28
4977,-0.56,6.36,-8.03,-0.00,0.13,0.01,-45.08,21.72,-28.28
4988,0.02,6.09,-8.74,0.02,0.10,0.21,-45.08,21.72,-28.28
4999,0.02,6.09,-8.74,0.02,0.10,0.21,-45.08,21.72,-28.28
5010,-0.78,5.61,-9.93,0.28,-0.14,0.63,-45.08,21.72,-28.28
5021,-0.78,5.61,-9.93,0.28,-0.14,0.63,-45.08,21.72,-28.28
5032,-1.22,5.58,-10.80,1.21,-0.40,1.27,-45.08,21.72,-28.28
5043,-1.22,5.58,-10.80,1.21,-0.40,1.27,-45.08,21.72,-28.28
5054,0.42,5.39,-9.93,2.87,-0.46,2.29,-45.08,20.80,-28.59
5065,0.42,5.39,-9.93,2.87,-0.46,2.29,-45.08,20.80,-28.59
5076,0.56,7.47,-6.79,3.25,-0.06,2.77,-45.08,20.80,-28.59
5088,-0.32,9.70,-7.61,2.51,0.89,1.74,-45.08,20.80,-28.59
5098,-0.32,9.70,-7.61,2.51,0.89,1.74,-45.08,20.80,-28.59
5109,-1.11,8.83,-9.96,3.70,1.61,0.59,-45.08,20.80,-28.59
5120,-1.11,8.83,-9.96,3.70,1.61,0.59,-45.08,20.80,-28.59
5131,-0.67,5.95,-11.82,5.84,2.25,-0.31,-45.08,20.80,-28.59
5142,-0.67,5.95,-11.82,5.84,2.25,-0.31,-45.08,20.80,-28.59
5153,5.43,-0.28,-18.84,6.67,2.87,-0.50,-45.08,20.80,-28.59
5164,5.43,-0.28,-18.84,6.67,2.87,-0.50,-45.08,20.80,-28.59
5175,4.27,-1.77,-19.54,6.34,-0.72,-0.05,-30.89,4.99,-39.55
5186,4.27,-1.77,-19.54,6.34,-0.72,-0.05,-30.89,4.99,-39.55
5197,2.50,2.85,-9.31,0.62,-3.61,0.24,-30.89,4.99,-39.55
5208,0.11,10.05,-10.27,-8.10,-4.07,-1.34,-30.89,4.99,-39.55
5219,0.11,10.05,-10.27,-8.10,-4.07,-1.34,-30.89,4.99,-39.55
5230,-0.51,11.99,-9.89,-8.10,-3.59,-3.26,-30.89,4.99,-39.55
5241,-0.51,11.99,-9.89,-8.10,-3.59,-3.26,-30.89,4.99,-39.55
5252,0.57,11.79,-5.31,-0.25,-1.74,-4.61,-30.89,4.99,-39.55
5263,0.57,11.79,-5.31,-0.25,-1.74,-4.61,-30.89,4.99,-39.55
5274,-0.29,6.90,-4.45,7.87,-0.17,-5.52,-30.89,4.99,-39.55
5285,-0.29,6.90,-4.45,7.87,-0.17,-5.52,-30.89,4.99,-39.55
5296,0.89,-4.13,-1.88,12.89,-0.01,-5.86,-50.89,-9.43,-33.83
5307,0.89,-4.13,-1.88,12.89,-0.01,-5.86,-50.89,-9.43,-33.83
5319,1.30,-12.87,-1.87,10.53,-0.62,-4.15,-50.89,-9.43,-33.83
5329,-0.05,-8.72,-6.52,3.33,-1.10,-1.58,-50.89,-9.43,-33.83
5340,-0.05,-8.72,-6.52,3.33,-1.10,-1.58,-50.89,-9.43,-33.83
5351,-0.80,-3.24,-10.99,-0.60,-1.39,-0.42,-50.89,-9.43,-33.83
5362,-0.80,-3.24,-10.99,-0.60,-1.39,-0.42,-50.89,-9.43,-33.83
5373,-2.09,-1.79,-12.62,-0.82,-2.57,-0.43,-50.89,-9.43,-33.83
5384,-2.09,-1.79,-12.62,-0.82,-2.57,-0.43,-50.89,-9.43,-33.83
5395,-1.01,0.33,-10.91,0.92,-4.04,-0.72,-50.89,-9.43,-33.83
5406,-1.01,0.33,-10.91,0.92,-4.04,-0.72,-50.89,-9.43,-33.83
5417,0.69,-0.31,-5.37,3.52,-4.82,-0.98,-50.89,-9.43,-33.83
5428,-1.40,-0.42,-4.79,2.62,-4.86,-1.66,-57.87,-22.33,-18.91
5439,-1.40,-0.42,-4.79,2.62,-4.86,-1.66,-57.87,-22.33,-18.91
5450,-2.22,-0.13,-5.03,2.52,-4.56,-2.48,-57.87,-22.33,-18.91
5461,-2.22,-0.13,-5.03,2.52,-4.56,-2.48,-57.87,-22.33,-18.91
5472,0.16,1.67,-5.81,4.34,-4.34,-3.34,-57.87,-22.33,-18.91
5483,0.16,1.67,-5.81,4.34,-4.34,-3.34,-57.87,-22.33,-18.91
5494,-0.17,0.16,-6.84,8.03,-4.81,-4.42,-57.87,-22.33,-18.91
5505,-0.17,0.16,-6.84,8.03,-4.81,-4.42,-57.87,-22.33,-18.91
5516,2.58,-4.53,-6.35,11.73,-6.15,-4.66,-57.87,-22.33,-18.91
5527,2.58,-4.53,-6.35,11.73,-6.15,-4.66,-57.87,-22.33,-18.91
5538,5.08,-7.55,0.59,15.28,-8.17,-2.83,-57.87,-22.33,-18.91
5549,4.36,-4.56,9.05,17.45,-9.10,1.06,-38.33,-24.17,31.26
5560,4.36,-4.56,9.05,17.45,-9.10,1.06,-38.33,-24.17,31.26
5571,1.64,1.05,14.96,17.45,-7.38,4.81,-38.33,-24.17,31.26
5582,1.64,1.05,14.96,17.45,-7.38,4.81,-38.33,-24.17,31.26
5593,-1.39,4.31,15.28,16.34,-4.32,6.22,-38.33,-24.17,31.26
5604,-1.39,4.31,15.28,16.34,-4.32,6.22,-38.33,-24.17,31.26
5615,-3.27,5.75,16.52,9.84,-2.34,4.99,-38.33,-24.17,31.26
5626,-3.27,5.75,16.52,9.84,-2.34,4.99,-38.33,-24.17,31.26
5637,-4.47,11.20,15.80,0.36,-0.96,2.34,-38.33,-24.17,31.26
5648,-1.19,0.58,7.60,-0.35,0.59,0.09,-38.33,-24.17,31.26
5659,-1.19,0.58,7.60,-0.35,0.59,0.09,-38.33,-24.17,31.26
5670,-1.70,-1.28,9.72,0.60,0.49,0.38,-19.49,16.20,36.50
5681,-1.70,-1.28,9.72,0.60,0.49,0.38,-19.49,16.20,36.50
5692,-2.12,1.14,10.49,0.45,0.64,0.90,-19.49,16.20,36.50
5703,-2.12,1.14,10.49,0.45,0.64,0.90,-19.49,16.20,36.50
5714,-2.56,1.89,10.61,-0.08,0.81,0.59,-19.49,16.20,36.50
5725,-2.56,1.89,10.61,-0.08,0.81,0.59,-19.49,16.20,36.50
5736,-2.93,1.12,11.44,-1.71,0.51,-0.06,-19.49,16.20,36.50
5747,-2.93,1.12,11.44,-1.71,0.51,-0.06,-19.49,16.20,36.50
5758,-1.87,-0.15,10.80,-2.12,0.24,-0.28,-19.49,16.20,36.50
5769,-1.17,-0.44,9.87,-1.07,0.30,-0.10,-19.49,16.20,36.50
5780,-1.17,-0.44,9.87,-1.07,0.30,-0.10,-19.49,16.20,36.50
5791,-1.13,0.36,6.88,-0.51,0.45,-0.05,-19.49,16.20,36.50
5802,-1.13,0.36,6.88,-0.51,0.45,-0.05,-19.49,16.20,36.50
5813,-1.82,-0.38,7.88,0.78,0.33,0.04,-25.31,13.28,36.66
5824,-1.82,-0.38,7.88,0.78,0.33,0.04,-25.31,13.28,36.66
5835,-3.06,0.53,9.48,1.37,0.26,0.26,-25.31,13.28,36.66
5846,-3.06,0.53,9.48,1.37,0.26,0.26,-25.31,13.28,36.66
5857,-4.01,0.98,10.55,1.54,0.23,0.28,-25.31,13.28,36.66
5868,-3.43,1.58,8.83,1.04,0.22,0.26,-25.31,13.28,36.66
5879,-3.43,1.58,8.83,1.04,0.22,0.26,-25.31,13.28,36.66
5890,-2.89,1.99,8.05,0.90,0.07,0.21,-25.31,13.28,36.66
5901,-2.89,1.99,8.05,0.90,0.07,0.21,-25.31,13.28,36.66
5912,-3.19,1.01,10.22,1.29,0.00,0.14,-25.31,13.28,36.66
5923,-3.19,1.01,10.22,1.29,0.00,0.14,-25.31,13.28,36.66
5934,-3.21,2.32,9.05,0.66,0.26,0.09,-24.14,17.73,34.92
5945,-3.21,2.32,9.05,0.66,0.26,0.09,-24.14,17.73,34.92
5956,-4.01,2.25,8.87,0.59,0.33,-0.02,-24.14,17.73,34.92
5967,-4.01,2.25,8.87,0.59,0.33,-0.02,-24.14,17.73,34.92
5978,-3.82,2.27,8.59,0.16,0.14,-0.04,-24.14,17.73,34.92
5989,-3.23,2.21,8.53,-0.13,-0.00,-0.04,-24.14,17.73,34.92
6000,-3.23,2.21,8.53,-0.13,-0.00,-0.04,-24.14,17.73,34.92
6011,-3.27,2.08,8.86,-0.11,0.03,-0.06,-24.14,17.73,34.92
6022,-3.27,2.08,8.86,-0.11,0.03,-0.06,-24.14,17.73,34.92
6033,-3.01,1.74,8.95,-0.15,0.02,-0.13,-24.14,17.73,34.92
6044,-3.01,1.74,8.95,-0.15,0.02,-0.13,-24.14,17.73,34.92
6055,-3.20,1.76,9.04,-0.07,0.04,-0.13,-24.61,17.12,33.96
6066,-3.20,1.76,9.04,-0.07,0.04,-0.13,-24.61,17.12,33.96
6077,-3.24,1.69,9.12,-0.13,-0.01,-0.15,-24.61,17.12,33.96
6088,-3.04,1.64,9.01,-0.13,-0.01,-0.15,-24.61,17.12,33.96
6099,-3.04,1.64,9.01,-0.13,-0.01,-0.15,-24.61,17.12,33.96
6110,-3.06,1.63,8.94,-0.12,0.05,-0.16,-24.61,17.12,33.96
6121,-3.06,1.63,8.94,-0.12,0.05,-0.16,-24.61,17.12,33.96
6132,-3.03,1.58,8.83,-0.05,0.09,-0.17,-24.61,17.12,33.96
6143,-3.03,1.58,8.83,-0.05,0.09,-0.17,-24.61,17.12,33.96
6154,-3.28,1.73,8.89,0.12,0.11,-0.16,-24.61,17.12,33.96
6165,-3.28,1.73,8.89,0.12,0.11,-0.16,-24.61,17.12,33.96
6176,-3.47,1.79,8.88,0.14,0.09,-0.18,-24.61,17.12,33.96
6187,-3.47,1.79,8.88,0.14,0.09,-0.18,-24.61,17.12,33.96
6198,-3.50,1.83,8.59,-0.01,0.05,-0.19,-27.86,18.35,32.69
6209,-3.40,1.73,8.88,-0.14,-0.02,-0.20,-27.86,18.35,32.69
6220,-3.40,1.73,8.88,-0.14,-0.02,-0.20,-27.86,18.35,32.69
6231,-3.34,1.70,8.74,-0.13,-0.00,-0.19,-27.86,18.35,32.69
6242,-3.34,1.70,8.74,-0.13,-0.00,-0.19,-27.86,18.35,32.69
6253,-3.35,1.66,8.81,0.03,0.05,-0.15,-27.86,18.35,32.69
6264,-3.35,1.66,8.81,0.03,0.05,-0.15,-27.86,18.35,32.69
6275,-3.51,1.61,9.05,0.01,0.06,-0.16,-27.86,18.35,32.69
6286,-3.51,1.61,9.05,0.01,0.06,-0.16,-27.86,18.35,32.69
6297,-3.40,1.28,9.04,0.02,0.04,-0.19,-27.86,18.35,32.69
6308,-3.40,1.28,9.04,0.02,0.04,-0.19,-27.86,18.35,32.69
6319,-3.16,1.43,8.85,-0.04,0.00,-0.19,-26.00,17.73,33.96
6330,-3.03,1.38,9.10,-0.06,0.05,-0.17,-26.00,17.73,33.96
6341,-3.03,1.38,9.10,-0.06,0.05,-0.17,-26.00,17.73,33.96
6352,-3.14,1.63,9.00,0.16,0.17,-0.09,-26.00,17.73,33.96
6363,-3.14,1.63,9.00,0.16,0.17,-0.09,-26.00,17.73,33.96
6374,-3.43,1.89,8.98,0.30,0.20,-0.05,-26.00,17.73,33.96
6385,-3.43,1.89,8.98,0.30,0.20,-0.05,-26.00,17.73,33.96
6397,-3.24,1.98,8.74,0.28,0.13,-0.05,-26.00,17.73,33.96
6407,-3.24,1.98,8.74,0.28,0.13,-0.05,-26.00,17.73,33.96
6418,-2.90,2.16,8.62,0.29,0.09,0.00,-26.00,17.73,33.96
6429,-3.35,2.08,9.19,0.44,0.18,0.08,-27.40,17.73,33.65
6440,-3.35,2.08,9.19,0.44,0.18,0.08,-27.40,17.73,33.65
6451,-3.74,1.89,8.89,0.31,0.24,0.17,-27.40,17.73,33.65
6462,-3.74,1.89,8.89,0.31,0.24,0.17,-27.40,17.73,33.65
6473,-4.67,1.10,9.97,0.26,0.22,0.46,-27.40,17.73,33.65
6484,-4.67,1.10,9.97,0.26,0.22,0.46,-27.40,17.73,33.65
6495,-3.72,1.48,9.40,-0.05,0.35,1.11,-27.40,17.73,33.65
6506,-3.72,1.48,9.40,-0.05,0.35,1.11,-27.40,17.73,33.65
6517,-3.02,2.82,8.42,0.33,0.69,1.78,-27.40,17.73,33.65
6528,-3.02,2.82,8.42,0.33,0.69,1.78,-27.40,17.73,33.65
6539,-2.77,4.99,6.01,1.49,0.72,2.03,-27.40,17.73,33.65
6556,-3.29,6.72,6.02,1.76,-0.06,1.65,-25.07,21.11,31.10
6561,-3.29,6.72,6.02,1.76,-0.06,1.65,-25.07,21.11,31.10
6572,-4.25,6.10,8.66,0.84,-0.52,1.04,-25.07,21.11,31.10
6583,-4.25,6.10,8.66,0.84,-0.52,1.04,-25.07,21.11,31.10
6594,-3.39,5.21,7.65,-0.81,-0.57,0.47,-25.07,21.11,31.10
6605,-3.39,5.21,7.65,-0.81,-0.57,0.47,-25.07,21.11,31.10
6616,-3.65,3.04,10.50,-1.53,-0.85,0.01,-25.07,21.11,31.10
6627,-3.65,3.04,10.50,-1.53,-0.85,0.01,-25.07,21.11,31.10
6638,-3.29,2.24,11.28,-1.24,-0.89,-0.03,-25.07,21.11,31.10
6649,-3.76,2.78,11.97,-0.81,-1.03,-0.07,-25.07,21.11,31.10
6660,-3.76,2.78,11.97,-0.81,-1.03,-0.07,-25.07,21.11,31.10
6671,-3.34,3.23,11.10,-0.69,-1.16,-0.26,-25.07,21.11,31.10
6682,-3.34,3.23,11.10,-0.69,-1.16,-0.26,-25.07,21.11,31.10
6693,-1.58,3.97,8.00,-1.06,-1.20,-0.56,-16.93,18.50,33.80
6704,-1.58,3.97,8.00,-1.06,-1.20,-0.56,-16.93,18.50,33.80
6715,0.51,2.51,7.17,-1.12,-1.30,-1.10,-16.93,18.50,33.80
6726,0.51,2.51,7.17,-1.12,-1.30,-1.10,-16.93,18.50,33.80
6737,-1.25,0.04,9.24,-0.80,-1.07,-1.54,-16.93,18.50,33.80
6748,-1.25,0.04,9.24,-0.80,-1.07,-1.54,-16.93,18.50,33.80
6759,-0.78,-0.39,7.77,-1.36,-0.68,-1.54,-16.93,18.50,33.80
6770,-0.58,-0.21,7.63,-0.67,-0.29,-1.20,-16.93,18.50,33.80
6781,-0.58,-0.21,7.63,-0.67,-0.29,-1.20,-16.93,18.50,33.80
6792,-0.90,0.83,7.57,-0.60,0.20,-1.18,-16.93,18.50,33.80
6803,-0.90,0.83,7.57,-0.60,0.20,-1.18,-16.93,18.50,33.80
6814,-2.70,-0.52,8.24,0.06,0.55,-1.33,-18.79,14.82,36.03
6825,-2.70,-0.52,8.24,0.06,0.55,-1.33,-18.79,14.82,36.03
6836,-2.92,-1.57,9.36,-0.11,0.07,-1.28,-18.79,14.82,36.03
6847,-2.92,-1.57,9.36,-0.11,0.07,-1.28,-18.79,14.82,36.03
6858,-1.62,-1.20,9.33,-0.25,-0.09,-0.97,-18.79,14.82,36.03
6869,-1.53,-1.19,9.67,0.05,0.21,-0.99,-18.79,14.82,36.03
6880,-1.53,-1.19,9.67,0.05,0.21,-0.99,-18.79,14.82,36.03
6891,-1.70,-1.71,9.89,0.45,0.62,-1.15,-18.79,14.82,36.03
6902,-1.70,-1.71,9.89,0.45,0.62,-1.15,-18.79,14.82,36.03
6914,-3.65,-2.16,10.67,0.90,0.99,-1.11,-18.79,14.82,36.03
6924,-3.65,-2.16,10.67,0.90,0.99,-1.11,-18.79,14.82,36.03
6935,-3.39,-1.52,9.16,0.68,1.01,-0.74,-25.54,14.66,35.55
6946,-3.39,-1.52,9.16,0.68,1.01,-0.74,-25.54,14.66,35.55
6957,-3.41,1.03,7.83,0.47,0.86,-0.57,-25.54,14.66,35.55
6968,-3.41,1.03,7.83,0.47,0.86,-0.57,-25.54,14.66,35.55
6979,-2.98,-0.73,10.04,0.10,0.43,-1.09,-25.54,14.66,35.55
6990,-3.30,-1.31,9.86,0.03,0.69,-1.18,-25.54,14.66,35.55
7001,-3.30,-1.31,9.86,0.03,0.69,-1.18,-25.54,14.66,35.55
7012,-3.56,-0.12,8.05,0.90,0.97,-0.73,-25.54,14.66,35.55
7023,-3.56,-0.12,8.05,0.90,0.97,-0.73,-25.54,14.66,35.55
7034,-3.70,1.15,8.81,0.72,0.72,-0.61,-25.54,14.66,35.55
7045,-3.70,1.15,8.81,0.72,0.72,-0.61,-25.54,14.66,35.55
7056,-4.00,1.46,9.06,0.47,0.73,-0.84,-25.54,14.66,35.55
7067,-4.00,1.46,9.06,0.47,0.73,-0.84,-25.54,14.66,35.55
7078,-4.65,1.11,8.48,0.04,0.65,-1.14,-33.68,16.66,34.12
7089,-4.65,0.40,9.07,0.09,0.53,-0.92,-33.68,16.66,34.12
7100,-4.65,0.40,9.07,0.09,0.53,-0.92,-33.68,16.66,34.12
7111,-4.60,0.90,8.74,0.37,0.68,-0.41,-33.68,16.66,34.12
7122,-4.60,0.90,8.74,0.37,0.68,-0.41,-33.68,16.66,34.12
7133,-4.57,0.91,8.93,0.77,0.69,-0.10,-33.68,16.66,34.12
7144,-4.57,0.91,8.93,0.77,0.69,-0.10,-33.68,16.66,34.12
7155,-4.58,1.43,9.20,0.52,0.57,-0.05,-33.68,16.66,34.12
7166,-4.58,1.43,9.20,0.52,0.57,-0.05,-33.68,16.66,34.12
7177,-4.12,0.66,9.48,0.11,0.63,-0.05,-33.68,16.66,34.12
7188,-4.12,0.66,9.48,0.11,0.63,-0.05,-33.68,16.66,34.12
7199,-3.67,0.78,9.48,-0.24,0.99,0.21,-37.87,15.12,31.26
7210,-4.23,1.93,7.92,-0.35,1.49,0.41,-37.87,15.12,31.26
7221,-4.23,1.93,7.92,-0.35,1.49,0.41,-37.87,15.12,31.26
7232,-4.93,2.96,5.72,-0.06,1.26,0.37,-37.87,15.12,31.26
7243,-4.93,2.96,5.72,-0.06,1.26,0.37,-37.87,15.12,31.26
7254,-3.91,2.73,4.81,0.82,0.02,0.13,-37.87,15.12,31.26
7265,-3.91,2.73,4.81,0.82,0.02,0.13,-37.87,15.12,31.26
7276,-3.17,1.12,10.82,2.05,-0.90,0.24,-37.87,15.12,31.26
7287,-3.17,1.12,10.82,2.05,-0.90,0.24,-37.87,15.12,31.26
7298,-3.31,0.64,13.93,0.32,-0.33,0.71,-37.87,15.12,31.26
7309,-3.31,0.64,13.93,0.32,-0.33,0.71,-37.87,15.12,31.26
7320,-2.06,2.30,10.49,-2.95,0.53,0.50,-38.10,16.51,31.42
7331,-2.73,1.51,8.73,-3.87,0.78,-0.02,-38.10,16.51,31.42
7342,-2.73,1.51,8.73,-3.87,0.78,-0.02,-38.10,16.51,31.42
7353,-3.64,0.09,8.65,-4.30,0.76,-0.38,-38.10,16.51,31.42
7364,-3.64,0.09,8.65,-4.30,0.76,-0.38,-38.10,16.51,31.42
7375,-3.63,-0.65,7.45,-3.54,0.93,-0.37,-38.10,16.51,31.42
7386,-3.63,-0.65,7.45,-3.54,0.93,-0.37,-38.10,16.51,31.42
7397,-5.40,-0.65,8.28,-1.67,1.10,-0.22,-38.10,16.51,31.42
7408,-5.40,-0.65,8.28,-1.67,1.10,-0.22,-38.10,16.51,31.42
7419,-5.53,-2.44,14.50,-2.91,1.24,-0.12,-38.10,16.51,31.42
7430,-5.10,-0.59,9.14,-7.92,1.58,0.08,-38.10,16.51,31.42
7441,-5.10,-0.59,9.14,-7.92,1.58,0.08,-38.10,16.51,31.42
7452,-3.91,-0.13,6.37,-7.91,1.85,0.01,-46.01,-1.30,37.14
7463,-3.91,-0.13,6.37,-7.91,1.85,0.01,-46.01,-1.30,37.14
7474,-4.34,-3.85,7.96,-6.93,1.96,-0.31,-46.01,-1.30,37.14
7485,-4.34,-3.85,7.96,-6.93,1.96,-0.31,-46.01,-1.30,37.14
7496,-6.31,-6.44,5.95,-7.88,2.24,-0.27,-46.01,-1.30,37.14
7507,-6.31,-6.44,5.95,-7.88,2.24,-0.27,-46.01,-1.30,37.14
7518,-6.92,-3.97,2.87,-8.04,2.43,0.19,-46.01,-1.30,37.14
7529,-6.92,-3.97,2.87,-8.04,2.43,0.19,-46.01,-1.30,37.14
7540,-4.88,-3.04,2.37,-7.05,2.42,0.08,-46.01,-1.30,37.14
7551,-4.41,-3.94,-2.93,-5.40,2.39,-0.28,-46.01,-1.30,37.14
7562,-4.41,-3.94,-2.93,-5.40,2.39,-0.28,-46.01,-1.30,37.14
7573,-6.51,-6.61,-4.13,-1.16,2.01,-0.16,-56.94,-25.40,18.88
7584,-6.51,-6.61,-4.13,-1.16,2.01,-0.16,-56.94,-25.40,18.88
7595,-6.14,-4.83,-4.83,1.82,1.01,0.23,-56.94,-25.40,18.88
7606,-6.14,-4.83,-4.83,1.82,1.01,0.23,-56.94,-25.40,18.88
7617,-7.00,-3.15,-2.30,5.21,0.10,0.41,-56.94,-25.40,18.88
7628,-7.00,-3.15,-2.30,5.21,0.10,0.41,-56.94,-25.40,18.88
7639,-7.65,-5.74,1.36,6.39,-0.34,0.28,-56.94,-25.40,18.88
7650,-7.40,-6.55,2.87,3.77,-0.59,0.40,-56.94,-25.40,18.88
7661,-7.40,-6.55,2.87,3.77,-0.59,0.40,-56.94,-25.40,18.88
7672,-8.96,-5.41,3.93,2.29,-0.50,0.69,-56.94,-25.40,18.88
7683,-8.96,-5.41,3.93,2.29,-0.50,0.69,-56.94,-25.40,18.88
7694,-8.84,-5.53,3.13,1.67,-0.13,0.61,-60.20,-15.88,25.87
7705,-8.84,-5.53,3.13,1.67,-0.13,0.61,-60.20,-15.88,25.87
7716,-7.44,-5.77,2.32,1.49,0.03,0.65,-60.20,-15.88,25.87
7727,-7.44,-5.77,2.32,1.49,0.03,0.65,-60.20,-15.88,25.87
7739,-7.91,-4.29,2.83,1.98,-0.04,0.83,-60.20,-15.88,25.87
7749,-7.91,-4.29,2.83,1.98,-0.04,0.83,-60.20,-15.88,25.87
7760,-8.66,-3.11,3.53,2.30,-0.00,0.67,-60.20,-15.88,25.87
7771,-9.12,-4.15,5.78,2.31,0.23,0.25,-60.20,-15.88,25.87
7782,-9.12,-4.15,5.78,2.31,0.23,0.25,-60.20,-15.88,25.87
7793,-7.99,-6.76,7.47,-1.49,0.59,-0.37,-60.20,-15.88,25.87
7804,-7.99,-6.76,7.47,-1.49,0.59,-0.37,-60.20,-15.88,25.87
7815,-7.44,-6.62,1.65,-4.69,0.94,-0.28,-61.36,-14.19,25.39
7826,-7.44,-6.62,1.65,-4.69,0.94,-0.28,-61.36,-14.19,25.39
7837,-7.11,-5.01,0.16,-2.86,0.75,0.31,-61.36,-14.19,25.39
7848,-7.11,-5.01,0.16,-2.86,0.75,0.31,-61.36,-14.19,25.39
7859,-7.29,-3.86,-0.24,-1.44,0.42,0.51,-61.36,-14.19,25.39
7870,-8.38,-3.29,0.37,0.36,0.03,0.44,-61.36,-14.19,25.39
7881,-8.38,-3.29,0.37,0.36,0.03,0.44,-61.36,-14.19,25.39
7892,-8.84,-3.50,2.16,1.39,-0.36,0.10,-61.36,-14.19,25.39
7903,-8.84,-3.50,2.16,1.39,-0.36,0.10,-61.36,-14.19,25.39
7914,-7.50,-4.31,3.25,1.49,-0.58,-0.14,-61.36,-14.19,25.39
7925,-7.50,-4.31,3.25,1.49,-0.58,-0.14,-61.36,-14.19,25.39
7936,-6.77,-5.64,3.83,1.72,-0.49,0.03,-61.36,-14.19,25.39
7947,-6.77,-5.64,3.83,1.72,-0.49,0.03,-61.36,-14.19,25.39
7958,-6.91,-5.21,4.33,1.61,-0.23,0.36,-62.99,-11.89,26.82
7969,-6.91,-5.21,4.33,1.61,-0.23,0.36,-62.99,-11.89,26.82
7980,-10.39,-7.55,5.33,1.39,0.12,0.46,-62.99,-11.89,26.82
7991,-12.92,-5.83,6.19,1.42,0.28,0.60,-62.99,-11.89,26.82
8002,-12.92,-5.83,6.19,1.42,0.28,0.60,-62.99,-11.89,26.82
8013,-7.83,-1.63,5.87,-0.41,0.44,0.19,-62.99,-11.89,26.82
8024,-7.83,-1.63,5.87,-0.41,0.44,0.19,-62.99,-11.89,26.82
8035,-5.41,-3.13,4.85,-0.78,1.07,-0.33,-62.99,-11.89,26.82
8046,-5.41,-3.13,4.85,-0.78,1.07,-0.33,-62.99,-11.89,26.82
8057,-4.89,-5.79,1.51,-0.56,1.51,-0.40,-62.99,-11.89,26.82
8068,-4.89,-5.79,1.51,-0.56,1.51,-0.40,-62.99,-11.89,26.82
8079,-8.33,-6.05,-1.66,-0.15,1.18,-0.04,-65.08,-10.51,22.53
8090,-9.15,-4.18,-0.46,1.53,0.07,0.12,-65.08,-10.51,22.53
8101,-9.15,-4.18,-0.46,1.53,0.07,0.12,-65.08,-10.51,22.53
8112,-6.83,-4.56,5.68,2.64,-0.59,-0.15,-65.08,-10.51,22.53
8123,-6.83,-4.56,5.68,2.64,-0.59,-0.15,-65.08,-10.51,22.53
8134,-7.17,-5.68,6.68,1.71,-0.14,-0.05,-65.08,-10.51,22.53
8145,-7.17,-5.68,6.68,1.71,-0.14,-0.05,-65.08,-10.51,22.53
8156,-8.99,-5.18,2.65,-0.00,0.41,0.20,-65.08,-10.51,22.53
8167,-8.99,-5.18,2.65,-0.00,0.41,0.20,-65.08,-10.51,22.53
8178,-9.68,-4.35,2.43,-0.48,0.27,0.32,-65.08,-10.51,22.53
8189,-9.68,-4.35,2.43,-0.48,0.27,0.32,-65.08,-10.51,22.53
8200,-8.70,-3.98,3.67,-0.57,0.15,0.15,-65.31,-7.28,22.37
8212,-8.06,-4.28,2.72,-0.82,0.25,-0.01,-65.31,-7.28,22.37
8222,-8.06,-4.28,2.72,-0.82,0.25,-0.01,-65.31,-7.28,22.37
8238,-7.67,-4.48,0.73,-0.54,0.19,0.03,-65.31,-7.28,22.37
8244,-7.67,-4.48,0.73,-0.54,0.19,0.03,-65.31,-7.28,22.37
8255,-9.17,-6.71,5.48,0.87,0.05,0.29,-65.31,-7.28,22.37
8266,-9.17,-6.71,5.48,0.87,0.05,0.29,-65.31,-7.28,22.37
8277,-8.23,-3.85,2.84,-1.78,0.33,0.20,-65.31,-7.28,22.37
8288,-8.23,-3.85,2.84,-1.78,0.33,0.20,-65.31,-7.28,22.37
8299,-9.16,-5.43,1.59,-0.43,0.31,0.30,-65.31,-7.28,22.37
8310,-9.16,-5.43,1.59,-0.43,0.31,0.30,-65.31,-7.28,22.37
8321,-7.87,-4.57,0.78,-0.42,-0.21,0.37,-65.31,-7.28,22.37
8332,-7.38,-4.86,3.34,0.22,-0.56,0.59,-66.25,-8.21,22.69
8343,-7.38,-4.86,3.34,0.22,-0.56,0.59,-66.25,-8.21,22.69
8354,-7.91,-3.45,3.79,-0.01,-0.42,0.66,-66.25,-8.21,22.69
8365,-7.91,-3.45,3.79,-0.01,-0.42,0.66,-66.25,-8.21,22.69
8376,-9.33,-2.48,3.81,0.05,-0.22,0.41,-66.25,-8.21,22.69
8387,-9.33,-2.48,3.81,0.05,-0.22,0.41,-66.25,-8.21,22.69
8398,-8.66,-1.54,3.91,-0.00,-0.16,-0.06,-66.25,-8.21,22.69
8409,-8.66,-1.54,3.91,-0.00,-0.16,-0.06,-66.25,-8.21,22.69
8420,-7.56,-3.52,3.42,0.24,-0.12,-0.51,-66.25,-8.21,22.69
8431,-7.56,-5.78,2.72,0.62,-0.10,-0.46,-66.25,-8.21,22.69
8442,-7.56,-5.78,2.72,0.62,-0.10,-0.46,-66.25,-8.21,22.69
8453,-8.74,-3.20,2.25,0.81,-0.29,-0.02,-61.59,-5.75,25.23
8464,-8.74,-3.20,2.25,0.81,-0.29,-0.02,-61.59,-5.75,25.23
8475,-8.31,-3.88,3.92,1.21,-0.60,-0.08,-61.59,-5.75,25.23
8486,-8.31,-3.88,3.92,1.21,-0.60,-0.08,-61.59,-5.75,25.23
8497,-7.67,-4.80,5.63,0.95,-0.57,-0.19,-61.59,-5.75,25.23
8508,-7.67,-4.80,5.63,0.95,-0.57,-0.19,-61.59,-5.75,25.23
8519,-8.71,-6.25,5.24,0.09,-0.19,-0.14,-61.59,-5.75,25.23
8530,-8.71,-6.25,5.24,0.09,-0.19,-0.14,-61.59,-5.75,25.23
8541,-7.98,-5.27,3.05,-0.66,0.01,0.05,-61.59,-5.75,25.23
8552,-7.86,-3.84,3.46,-0.49,-0.02,0.18,-61.59,-5.75,25.23
8563,-7.86,-3.84,3.46,-0.49,-0.02,0.18,-61.59,-5.75,25.23
8574,-8.44,-3.54,3.64,-0.48,-0.02,0.15,-64.38,-7.90,25.23
8585,-8.44,-3.54,3.64,-0.48,-0.02,0.15,-64.38,-7.90,25.23
8596,-8.72,-3.37,3.70,-0.47,0.02,0.14,-64.38,-7.90,25.23
8607,-8.72,-3.37,3.70,-0.47,0.02,0.14,-64.38,-7.90,25.23
8618,-8.64,-3.21,3.21,-0.48,0.06,0.04,-64.38,-7.90,25.23
8629,-8.64,-3.21,3.21,-0.48,0.06,0.04,-64.38,-7.90,25.23
8640,-7.76,-4.71,3.30,-0.13,0.10,-0.13,-64.38,-7.90,25.23
8651,-7.81,-4.85,3.17,-0.18,0.17,-0.12,-64.38,-7.90,25.23
8662,-7.81,-4.85,3.17,-0.18,0.17,-0.12,-64.38,-7.90,25.23
8673,-8.28,-5.14,3.15,-0.18,0.16,-0.02,-64.38,-7.90,25.23
8684,-8.28,-5.14,3.15,-0.18,0.16,-0.02,-64.38,-7.90,25.23
8695,-8.36,-4.37,3.13,-0.22,0.07,0.10,-64.38,-7.90,25.23
8706,-8.36,-4.37,3.13,-0.22,0.07,0.10,-64.38,-7.90,25.23
8717,-7.97,-3.71,3.10,-0.19,-0.02,0.15,-65.78,-7.90,25.23
8728,-7.97,-3.71,3.10,-0.19,-0.02,0.15,-65.78,-7.90,25.23
8739,-7.79,-4.28,3.44,0.04,-0.05,0.14,-65.78,-7.90,25.23
8750,-7.79,-4.28,3.44,0.04,-0.05,0.14,-65.78,-7.90,25.23
8761,-8.58,-4.47,3.75,0.18,-0.00,0.13,-65.78,-7.90,25.23
8772,-8.54,-4.22,2.83,0.09,-0.00,0.06,-65.78,-7.90,25.23
8783,-8.54,-4.22,2.83,0.09,-0.00,0.06,-65.78,-7.90,25.23
8794,-8.01,-4.12,3.09,0.21,-0.12,0.04,-65.78,-7.90,25.23
8805,-8.01,-4.12,3.09,0.21,-0.12,0.04,-65.78,-7.90,25.23
8816,-7.58,-4.48,4.39,0.18,-0.12,0.03,-65.78,-7.90,25.23
8827,-7.58,-4.48,4.39,0.18,-0.12,0.03,-65.78,-7.90,25.23
8838,-8.28,-4.27,3.78,-0.14,0.10,0.06,-64.38,-7.28,25.23
8849,-8.28,-4.27,3.78,-0.14,0.10,0.06,-64.38,-7.28,25.23
8861,-8.31,-4.26,2.68,-0.30,0.16,0.04,-64.38,-7.28,25.23
8871,-8.50,-4.23,2.68,-0.16,0.04,0.03,-64.38,-7.28,25.23
8882,-8.50,-4.23,2.68,-0.16,0.04,0.03,-64.38,-7.28,25.23
8893,-8.18,-4.17,3.18,0.06,-0.05,-0.01,-64.38,-7.28,25.23
8904,-8.18,-4.17,3.18,0.06,-0.05,-0.01,-64.38,-7.28,25.23
8915,-7.55,-4.38,3.87,0.13,-0.04,-0.01,-64.38,-7.28,25.23
8926,-7.55,-4.38,3.87,0.13,-0.04,-0.01,-64.38,-7.28,25.23
8937,-8.80,-3.60,3.29,0.03,0.06,0.05,-64.38,-7.28,25.23
8948,-8.80,-3.60,3.29,0.03,0.06,0.05,-64.38,-7.28,25.23
8959,-8.41,-3.99,2.80,-0.07,0.04,-0.03,-64.15,-7.13,26.02
8970,-8.41,-3.99,2.80,-0.07,0.04,-0.03,-64.15,-7.13,26.02
8981,-8.31,-4.40,2.62,0.01,-0.03,-0.06,-64.15,-7.13,26.02
8992,-7.82,-4.58,3.53,0.17,-0.11,-0.04,-64.15,-7.13,26.02
9003,-7.82,-4.58,3.53,0.17,-0.11,-0.04,-64.15,-7.13,26.02
9014,-8.22,-4.43,3.87,0.10,-0.04,0.04,-64.15,-7.13,26.02
9025,-8.22,-4.43,3.87,0.10,-0.04,0.04,-64.15,-7.13,26.02
9036,-8.40,-4.05,3.39,-0.08,0.05,0.04,-64.15,-7.13,26.02
9047,-8.40,-4.05,3.39,-0.08,0.05,0.04,-64.15,-7.13,26.02
9058,-8.11,-4.03,3.09,-0.14,0.02,-0.01,-64.15,-7.13,26.02
9069,-8.11,-4.03,3.09,-0.14,0.02,-0.01,-64.15,-7.13,26.02
9080,-7.82,-4.47,3.33,-0.04,-0.02,-0.04,-63.92,-6.36,26.18
9091,-7.93,-4.44,3.45,0.09,0.01,0.02,-63.92,-6.36,26.18
9102,-7.93,-4.44,3.45,0.09,0.01,0.02,-63.92,-6.36,26.18
9113,-8.59,-3.91,3.35,0.06,0.04,0.07,-63.92,-6.36,26.18
9124,-8.59,-3.91,3.35,0.06,0.04,0.07,-63.92,-6.36,26.18
9135,-8.29,-3.91,3.14,-0.02,0.03,0.03,-63.92,-6.36,26.18
9146,-8.29,-3.91,3.14,-0.02,0.03,0.03,-63.92,-6.36,26.18
9157,-8.15,-4.44,3.19,-0.03,0.02,-0.01,-63.92,-6.36,26.18
9168,-8.15,-4.44,3.19,-0.03,0.02,-0.01,-63.92,-6.36,26.18
9179,-8.24,-4.51,3.22,-0.07,-0.00,0.02,-63.92,-6.36,26.18
9190,-8.24,-4.51,3.22,-0.07,-0.00,0.02,-63.92,-6.36,26.18
9201,-8.27,-4.50,3.32,-0.05,-0.01,0.06,-63.92,-6.36,26.18
9212,-8.25,-4.13,3.10,-0.00,0.00,0.11,-64.85,-6.67,24.28
9223,-8.25,-4.13,3.10,-0.00,0.00,0.11,-64.85,-6.67,24.28
9234,-8.34,-3.75,3.42,0.09,-0.00,0.10,-64.85,-6.67,24.28
9250,-8.34,-3.75,3.42,0.09,-0.00,0.10,-64.85,-6.67,24.28
9256,-8.43,-3.73,3.63,0.12,0.04,0.02,-64.85,-6.67,24.28
9267,-8.43,-3.73,3.63,0.12,0.04,0.02,-64.85,-6.67,24.28
9278,-8.55,-4.14,3.90,0.00,0.12,-0.05,-64.85,-6.67,24.28
9289,-8.55,-4.14,3.90,0.00,0.12,-0.05,-64.85,-6.67,24.28
9300,-8.29,-4.50,2.98,-0.26,0.21,-0.03,-64.85,-6.67,24.28
9311,-8.29,-4.50,2.98,-0.26,0.21,-0.03,-64.85,-6.67,24.28
9322,-8.03,-4.37,2.08,-0.27,0.15,0.05,-64.85,-6.67,24.28
9333,-8.56,-4.18,3.54,-0.02,-0.00,0.08,-63.45,-7.28,24.60
9344,-8.56,-4.18,3.54,-0.02,-0.00,0.08,-63.45,-7.28,24.60
9355,-8.66,-3.62,3.73,-0.15,0.10,0.11,-63.45,-7.28,24.60
9366,-8.66,-3.62,3.73,-0.15,0.10,0.11,-63.45,-7.28,24.60
9377,-8.57,-4.14,2.91,-0.52,0.22,0.13,-63.45,-7.28,24.60
9388,-8.57,-4.14,2.91,-0.52,0.22,0.13,-63.45,-7.28,24.60
9399,-8.56,-4.10,3.76,-0.61,0.17,0.25,-63.45,-7.28,24.60
9410,-8.56,-4.10,3.76,-0.61,0.17,0.25,-63.45,-7.28,24.60
9421,-8.58,-2.97,2.73,-0.87,0.19,0.30,-63.45,-7.28,24.60
9432,-8.39,-3.64,2.57,-0.99,0.16,0.19,-63.45,-7.28,24.60
9443,-8.39,-3.64,2.57,-0.99,0.16,0.19,-63.45,-7.28,24.60
9454,-8.42,-4.21,2.22,-1.10,0.06,0.19,-65.78,-8.51,23.01
9466,-8.42,-4.21,2.22,-1.10,0.06,0.19,-65.78,-8.51,23.01
9476,-7.95,-4.15,2.38,-1.12,-0.04,0.28,-65.78,-8.51,23.01
9487,-7.95,-4.15,2.38,-1.12,-0.04,0.28,-65.78,-8.51,23.01
9498,-7.90,-4.11,2.14,-1.08,-0.14,0.28,-65.78,-8.51,23.01
9509,-7.90,-4.11,2.14,-1.08,-0.14,0.28,-65.78,-8.51,23.01
9520,-8.24,-4.06,1.75,-0.81,-0.28,0.21,-65.78,-8.51,23.01
9531,-8.24,-4.06,1.75,-0.81,-0.28,0.21,-65.78,-8.51,23.01
9542,-8.12,-4.25,1.98,-0.41,-0.51,0.15,-65.78,-8.51,23.01
9553,-7.87,-4.94,2.68,-0.12,-0.69,0.13,-65.78,-8.51,23.01
9564,-7.87,-4.94,2.68,-0.12,-0.69,0.13,-65.78,-8.51,23.01
9575,-7.52,-4.86,1.79,0.09,-0.69,0.07,-65.78,-8.51,23.01
9586,-7.52,-4.86,1.79,0.09,-0.69,0.07,-65.78,-8.51,23.01
9597,-7.35,-5.09,2.13,0.46,-0.75,0.02,-64.62,-8.97,23.80
9608,-7.35,-5.09,2.13,0.46,-0.75,0.02,-64.62,-8.97,23.80
9619,-8.29,-4.58,2.78,0.74,-0.72,-0.04,-64.62,-8.97,23.80
9630,-8.29,-4.58,2.78,0.74,-0.72,-0.04,-64.62,-8.97,23.80
9641,-8.54,-4.26,3.53,0.74,-0.56,-0.11,-64.62,-8.97,23.80
9652,-8.58,-4.64,3.21,0.63,-0.37,-0.20,-64.62,-8.97,23.80
9663,-8.58,-4.64,3.21,0.63,-0.37,-0.20,-64.62,-8.97,23.80
9674,-7.99,-4.72,3.70,0.55,-0.25,-0.20,-64.62,-8.97,23.80
9685,-7.99,-4.72,3.70,0.55,-0.25,-0.20,-64.62,-8.97,23.80
9696,-8.52,-4.08,3.58,0.50,-0.13,-0.22,-64.62,-8.97,23.80
9707,-8.52,-4.08,3.58,0.50,-0.13,-0.22,-64.62,-8.97,23.80
9718,-8.55,-3.85,4.75,0.33,0.04,-0.31,-59.27,-7.59,27.77
9729,-8.55,-3.85,4.75,0.33,0.04,-0.31,-59.27,-7.59,27.77
9740,-8.19,-4.28,3.16,0.10,0.29,-0.41,-59.27,-7.59,27.77
9751,-8.19,-4.28,3.16,0.10,0.29,-0.41,-59.27,-7.59,27.77
9762,-8.32,-4.59,4.22,0.02,0.37,-0.41,-59.27,-7.59,27.77
9773,-8.15,-4.35,2.78,-0.23,0.51,-0.39,-59.27,-7.59,27.77
9784,-8.15,-4.35,2.78,-0.23,0.51,-0.39,-59.27,-7.59,27.77
9795,-8.36,-4.71,3.11,-0.14,0.53,-0.37,-59.27,-7.59,27.77
9806,-8.36,-4.71,3.11,-0.14,0.53,-0.37,-59.27,-7.59,27.77
9817,-8.36,-4.79,2.63,-0.16,0.59,-0.32,-59.27,-7.59,27.77
9828,-8.36,-4.79,2.63,-0.16,0.59,-0.32,-59.27,-7.59,27.77
9839,-8.30,-4.62,2.65,-0.11,0.57,-0.25,-63.69,-9.28,25.71
9851,-8.30,-4.62,2.65,-0.11,0.57,-0.25,-63.69,-9.28,25.71
9861,-8.38,-4.16,2.71,-0.09,0.54,-0.20,-63.69,-9.28,25.71
9872,-8.54,-4.29,2.34,-0.13,0.55,-0.20,-63.69,-9.28,25.71
9883,-8.54,-4.29,2.34,-0.13,0.55,-0.20,-63.69,-9.28,25.71
9894,-8.42,-4.41,2.77,-0.10,0.51,-0.13,-63.69,-9.28,25.71
9905,-8.42,-4.41,2.77,-0.10,0.51,-0.13,-63.69,-9.28,25.71
9916,-8.46,-4.48,2.53,-0.09,0.44,-0.07,-63.69,-9.28,25.71
9927,-8.46,-4.48,2.53,-0.09,0.44,-0.07,-63.69,-9.28,25.71
9938,-8.38,-4.30,3.59,-0.25,0.33,0.02,-63.69,-9.28,25.71
9949,-8.38,-4.30,3.59,-0.25,0.33,0.02,-63.69,-9.28,25.71
9960,-8.41,-4.33,2.38,-0.61,0.30,0.07,-63.69,-9.28,25.71
9971,-8.41,-4.33,2.38,-0.61,0.30,0.07,-63.69,-9.28,25.71
9982,-8.55,-3.81,2.23,-0.82,0.16,0.11,-64.85,-10.05,23.01
9993,-8.60,-3.43,2.28,-1.01,0.08,0.17,-64.85,-10.05,23.01
10004,-8.60,-3.43,2.28,-1.01,0.08,0.17,-64.85,-10.05,23.01
10015,-7.96,-4.12,1.45,-1.00,-0.05,0.12,-64.85,-10.05,23.01
10026,-7.96,-4.12,1.45,-1.00,-0.05,0.12,-64.85,-10.05,23.01
10037,-8.14,-4.71,2.14,-0.77,-0.34,0.13,-64.85,-10.05,23.01
10048,-8.14,-4.71,2.14,-0.77,-0.34,0.13,-64.85,-10.05,23.01
10059,-7.76,-4.65,2.41,-0.55,-0.52,0.19,-64.85,-10.05,23.01
10070,-7.76,-4.65,2.41,-0.55,-0.52,0.19,-64.85,-10.05,23.01
10081,-7.43,-5.27,3.06,-0.27,-0.64,0.18,-64.85,-10.05,23.01
10092,-7.59,-6.19,1.95,-0.08,-0.67,0.15,-63.22,-12.35,23.01
10103,-7.59,-6.19,1.95,-0.08,-0.67,0.15,-63.22,-12.35,22.85
10114,-8.23,-6.38,2.70,0.21,-0.72,0.17,-63.22,-12.35,22.85
10125,-8.23,-6.38,2.70,0.21,-0.72,0.17,-63.22,-12.35,22.85
10136,-7.83,-6.00,2.70,0.37,-0.67,0.17,-63.22,-12.35,22.85
10147,-7.83,-6.00,2.70,0.37,-0.67,0.17,-63.22,-12.35,22.85
10158,-7.25,-5.88,2.57,0.49,-0.54,0.13,-63.22,-12.35,22.85
10169,-7.25,-5.88,2.57,0.49,-0.54,0.13,-63.22,-12.35,22.85
10180,-8.37,-4.69,3.04,0.54,-0.38,0.07,-63.22,-12.35,22.85
10191,-8.37,-4.69,3.04,0.54,-0.38,0.07,-63.22,-12.35,22.85
10202,-8.46,-4.73,2.63,0.38,-0.17,-0.05,-63.22,-12.35,22.85
10213,-7.95,-4.66,2.09,0.39,-0.07,-0.09,-62.29,-11.12,25.07
10224,-7.95,-4.66,2.09,0.39,-0.07,-0.09,-62.29,-11.12,25.07
10235,-8.65,-4.43,2.93,0.55,-0.08,-0.13,-62.29,-11.12,25.07
10246,-8.65,-4.43,2.93,0.55,-0.08,-0.13,-62.29,-11.12,25.07
10257,-8.27,-4.17,3.57,0.47,0.06,-0.16,-62.29,-11.12,25.07
10268,-8.27,-4.17,3.57,0.47,0.06,-0.16,-62.29,-11.12,25.07
10279,-8.43,-4.63,2.86,0.27,0.23,-0.25,-62.29,-11.12,25.07
10290,-8.43,-4.63,2.86,0.27,0.23,-0.25,-62.29,-11.12,25.07
10301,-8.21,-4.80,3.59,0.13,0.31,-0.27,-62.29,-11.12,25.07
10312,-8.21,-4.80,3.59,0.13,0.31,-0.27,-62.29,-11.12,25.07
10323,-8.35,-4.81,2.58,-0.04,0.43,-0.26,-62.29,-11.12,25.07
10334,-8.30,-5.08,2.47,-0.11,0.49,-0.25,-62.29,-11.12,25.07
10345,-8.30,-5.08,2.47,-0.11,0.49,-0.25,-62.29,-11.12,25.07
10356,-8.44,-4.91,2.17,-0.16,0.54,-0.24,-62.29,-11.12,25.07
10368,-8.44,-4.91,2.17,-0.16,0.54,-0.24,-62.29,-11.12,25.07
10378,-8.17,-4.80,1.87,-0.12,0.60,-0.21,-62.29,-11.12,25.07
10389,-8.17,-4.80,1.87,-0.12,0.60,-0.21,-62.29,-11.12,25.07
10400,-8.51,-5.00,2.01,-0.14,0.60,-0.21,-62.29,-11.12,25.07
10411,-8.51,-5.00,2.01,-0.14,0.60,-0.21,-62.29,-11.12,25.07
10422,-8.79,-4.49,2.38,-0.22,0.60,-0.17,-62.29,-11.12,25.07
10433,-8.36,-4.38,2.11,-0.29,0.56,-0.07,-62.29,-11.12,25.07
10444,-8.36,-4.38,2.11,-0.29,0.56,-0.07,-62.29,-11.12,25.07
10455,-8.44,-4.66,2.82,-0.26,0.41,-0.04,-62.29,-11.12,25.07
10466,-8.44,-4.66,2.82,-0.26,0.41,-0.04,-62.29,-11.12,25.07
10477,-8.46,-4.58,2.71,-0.25,0.38,0.00,-65.31,-12.20,23.01
10488,-8.46,-4.58,2.71,-0.25,0.38,0.00,-65.31,-12.20,23.01
10499,-8.86,-4.34,3.01,-0.44,0.36,0.07,-65.31,-12.20,23.01
10510,-8.86,-4.34,3.01,-0.44,0.36,0.07,-65.31,-12.20,23.01
10521,-8.70,-4.53,2.87,-0.76,0.37,0.16,-65.31,-12.20,23.01
10532,-8.70,-4.53,2.87,-0.76,0.37,0.16,-65.31,-12.20,23.01
10543,-8.57,-4.06,1.74,-0.86,0.27,0.25,-65.31,-12.20,23.01
10554,-8.79,-3.77,1.90,-0.81,0.11,0.21,-65.31,-12.20,23.01
10565,-8.79,-3.77,1.90,-0.81,0.11,0.21,-65.31,-12.20,23.01
10576,-8.45,-4.77,1.54,-0.83,0.04,0.14,-65.31,-12.20,23.01
10587,-8.45,-4.77,1.54,-0.83,0.04,0.14,-65.31,-12.20,23.01
10598,-8.24,-5.32,1.42,-0.79,-0.14,0.23,-66.48,-12.96,21.90
10609,-8.24,-5.32,1.42,-0.79,-0.14,0.23,-66.48,-12.96,21.90
10620,-7.39,-4.63,0.95,-0.64,-0.35,0.30,-66.48,-12.96,21.90
10631,-7.39,-4.63,0.95,-0.64,-0.35,0.30,-66.48,-12.96,21.90
10642,-7.22,-4.95,1.16,-0.37,-0.52,0.21,-66.48,-12.96,21.90
10653,-7.32,-6.34,1.38,-0.09,-0.63,0.10,-66.48,-12.96,21.90
10664,-7.32,-6.34,1.38,-0.09,-0.63,0.10,-66.48,-12.96,21.90
10675,-6.87,-6.19,1.49,0.08,-0.74,0.13,-66.48,-12.96,21.90
10686,-6.87,-6.19,1.49,0.08,-0.74,0.13,-66.48,-12.96,21.90
10697,-7.68,-6.13,2.10,0.26,-0.71,0.11,-66.48,-12.96,21.90
10708,-7.68,-6.13,2.10,0.26,-0.71,0.11,-66.48,-12.96,21.90
10719,-7.82,-5.84,1.34,0.38,-0.57,0.01,-62.99,-13.12,21.74
10730,-7.82,-5.84,1.34,0.38,-0.57,0.01,-62.99,-13.12,21.74
10741,-8.24,-5.53,1.76,0.66,-0.57,-0.01,-62.99,-13.12,21.74
10752,-8.24,-5.53,1.76,0.66,-0.57,-0.01,-62.99,-13.12,21.74
10763,-8.39,-4.62,2.14,0.88,-0.50,-0.04,-62.99,-13.12,21.74
10774,-8.67,-4.90,2.98,0.81,-0.33,-0.09,-62.99,-13.12,21.74
10785,-8.67,-4.90,2.98,0.81,-0.33,-0.09,-62.99,-13.12,21.74
10796,-8.64,-4.41,1.63,0.66,-0.12,-0.12,-62.99,-13.12,21.74
10807,-8.64,-4.41,1.63,0.66,-0.12,-0.12,-62.99,-13.12,21.74
10818,-8.63,-4.56,2.49,0.71,-0.06,-0.19,-62.99,-13.12,21.74
10829,-8.63,-4.56,2.49,0.71,-0.06,-0.19,-62.99,-13.12,21.74
10840,-8.40,-4.35,3.75,0.54,0.09,-0.24,-62.99,-13.12,21.74
10851,-8.40,-4.35,3.75,0.54,0.09,-0.24,-62.99,-13.12,21.74
10862,-8.55,-5.10,2.46,0.25,0.32,-0.32,-61.83,-10.51,25.39
10873,-8.41,-5.12,2.75,0.11,0.41,-0.29,-61.83,-10.51,25.39
10884,-8.41,-5.12,2.75,0.11,0.41,-0.29,-61.83,-10.51,25.39
10895,-8.31,-4.90,1.73,0.07,0.55,-0.25,-61.83,-10.51,25.39
10906,-8.31,-4.90,1.73,0.07,0.55,-0.25,-61.83,-10.51,25.39
10917,-8.36,-4.94,2.70,0.07,0.61,-0.24,-61.83,-10.51,25.39
10928,-8.36,-4.94,2.70,0.07,0.61,-0.24,-61.83,-10.51,25.39
10939,-8.35,-4.63,2.00,-0.15,0.73,-0.22,-61.83,-10.51,25.39
10950,-8.35,-4.63,2.00,-0.15,0.73,-0.22,-61.83,-10.51,25.39
10961,-8.36,-5.00,1.81,-0.24,0.69,-0.17,-61.83,-10.51,25.39
10972,-8.36,-5.00,1.81,-0.24,0.69,-0.17,-61.83,-10.51,25.39
10983,-8.50,-4.47,2.24,-0.35,0.56,-0.03,-66.01,-12.66,22.85
10994,-8.49,-4.36,1.21,-0.41,0.60,-0.01,-66.01,-12.66,22.85
11005,-8.49,-4.36,1.21,-0.41,0.60,-0.01,-66.01,-12.66,22.85
11017,-8.85,-4.43,1.56,-0.43,0.56,-0.04,-66.01,-12.66,22.85
11027,-8.85,-4.43,1.56,-0.43,0.56,-0.04,-66.01,-12.66,22.85
11038,-8.62,-4.47,1.40,-0.49,0.53,0.04,-66.01,-12.66,22.85
11049,-8.62,-4.47,1.40,-0.49,0.53,0.04,-66.01,-12.66,22.85
11060,-8.61,-4.07,1.89,-0.67,0.47,0.14,-66.01,-12.66,22.85
11071,-8.61,-4.07,1.89,-0.67,0.47,0.14,-66.01,-12.66,22.85
11082,-8.80,-4.49,1.77,-0.74,0.40,0.14,-66.01,-12.66,22.85
11093,-8.73,-4.30,0.85,-0.73,0.24,0.16,-66.94,-12.66,22.85
11104,-8.73,-4.30,0.85,-0.73,0.24,0.16,-66.94,-12.66,19.36
11115,-8.29,-4.80,0.35,-0.80,0.00,0.17,-66.94,-12.66,19.36
11126,-8.29,-4.80,0.35,-0.80,0.00,0.17,-66.94,-12.66,19.36
11137,-8.16,-4.99,1.97,-0.84,-0.21,0.20,-66.94,-12.66,19.36
11148,-8.16,-4.99,1.97,-0.84,-0.21,0.20,-66.94,-12.66,19.36
11159,-7.85,-5.10,0.66,-0.76,-0.37,0.17,-66.94,-12.66,19.36
11170,-7.85,-5.10,0.66,-0.76,-0.37,0.17,-66.94,-12.66,19.36
11181,-8.10,-5.86,0.31,-0.47,-0.62,0.12,-66.94,-12.66,19.36
11192,-8.10,-5.86,0.31,-0.47,-0.62,0.12,-66.94,-12.66,19.36
11203,-8.14,-5.58,0.20,-0.12,-0.84,0.11,-66.94,-12.66,19.36
11214,-7.22,-5.79,-0.09,0.31,-1.01,0.10,-66.94,-12.66,19.36
11225,-7.22,-5.79,-0.09,0.31,-1.01,0.10,-66.94,-12.66,19.36
11236,-7.39,-6.20,1.33,0.72,-1.23,0.11,-63.45,-13.73,22.05
11247,-7.39,-6.20,1.33,0.72,-1.23,0.11,-63.45,-13.73,22.05
11258,-8.00,-6.21,2.39,0.89,-1.04,0.08,-63.45,-13.73,22.05
11269,-8.00,-6.21,2.39,0.89,-1.04,0.08,-63.45,-13.73,22.05
11280,-8.21,-4.93,1.88,0.92,-0.66,0.08,-63.45,-13.73,22.05
11291,-8.21,-4.93,1.88,0.92,-0.66,0.08,-63.45,-13.73,22.05
11302,-8.33,-4.95,1.72,0.95,-0.52,-0.03,-63.45,-13.73,22.05
11313,-8.33,-4.95,1.72,0.95,-0.52,-0.03,-63.45,-13.73,22.05
11324,-8.59,-4.55,3.18,0.99,-0.40,-0.09,-63.45,-13.73,22.05
11335,-8.64,-4.39,2.97,0.86,-0.11,-0.19,-63.45,-13.73,22.05
11346,-8.64,-4.39,2.97,0.86,-0.11,-0.19,-63.45,-13.73,22.05
11357,-8.43,-4.07,2.76,0.70,0.09,-0.25,-63.69,-11.12,24.75
11368,-8.43,-4.07,2.76,0.70,0.09,-0.25,-63.69,-11.12,24.75
11379,-8.50,-4.54,2.58,0.46,0.26,-0.32,-63.69,-11.12,24.75
11390,-8.50,-4.54,2.58,0.46,0.26,-0.32,-63.69,-11.12,24.75
11401,-8.82,-4.37,2.90,0.24,0.37,-0.34,-63.69,-11.12,24.75
11412,-8.82,-4.37,2.90,0.24,0.37,-0.34,-63.69,-11.12,24.75
11423,-8.81,-4.89,2.44,0.10,0.60,-0.39,-63.69,-11.12,24.75
11434,-8.34,-5.48,2.20,-0.01,0.81,-0.35,-63.69,-11.12,24.75
11445,-8.34,-5.48,2.20,-0.01,0.81,-0.35,-63.69,-11.12,24.75
11456,-8.22,-5.32,2.35,-0.25,0.88,-0.23,-63.69,-11.12,24.75
11467,-8.22,-5.32,2.35,-0.25,0.88,-0.23,-63.69,-11.12,24.75
11478,-8.10,-4.69,2.51,-0.35,0.93,-0.17,-64.62,-12.04,22.85
11489,-8.10,-4.69,2.51,-0.35,0.93,-0.17,-64.62,-12.04,22.85
11500,-8.40,-4.87,2.19,-0.50,0.88,-0.11,-64.62,-12.04,22.85
11511,-8.40,-4.87,2.19,-0.50,0.88,-0.11,-64.62,-12.04,22.85
11522,-8.39,-4.60,1.77,-0.50,0.75,0.04,-64.62,-12.04,22.85
11533,-8.39,-4.60,1.77,-0.50,0.75,0.04,-64.62,-12.04,22.85
11544,-8.61,-4.62,1.87,-0.51,0.74,0.03,-64.62,-12.04,22.85
11555,-8.56,-5.21,2.76,-0.59,0.77,0.05,-64.62,-12.04,22.85
11566,-8.56,-5.21,2.76,-0.59,0.77,0.05,-64.62,-12.04,22.85
11577,-8.92,-4.55,0.95,-0.95,0.83,0.22,-64.62,-12.04,22.85
11588,-8.92,-4.55,0.95,-0.95,0.83,0.22,-64.62,-12.04,22.85
11599,-8.50,-4.18,0.68,-1.22,0.67,0.31,-64.62,-12.04,22.85
11610,-8.50,-4.18,0.68,-1.22,0.67,0.31,-64.62,-12.04,22.85
11621,-8.68,-4.09,0.83,-1.20,0.52,0.28,-66.25,-12.81,17.93
11632,-8.68,-4.09,0.83,-1.20,0.52,0.28,-66.25,-12.81,17.93
11643,-8.38,-4.03,-1.48,-1.09,0.37,0.20,-66.25,-12.81,17.93
11654,-8.40,-5.21,-0.24,-0.95,-0.05,0.17,-66.25,-12.81,17.93
11665,-8.40,-5.21,-0.24,-0.95,-0.05,0.17,-66.25,-12.81,17.93
11676,-8.78,-4.23,0.32,-1.12,-0.49,0.28,-66.25,-12.81,17.93
11687,-8.78,-4.23,0.32,-1.12,-0.49,0.28,-66.25,-12.81,17.93
11698,-8.14,-4.69,-0.02,-0.85,-0.64,0.18,-66.25,-12.81,17.93
11709,-8.14,-4.69,-0.02,-0.85,-0.64,0.18,-66.25,-12.81,17.93
11720,-7.62,-5.45,-0.15,-0.63,-0.73,-0.01,-66.25,-12.81,17.93
11731,-7.62,-5.45,-0.15,-0.63,-0.73,-0.01,-66.25,-12.81,17.93
11742,-7.43,-6.13,-1.00,-0.35,-0.92,-0.10,-66.25,-15.27,18.24
11753,-7.43,-6.13,-1.00,-0.35,-0.92,-0.10,-66.25,-15.27,18.24
11764,-7.54,-6.42,-0.80,0.42,-1.17,-0.06,-66.25,-15.27,18.24
11775,-7.50,-6.23,1.01,1.15,-1.26,-0.02,-66.25,-15.27,18.24
11786,-7.50,-6.23,1.01,1.15,-1.26,-0.02,-66.25,-15.27,18.24
11797,-7.97,-5.81,1.40,1.47,-1.12,-0.01,-66.25,-15.27,18.24
11808,-7.97,-5.81,1.40,1.47,-1.12,-0.01,-66.25,-15.27,18.24
11819,-8.15,-4.95,1.79,1.47,-0.93,-0.02,-66.25,-15.27,18.24
11830,-8.15,-4.95,1.79,1.47,-0.93,-0.02,-66.25,-15.27,18.24
11841,-8.67,-4.59,3.04,1.34,-0.68,-0.08,-66.25,-15.27,18.24
11852,-8.67,-4.59,3.04,1.34,-0.68,-0.08,-66.25,-15.27,18.24
11863,-9.00,-3.97,2.26,1.02,-0.37,-0.14,-61.36,-11.74,23.17
11874,-8.79,-4.24,2.21,0.82,-0.07,-0.29,-61.36,-11.74,23.17
11885,-8.79,-4.24,2.21,0.82,-0.07,-0.29,-61.36,-11.74,23.17
11896,-8.44,-5.00,1.76,0.76,0.11,-0.33,-61.36,-11.74,23.17
11907,-8.44,-5.00,1.76,0.76,0.11,-0.33,-61.36,-11.74,23.17
11918,-8.59,-4.85,3.27,0.60,0.17,-0.32,-61.36,-11.74,23.17
11929,-8.59,-4.85,3.27,0.60,0.17,-0.32,-61.36,-11.74,23.17
11940,-8.40,-5.48,2.78,0.27,0.48,-0.37,-61.36,-11.74,23.17
11951,-8.40,-5.48,2.78,0.27,0.48,-0.37,-61.36,-11.74,23.17
11962,-8.32,-5.22,1.88,0.19,0.74,-0.35,-61.36,-11.74,23.17
11973,-8.32,-5.22,1.88,0.19,0.74,-0.35,-61.36,-11.74,23.17
11984,-8.51,-5.04,1.35,0.23,0.73,-0.24,-66.01,-12.96,22.21
11995,-8.49,-5.26,1.30,0.08,0.66,-0.17,-66.01,-12.96,22.21
12006,-8.49,-5.26,1.30,0.08,0.66,-0.17,-66.01,-12.96,22.21
12018,-8.64,-4.61,1.47,-0.03,0.64,-0.09,-66.01,-12.96,22.21
12028,-8.64,-4.61,1.47,-0.03,0.64,-0.09,-66.01,-12.96,22.21
12039,-8.74,-5.03,1.76,-0.14,0.64,-0.03,-66.01,-12.96,22.21
12050,-8.74,-5.03,1.76,-0.14,0.64,-0.03,-66.01,-12.96,22.21
12061,-8.68,-4.35,0.52,-0.45,0.48,0.13,-66.01,-12.96,22.21
12072,-8.68,-4.35,0.52,-0.45,0.48,0.13,-66.01,-12.96,22.21
12083,-8.89,-3.71,1.78,-0.43,0.11,0.23,-66.01,-12.96,22.21
12094,-9.27,-3.61,2.94,-0.39,0.08,0.20,-66.01,-12.96,22.21
12105,-9.27,-3.61,2.94,-0.39,0.08,0.20,-66.01,-12.96,22.21
12116,-8.74,-4.40,2.10,-0.62,0.08,0.20,-66.48,-12.96,20.63
12127,-8.74,-4.40,2.10,-0.62,0.08,0.20,-66.48,-12.96,20.63
12138,-8.48,-4.40,1.76,-0.98,-0.14,0.28,-66.48,-12.96,20.63
12149,-8.48,-4.40,1.76,-0.98,-0.14,0.28,-66.48,-12.96,20.63
12160,-7.73,-4.27,1.01,-1.08,-0.39,0.30,-66.48,-12.96,20.63
12171,-7.73,-4.27,1.01,-1.08,-0.39,0.30,-66.48,-12.96,20.63
12182,-7.79,-5.05,2.93,-0.91,-0.53,0.22,-66.48,-12.96,20.63
12193,-7.79,-5.05,2.93,-0.91,-0.53,0.22,-66.48,-12.96,20.63
12204,-8.14,-5.72,1.74,-0.88,-0.58,0.16,-66.48,-12.96,20.63
12215,-7.64,-5.95,-0.05,-0.64,-0.85,0.17,-66.48,-12.96,20.63
12226,-7.64,-5.95,-0.05,-0.64,-0.85,0.17,-66.48,-12.96,20.63
12237,-7.93,-7.04,1.21,0.08,-1.20,0.16,-66.25,-13.73,22.37
12248,-7.93,-7.04,1.21,0.08,-1.20,0.16,-66.25,-13.73,22.37
12259,-7.84,-6.03,1.34,0.61,-1.24,0.25,-66.25,-13.73,22.37
12270,-7.84,-6.03,1.34,0.61,-1.24,0.25,-66.25,-13.73,22.37
12281,-7.45,-4.84,2.08,0.95,-1.28,0.25,-66.25,-13.73,22.37
12293,-7.45,-4.84,2.08,0.95,-1.28,0.25,-66.25,-13.73,22.37
12303,-8.51,-4.94,3.33,1.01,-1.08,0.14,-66.25,-13.73,22.37
12314,-8.51,-4.94,3.33,1.01,-1.08,0.14,-66.25,-13.73,22.37
12325,-8.52,-4.47,2.27,0.80,-0.58,-0.02,-66.25,-13.73,22.37
12336,-8.82,-4.52,1.62,0.70,-0.29,-0.15,-66.25,-13.73,22.37
12347,-8.82,-4.52,1.62,0.70,-0.29,-0.15,-66.25,-13.73,22.37
12358,-8.70,-4.37,2.03,0.69,-0.16,-0.22,-61.59,-10.97,25.23
12369,-8.70,-4.37,2.03,0.69,-0.16,-0.22,-61.59,-10.97,25.23
12380,-8.23,-4.83,3.09,0.73,-0.03,-0.30,-61.59,-10.97,25.23
12391,-8.23,-4.83,3.09,0.73,-0.03,-0.30,-61.59,-10.97,25.23
12402,-8.45,-5.05,3.63,0.59,0.21,-0.34,-61.59,-10.97,25.23
12413,-8.45,-5.05,3.63,0.59,0.21,-0.34,-61.59,-10.97,25.23
12424,-8.60,-4.81,2.57,0.31,0.43,-0.36,-61.59,-10.97,25.23
12435,-8.38,-4.63,3.25,0.37,0.56,-0.37,-61.59,-10.97,25.23
12446,-8.38,-4.63,3.25,0.37,0.56,-0.37,-61.59,-10.97,25.23
12457,-8.40,-4.81,2.72,0.25,0.74,-0.40,-61.59,-10.97,25.23
12468,-8.40,-4.81,2.72,0.25,0.74,-0.40,-61.59,-10.97,25.23
12479,-8.33,-4.73,1.89,0.01,0.75,-0.30,-61.59,-10.97,25.23
12490,-8.33,-4.73,1.89,0.01,0.75,-0.30,-61.59,-10.97,25.23
12501,-8.56,-4.77,1.91,-0.07,0.67,-0.20,-62.76,-12.04,24.44
12512,-8.56,-4.77,1.91,-0.07,0.67,-0.20,-62.76,-12.04,24.44
12523,-8.53,-4.68,2.01,-0.04,0.62,-0.15,-62.76,-12.04,24.44
12534,-8.53,-4.68,2.01,-0.04,0.62,-0.15,-62.76,-12.04,24.44
12545,-8.62,-4.56,2.16,-0.02,0.63,-0.12,-62.76,-12.04,24.44
12556,-8.67,-4.47,1.52,-0.18,0.62,-0.07,-62.76,-12.04,24.44
12567,-8.67,-4.47,1.52,-0.18,0.62,-0.07,-62.76,-12.04,24.44
12578,-8.44,-4.26,1.46,-0.17,0.53,0.01,-62.76,-12.04,24.44
12589,-8.44,-4.26,1.46,-0.17,0.53,0.01,-62.76,-12.04,24.44
12600,-8.76,-3.93,2.30,-0.18,0.37,0.06,-62.76,-12.04,24.44
12611,-8.76,-3.93,2.30,-0.18,0.37,0.06,-62.76,-12.04,24.44
12622,-8.53,-4.44,2.27,-0.29,0.34,0.05,-65.31,-12.50,21.74
12633,-8.53,-4.44,2.27,-0.29,0.34,0.05,-65.31,-12.50,21.74
12644,-8.45,-4.45,2.19,-0.42,0.24,0.10,-65.31,-12.50,21.74
12655,-8.38,-4.86,2.54,-0.56,0.14,0.14,-65.31,-12.50,21.74
12666,-8.38,-4.86,2.54,-0.56,0.14,0.14,-65.31,-12.50,21.74
12677,-8.12,-4.50,2.04,-0.87,0.05,0.22,-65.31,-12.50,21.74
12688,-8.12,-4.50,2.04,-0.87,0.05,0.22,-65.31,-12.50,21.74
12699,-8.04,-4.68,1.69,-1.03,-0.15,0.20,-65.31,-12.50,21.74
12710,-8.04,-4.68,1.69,-1.03,-0.15,0.20,-65.31,-12.50,21.74
12721,-8.24,-4.59,1.58,-0.97,-0.36,0.22,-65.31,-12.50,21.74
12732,-8.24,-4.59,1.58,-0.97,-0.36,0.22,-65.31,-12.50,21.74
12743,-8.47,-4.42,1.66,-0.89,-0.53,0.24,-65.31,-12.20,21.74
12754,-8.47,-4.42,1.66,-0.89,-0.53,0.24,-65.31,-12.20,21.74
12765,-7.58,-5.69,1.13,-0.57,-0.67,0.17,-65.31,-12.20,21.74
12776,-7.53,-6.02,1.30,-0.32,-0.79,0.15,-65.31,-12.20,21.74
12787,-7.53,-6.02,1.30,-0.32,-0.79,0.15,-65.31,-12.20,21.74
12798,-7.31,-6.17,1.20,-0.08,-0.78,0.18,-65.31,-12.20,21.74
12810,-7.31,-6.17,1.20,-0.08,-0.78,0.18,-65.31,-12.20,21.74
12820,-7.42,-5.86,0.98,0.29,-0.82,0.18,-65.31,-12.20,21.74
12831,-7.42,-5.86,0.98,0.29,-0.82,0.18,-65.31,-12.20,21.74
12842,-8.12,-5.36,2.60,0.73,-0.74,0.14,-65.31,-12.20,21.74
12853,-8.12,-5.36,2.60,0.73,-0.74,0.14,-65.31,-12.20,21.74
12864,-8.23,-5.12,0.76,0.91,-0.37,0.01,-65.31,-12.20,21.74
12875,-8.65,-4.74,0.99,1.23,-0.27,-0.07,-62.29,-11.43,23.17
12886,-8.65,-4.74,0.99,1.23,-0.27,-0.07,-62.29,-11.43,23.17
12897,-9.08,-4.59,2.05,1.31,-0.24,-0.14,-62.29,-11.43,23.17
12908,-9.08,-4.59,2.05,1.31,-0.24,-0.14,-62.29,-11.43,23.17
12919,-8.91,-4.33,3.79,1.04,-0.06,-0.19,-62.29,-11.43,23.17
12930,-8.91,-4.33,3.79,1.04,-0.06,-0.19,-62.29,-11.43,23.17
12941,-9.02,-3.92,2.42,0.45,0.27,-0.28,-62.29,-11.43,23.17
12952,-9.02,-3.92,2.42,0.45,0.27,-0.28,-62.29,-11.43,23.17
12963,-8.58,-4.14,2.27,0.21,0.44,-0.33,-62.29,-11.43,23.17
12974,-8.58,-4.14,2.27,0.21,0.44,-0.33,-62.29,-11.43,23.17
12985,-8.70,-4.91,2.03,0.14,0.51,-0.35,-62.29,-11.43,23.17
12996,-8.76,-4.50,2.10,0.13,0.59,-0.29,-62.99,-11.89,24.60
13007,-8.76,-4.50,2.10,0.13,0.59,-0.29,-62.99,-11.89,24.60
13018,-8.56,-4.62,2.36,0.13,0.61,-0.26,-62.99,-11.89,24.60
13029,-8.56,-4.62,2.36,0.13,0.61,-0.26,-62.99,-11.89,24.60
13040,-8.46,-4.95,2.17,0.09,0.62,-0.22,-62.99,-11.89,24.60
13051,-8.46,-4.95,2.17,0.09,0.62,-0.22,-62.99,-11.89,24.60
13062,-8.78,-4.57,1.82,-0.01,0.58,-0.14,-62.99,-11.89,24.60
13073,-8.78,-4.57,1.82,-0.01,0.58,-0.14,-62.99,-11.89,24.60
13085,-8.65,-4.21,1.39,-0.12,0.44,-0.07,-62.99,-11.89,24.60
13095,-8.48,-4.29,2.32,-0.04,0.22,-0.02,-62.99,-11.89,24.60
13106,-8.48,-4.29,2.32,-0.04,0.22,-0.02,-62.99,-11.89,24.60
13117,-8.80,-4.03,2.66,-0.05,0.11,0.03,-64.85,-13.42,23.01
13128,-8.80,-4.03,2.66,-0.05,0.11,0.03,-64.85,-13.42,23.01
13139,-8.50,-4.45,2.10,-0.30,0.06,0.07,-64.85,-13.42,23.01
13150,-8.50,-4.45,2.10,-0.30,0.06,0.07,-64.85,-13.42,23.01
13161,-9.12,-3.92,3.34,-0.58,-0.08,0.13,-64.85,-13.42,23.01
13172,-9.12,-3.92,3.34,-0.58,-0.08,0.13,-64.85,-13.42,23.01
13183,-8.66,-4.17,2.99,-0.86,-0.10,0.14,-64.85,-13.42,23.01
13194,-8.66,-4.17,2.99,-0.86,-0.10,0.14,-64.85,-13.42,23.01
13205,-8.72,-4.43,2.41,-1.02,-0.16,0.18,-64.85,-13.42,23.01
13216,-8.35,-4.14,1.83,-1.00,-0.26,0.22,-64.85,-13.42,23.01
13227,-8.35,-4.14,1.83,-1.00,-0.26,0.22,-64.85,-13.42,23.01
13238,-8.10,-5.04,2.36,-0.80,-0.35,0.18,-64.62,-12.96,21.26
13249,-8.10,-5.04,2.36,-0.80,-0.35,0.18,-64.62,-12.96,21.26
13260,-7.66,-5.31,2.41,-0.60,-0.38,0.19,-64.62,-12.96,21.26
13271,-7.66,-5.31,2.41,-0.60,-0.38,0.19,-64.62,-12.96,21.26
13282,-7.53,-6.06,2.20,-0.65,-0.41,0.16,-64.62,-12.96,21.26
13293,-7.53,-6.06,2.20,-0.65,-0.41,0.16,-64.62,-12.96,21.26
13304,-7.70,-6.42,1.47,-0.73,-0.44,0.14,-64.62,-12.96,21.26
13315,-7.70,-6.42,1.47,-0.73,-0.44,0.14,-64.62,-12.96,21.26
13326,-7.53,-5.88,1.56,-0.38,-0.45,0.14,-64.62,-12.96,21.26
13338,-7.91,-5.93,1.40,0.05,-0.40,0.10,-64.62,-12.96,21.26
13348,-7.91,-5.93,1.40,0.05,-0.40,0.10,-64.62,-12.96,21.26
13359,-8.12,-5.88,1.46,0.20,-0.37,0.10,-64.62,-12.96,21.26
13370,-8.12,-5.88,1.46,0.20,-0.37,0.10,-64.62,-12.96,21.26
13381,-8.31,-4.65,1.67,0.35,-0.35,0.12,-61.83,-14.50,23.17
13392,-8.31,-4.65,1.67,0.35,-0.35,0.12,-61.83,-14.50,23.17
13403,-8.48,-4.57,2.08,0.48,-0.18,0.04,-61.83,-14.50,23.17
13414,-8.48,-4.57,2.08,0.48,-0.18,0.04,-61.83,-14.50,23.17
13425,-8.45,-4.52,1.28,0.51,-0.02,-0.06,-61.83,-14.50,23.17
13436,-8.83,-5.05,0.98,0.65,0.04,-0.13,-61.83,-14.50,23.17
13447,-8.83,-5.05,0.98,0.65,0.04,-0.13,-61.83,-14.50,23.17
13458,-8.71,-4.27,1.15,0.65,0.09,-0.11,-61.83,-14.50,23.17
13469,-8.71,-4.27,1.15,0.65,0.09,-0.11,-61.83,-14.50,23.17
13480,-8.80,-4.31,0.21,0.66,0.11,-0.18,-61.83,-14.50,23.17
13491,-8.80,-4.31,0.21,0.66,0.11,-0.18,-61.83,-14.50,23.17
13502,-9.12,-4.29,3.15,0.71,0.11,-0.26,-62.99,-13.12,24.60
13513,-9.12,-4.29,3.15,0.71,0.11,-0.26,-62.99,-13.12,24.60
13524,-8.47,-5.61,2.45,0.27,0.49,-0.37,-62.99,-13.12,24.60
13535,-8.47,-5.61,2.45,0.27,0.49,-0.37,-62.99,-13.12,24.60
13546,-8.31,-5.23,0.42,0.15,0.73,-0.30,-62.99,-13.12,24.60
13557,-8.99,-4.56,2.01,0.43,0.61,-0.23,-62.99,-13.12,24.60
13568,-8.99,-4.56,2.01,0.43,0.61,-0.23,-62.99,-13.12,24.60
13579,-8.83,-4.06,1.73,0.30,0.64,-0.20,-62.99,-13.12,24.60
13590,-8.83,-4.06,1.73,0.30,0.64,-0.20,-62.99,-13.12,24.60
13601,-8.57,-4.41,1.48,0.11,0.60,-0.19,-62.99,-13.12,24.60
13612,-8.57,-4.41,1.48,0.11,0.60,-0.19,-62.99,-13.12,24.60
13623,-8.90,-4.20,1.57,0.02,0.42,-0.11,-62.99,-12.50,20.78
13634,-8.90,-4.20,1.57,0.02,0.42,-0.11,-62.99,-12.50,20.78
13645,-8.77,-4.13,1.69,-0.06,0.25,-0.02,-62.99,-12.50,20.78
13656,-8.73,-4.38,2.78,-0.22,0.14,0.07,-62.99,-12.50,20.78
13667,-8.73,-4.38,2.78,-0.22,0.14,0.07,-62.99,-12.50,20.78
13678,-8.63,-4.21,2.09,-0.34,0.15,0.09,-62.99,-12.50,20.78
13689,-8.63,-4.21,2.09,-0.34,0.15,0.09,-62.99,-12.50,20.78
13700,-8.76,-4.52,2.85,-0.46,0.09,0.12,-62.99,-12.50,20.78
13711,-8.76,-4.52,2.85,-0.46,0.09,0.12,-62.99,-12.50,20.78
13722,-8.29,-4.33,0.98,-0.60,0.05,0.17,-62.99,-12.50,20.78
13733,-8.29,-4.33,0.98,-0.60,0.05,0.17,-62.99,-12.50,20.78
13744,-8.39,-4.81,3.29,-0.52,-0.14,0.21,-62.99,-12.50,20.78
13755,-8.39,-4.81,3.29,-0.52,-0.14,0.21,-62.99,-12.50,20.78
13766,-8.31,-4.98,2.47,-0.64,-0.13,0.20,-66.01,-12.35,20.63
13777,-8.19,-4.97,1.67,-0.69,-0.25,0.21,-66.01,-12.35,20.63
13789,-8.19,-4.97,1.67,-0.69,-0.25,0.21,-66.01,-12.35,20.63
13799,-7.65,-5.20,2.56,-0.62,-0.39,0.21,-66.01,-12.35,20.63
13810,-7.65,-5.20,2.56,-0.62,-0.39,0.21,-66.01,-12.35,20.63
13821,-7.49,-5.58,1.90,-0.54,-0.41,0.20,-66.01,-12.35,20.63
13832,-7.49,-5.58,1.90,-0.54,-0.41,0.20,-66.01,-12.35,20.63
13843,-7.70,-6.17,1.62,-0.52,-0.53,0.15,-66.01,-12.35,20.63
13854,-7.70,-6.17,1.62,-0.52,-0.53,0.15,-66.01,-12.35,20.63
13865,-7.66,-6.10,1.22,-0.38,-0.70,0.16,-66.01,-12.35,20.63
13876,-7.97,-6.49,2.09,0.05,-0.74,0.17,-64.38,-12.81,21.42
13887,-7.97,-6.49,2.09,0.05,-0.74,0.17,-64.38,-12.81,21.42
13898,-7.72,-5.57,1.07,0.23,-0.48,0.20,-64.38,-12.81,21.42
13909,-7.72,-5.57,1.07,0.23,-0.48,0.20,-64.38,-12.81,21.42
13920,-7.93,-5.29,0.32,0.49,-0.34,0.10,-64.38,-12.81,21.42
13931,-7.93,-5.29,0.32,0.49,-0.34,0.10,-64.38,-12.81,21.42
13942,-8.67,-4.83,1.90,0.83,-0.36,0.02,-64.38,-12.81,21.42
13953,-8.67,-4.83,1.90,0.83,-0.36,0.02,-64.38,-12.81,21.42
13964,-9.33,-4.55,2.13,0.85,-0.14,-0.09,-64.38,-12.81,21.42
13975,-9.33,-4.55,2.13,0.85,-0.14,-0.09,-64.38,-12.81,21.42
13986,-9.20,-4.01,0.32,0.77,0.09,-0.15,-64.38,-12.81,21.42
13997,-8.95,-4.02,1.90,0.80,0.08,-0.20,-63.69,-13.27,23.48
14008,-8.95,-4.02,1.90,0.80,0.08,-0.20,-63.69,-13.27,23.48
14019,-9.37,-3.93,2.69,0.55,0.27,-0.27,-63.69,-13.27,23.48
14030,-9.37,-3.93,2.69,0.55,0.27,-0.27,-63.69,-13.27,23.48
14042,-8.92,-4.53,2.10,0.06,0.60,-0.34,-63.69,-13.27,23.48
14052,-8.92,-4.53,2.10,0.06,0.60,-0.34,-63.69,-13.27,23.48
14063,-8.67,-4.83,0.12,-0.06,0.71,-0.26,-63.69,-13.27,23.48
14074,-8.67,-4.83,0.12,-0.06,0.71,-0.26,-63.69,-13.27,23.48
14085,-8.91,-4.50,2.07,0.22,0.52,-0.18,-63.69,-13.27,23.48
14096,-8.54,-4.84,2.21,0.05,0.57,-0.17,-63.69,-13.27,23.48
14107,-8.54,-4.84,2.21,0.05,0.57,-0.17,-63.69,-13.27,23.48
14118,-8.52,-4.61,0.87,-0.17,0.60,-0.09,-63.69,-13.27,23.48
14129,-8.52,-4.61,0.87,-0.17,0.60,-0.09,-63.69,-13.27,23.48
14140,-8.59,-4.26,2.04,-0.11,0.39,0.02,-63.92,-11.89,21.42
14151,-8.59,-4.26,2.04,-0.11,0.39,0.02,-63.92,-11.89,21.42
14162,-8.61,-3.95,1.65,-0.14,0.22,0.03,-63.92,-11.89,21.42
14173,-8.61,-3.95,1.65,-0.14,0.22,0.03,-63.92,-11.89,21.42
14184,-8.63,-4.58,3.26,-0.11,0.02,0.03,-63.92,-11.89,21.42
14195,-8.63,-4.58,3.26,-0.11,0.02,0.03,-63.92,-11.89,21.42
14206,-8.60,-4.66,3.53,-0.31,0.01,0.09,-63.92,-11.89,21.42
14217,-8.10,-4.76,2.54,-0.55,0.02,0.12,-63.92,-11.89,21.42
14228,-8.10,-4.76,2.54,-0.55,0.02,0.12,-63.92,-11.89,21.42
14239,-8.33,-4.78,2.03,-0.55,-0.03,0.16,-63.92,-11.89,21.42
14250,-8.33,-4.78,2.03,-0.55,-0.03,0.16,-63.92,-11.89,21.42
14261,-8.72,-4.60,2.19,-0.56,-0.05,0.25,-65.78,-12.20,21.10
14272,-8.72,-4.60,2.19,-0.56,-0.05,0.25,-65.78,-12.20,21.10
14283,-8.81,-3.96,1.36,-0.62,-0.20,0.31,-65.78,-12.20,21.10
14294,-8.81,-3.96,1.36,-0.62,-0.20,0.31,-65.78,-12.20,21.10
14305,-8.32,-4.10,2.95,-0.54,-0.37,0.29,-65.78,-12.20,21.10
14316,-8.32,-4.10,2.95,-0.54,-0.37,0.29,-65.78,-12.20,21.10
14327,-8.16,-4.70,1.03,-0.57,-0.33,0.17,-65.78,-12.20,21.10
14338,-8.13,-6.08,0.57,-0.38,-0.40,0.11,-65.78,-12.20,21.10
14349,-8.13,-6.08,0.57,-0.38,-0.40,0.11,-65.78,-12.20,21.10
14360,-7.66,-6.41,1.21,-0.19,-0.55,0.18,-65.78,-12.20,21.10
14371,-7.66,-6.41,1.21,-0.19,-0.55,0.18,-65.78,-12.20,21.10
14382,-8.38,-5.43,1.65,-0.14,-0.60,0.21,-64.38,-13.42,22.37
14393,-8.38,-5.43,1.65,-0.14,-0.60,0.21,-64.38,-13.42,22.37
14404,-8.38,-5.56,1.21,-0.12,-0.51,0.04,-64.38,-13.42,22.37
14415,-8.38,-5.56,1.21,-0.12,-0.51,0.04,-64.38,-13.42,22.37
14426,-8.70,-5.19,0.10,0.08,-0.39,-0.04,-64.38,-13.42,22.37
14437,-8.26,-5.21,1.82,0.55,-0.33,-0.04,-64.38,-13.42,22.37
14448,-8.26,-5.21,1.82,0.55,-0.33,-0.04,-64.38,-13.42,22.37
14459,-8.66,-4.70,0.88,0.63,-0.12,-0.04,-64.38,-13.42,22.37
14470,-8.66,-4.70,0.88,0.63,-0.12,-0.04,-64.38,-13.42,22.37
14481,-8.98,-4.16,0.20,0.80,-0.05,-0.08,-64.38,-13.42,22.37
14492,-8.98,-4.16,0.20,0.80,-0.05,-0.08,-64.38,-13.42,22.37
14503,-8.78,-4.23,1.10,0.98,-0.11,-0.12,-64.38,-13.42,22.37
14514,-8.78,-4.23,1.10,0.98,-0.11,-0.12,-64.38,-13.42,22.37
14525,-8.91,-4.80,3.06,0.95,-0.05,-0.18,-62.99,-12.50,23.32
14536,-8.91,-4.80,3.06,0.95,-0.05,-0.18,-62.99,-12.50,23.32
14547,-9.02,-4.40,2.32,0.57,0.24,-0.23,-62.99,-12.50,23.32
14558,-8.57,-4.81,1.95,0.30,0.50,-0.30,-62.99,-12.50,23.32
14569,-8.57,-4.81,1.95,0.30,0.50,-0.30,-62.99,-12.50,23.32
14580,-9.03,-4.74,1.00,0.24,0.63,-0.27,-62.99,-12.50,23.32
14591,-9.03,-4.74,1.00,0.24,0.63,-0.27,-62.99,-12.50,23.32
14602,-8.90,-4.48,1.90,0.30,0.58,-0.16,-62.99,-12.50,23.32
14613,-8.90,-4.48,1.90,0.30,0.58,-0.16,-62.99,-12.50,23.32
14625,-8.77,-4.04,1.78,0.19,0.53,-0.10,-62.99,-12.50,23.32
14635,-8.77,-4.04,1.78,0.19,0.53,-0.10,-62.99,-12.50,23.32
14646,-9.21,-3.84,1.36,-0.06,0.44,-0.02,-62.52,-11.89,22.05
14657,-8.78,-3.90,2.00,-0.27,0.33,0.07,-62.52,-11.89,22.05
14668,-8.78,-3.90,2.00,-0.27,0.33,0.07,-62.52,-11.89,22.05
14679,-8.77,-3.35,2.03,-0.31,0.17,0.12,-62.52,-11.89,22.05
14690,-8.77,-3.35,2.03,-0.31,0.17,0.12,-62.52,-11.89,22.05
14701,-8.83,-3.24,2.27,-0.43,0.05,0.14,-62.52,-11.89,22.05
14712,-8.83,-3.24,2.27,-0.43,0.05,0.14,-62.52,-11.89,22.05
14723,-8.58,-4.37,2.99,-0.52,-0.05,0.08,-62.52,-11.89,22.05
14734,-8.58,-4.37,2.99,-0.52,-0.05,0.08,-62.52,-11.89,22.05
14745,-8.36,-4.50,2.49,-0.66,-0.09,0.14,-62.52,-11.89,22.05
14756,-8.36,-4.50,2.49,-0.66,-0.09,0.14,-62.52,-11.89,22.05
14767,-8.33,-4.46,2.55,-0.73,-0.21,0.21,-63.69,-11.74,22.53
14778,-8.00,-5.15,2.81,-0.66,-0.27,0.18,-63.69,-11.74,22.53
14789,-8.00,-5.15,2.81,-0.66,-0.27,0.18,-63.69,-11.74,22.53
14800,-8.31,-5.24,2.04,-0.59,-0.25,0.21,-63.69,-11.74,22.53
14811,-8.31,-5.24,2.04,-0.59,-0.25,0.21,-63.69,-11.74,22.53
14822,-8.04,-5.68,2.43,-0.45,-0.34,0.24,-63.69,-11.74,22.53
14833,-8.04,-5.68,2.43,-0.45,-0.34,0.24,-63.69,-11.74,22.53
14844,-7.35,-5.77,1.73,-0.35,-0.42,0.29,-63.69,-11.74,22.53
14856,-7.35,-5.77,1.73,-0.35,-0.42,0.29,-63.69,-11.74,22.53
14866,-7.81,-5.29,2.16,-0.27,-0.48,0.31,-63.69,-11.74,22.53
14877,-7.73,-5.29,2.05,-0.12,-0.45,0.19,-62.29,-13.27,23.17
14888,-7.73,-5.29,2.05,-0.12,-0.45,0.19,-62.29,-13.27,23.17
14899,-7.71,-5.13,1.08,-0.04,-0.37,0.15,-62.29,-13.27,23.17
14910,-7.71,-5.13,1.08,-0.04,-0.37,0.15,-62.29,-13.27,23.17
14921,-8.72,-5.02,1.58,0.17,-0.32,0.10,-62.29,-13.27,23.17
14932,-8.72,-5.02,1.58,0.17,-0.32,0.10,-62.29,-13.27,23.17
14943,-8.58,-4.32,0.75,0.21,-0.15,0.06,-62.29,-13.27,23.17
14954,-8.58,-4.32,0.75,0.21,-0.15,0.06,-62.29,-13.27,23.17
14965,-9.01,-4.15,0.74,0.33,-0.02,-0.03,-62.29,-13.27,23.17
14976,-9.01,-4.15,0.74,0.33,-0.02,-0.03,-62.29,-13.27,23.17
14987,-9.26,-4.48,1.03,0.43,0.12,-0.15,-62.29,-13.27,23.17
14998,-8.98,-4.18,-0.60,0.47,0.17,-0.16,-62.29,-13.27,23.17
15009,-8.98,-4.18,-0.60,0.47,0.17,-0.16,-62.29,-13.27,23.17
15020,-9.21,-4.20,1.12,0.67,0.13,-0.18,-64.15,-12.66,22.85
15031,-9.21,-4.20,1.12,0.67,0.13,-0.18,-64.15,-12.66,22.85
15042,-9.11,-4.44,1.87,0.55,0.32,-0.27,-64.15,-12.66,22.85
15053,-9.11,-4.44,1.87,0.55,0.32,-0.27,-64.15,-12.66,22.85
15064,-8.87,-4.74,0.95,0.37,0.58,-0.33,-64.15,-12.66,22.85
15075,-8.87,-4.74,0.95,0.37,0.58,-0.33,-64.15,-12.66,22.85
15086,-8.91,-4.53,1.23,0.36,0.67,-0.32,-64.15,-12.66,22.85
15097,-9.18,-4.58,1.43,0.21,0.59,-0.15,-64.15,-12.66,22.85
15108,-9.18,-4.58,1.43,0.21,0.59,-0.15,-64.15,-12.66,22.85
15119,-9.19,-3.63,1.51,0.09,0.51,0.07,-64.15,-12.66,22.85
15130,-9.19,-3.63,1.51,0.09,0.51,0.07,-64.15,-12.66,22.85
15141,-8.85,-3.34,2.10,0.02,0.40,0.15,-65.55,-12.04,22.53
15152,-8.85,-3.34,2.10,0.02,0.40,0.15,-65.55,-12.04,22.53
15163,-8.96,-3.13,1.80,-0.13,0.24,0.17,-65.55,-12.04,22.53
15174,-8.96,-3.13,1.80,-0.13,0.24,0.17,-65.55,-12.04,22.53
15185,-8.59,-3.57,2.50,-0.19,0.06,0.10,-65.55,-12.04,22.53
15196,-8.59,-3.57,2.50,-0.19,0.06,0.10,-65.55,-12.04,22.53
15207,-8.66,-3.87,3.38,-0.36,-0.03,0.04,-65.55,-12.04,22.53
15218,-8.64,-4.86,2.74,-0.58,-0.02,0.02,-65.55,-12.04,22.53
15229,-8.64,-4.86,2.74,-0.58,-0.02,0.02,-65.55,-12.04,22.53
15240,-8.37,-4.37,2.57,-0.70,-0.14,0.15,-65.55,-12.04,22.53
15251,-8.37,-4.37,2.57,-0.70,-0.14,0.15,-65.55,-12.04,22.53
15262,-8.58,-4.70,2.54,-0.57,-0.25,0.25,-63.92,-12.50,21.74
15273,-8.58,-4.70,2.54,-0.57,-0.25,0.25,-63.92,-12.50,21.74
15284,-8.10,-4.58,1.87,-0.38,-0.27,0.30,-63.92,-12.50,21.74
15295,-8.10,-4.58,1.87,-0.38,-0.27,0.30,-63.92,-12.50,21.74
15306,-7.31,-4.87,2.51,-0.20,-0.35,0.32,-63.92,-12.50,21.74
15317,-7.31,-4.87,2.51,-0.20,-0.35,0.32,-63.92,-12.50,21.74
15328,-7.85,-4.89,2.09,-0.18,-0.43,0.32,-63.92,-12.50,21.74
15339,-7.35,-5.37,2.04,-0.24,-0.46,0.28,-63.92,-12.50,21.74
15350,-7.35,-5.37,2.04,-0.24,-0.46,0.28,-63.92,-12.50,21.74
15361,-8.47,-4.55,1.20,-0.31,-0.47,0.16,-63.92,-12.50,21.74
15372,-8.47,-4.55,1.20,-0.31,-0.47,0.16,-63.92,-12.50,21.74
15383,-8.42,-5.67,1.67,-0.10,-0.40,-0.01,-63.92,-12.50,21.74
15394,-8.42,-5.67,1.67,-0.10,-0.40,-0.01,-63.92,-12.50,21.74
15405,-8.18,-5.31,0.39,0.05,-0.33,-0.00,-62.99,-13.12,22.05
15416,-8.18,-5.31,0.39,0.05,-0.33,-0.00,-62.99,-13.12,22.05
15427,-8.28,-4.95,1.73,0.19,-0.32,0.02,-62.99,-13.12,22.05
15438,-8.67,-4.98,0.35,0.22,-0.13,-0.05,-62.99,-13.12,22.05
15449,-8.67,-4.98,0.35,0.22,-0.13,-0.05,-62.99,-13.12,22.05
15460,-8.83,-4.24,0.47,0.49,-0.02,-0.10,-62.99,-13.12,22.05
15471,-8.83,-4.24,0.47,0.49,-0.02,-0.10,-62.99,-13.12,22.05
15482,-8.55,-4.47,0.64,0.62,0.06,-0.20,-62.99,-13.12,22.05
15493,-8.55,-4.47,0.64,0.62,0.06,-0.20,-62.99,-13.12,22.05
15505,-8.83,-3.98,1.43,0.64,0.12,-0.23,-62.99,-13.12,22.05
15515,-8.83,-3.98,1.43,0.64,0.12,-0.23,-62.99,-13.12,22.05
15526,-8.58,-4.49,1.15,0.58,0.31,-0.27,-63.22,-12.35,22.85
15537,-8.58,-4.49,1.15,0.58,0.31,-0.27,-63.22,-12.35,22.85
15548,-9.32,-4.16,1.29,0.49,0.48,-0.24,-63.22,-12.35,22.85
15559,-9.09,-3.88,1.06,0.42,0.64,-0.20,-63.22,-12.35,22.85
15570,-9.09,-3.88,1.06,0.42,0.64,-0.20,-63.22,-12.35,22.85
15581,-9.10,-3.65,0.81,0.32,0.64,-0.18,-63.22,-12.35,22.85
15592,-9.10,-3.65,0.81,0.32,0.64,-0.18,-63.22,-12.35,22.85
15603,-9.26,-3.85,1.75,0.11,0.55,-0.13,-63.22,-12.35,22.85
15614,-9.26,-3.85,1.75,0.11,0.55,-0.13,-63.22,-12.35,22.85
15625,-9.35,-3.44,0.88,-0.14,0.49,-0.02,-63.22,-12.35,22.85
15636,-9.35,-3.44,0.88,-0.14,0.49,-0.02,-63.22,-12.35,22.85
15647,-8.98,-3.71,2.50,-0.19,0.34,0.11,-65.78,-11.89,21.74
15658,-8.87,-3.23,2.08,-0.36,0.20,0.15,-65.78,-11.89,21.74
15669,-8.87,-3.23,2.08,-0.36,0.20,0.15,-65.78,-11.89,21.74
15680,-9.30,-3.23,2.80,-0.47,0.05,0.17,-65.78,-11.89,21.74
15691,-9.30,-3.23,2.80,-0.47,0.05,0.17,-65.78,-11.89,21.74
15702,-8.83,-3.72,2.92,-0.69,-0.06,0.18,-65.78,-11.89,21.74
15713,-8.83,-3.72,2.92,-0.69,-0.06,0.18,-65.78,-11.89,21.74
15724,-8.49,-3.62,2.88,-0.82,-0.24,0.16,-65.78,-11.89,21.74
15735,-8.49,-3.62,2.88,-0.82,-0.24,0.16,-65.78,-11.89,21.74
15746,-8.13,-4.69,2.69,-0.69,-0.37,0.06,-65.78,-11.89,21.74
15757,-8.13,-4.69,2.69,-0.69,-0.37,0.06,-65.78,-11.89,21.74
15768,-8.05,-5.66,2.59,-0.58,-0.44,0.06,-65.78,-11.89,21.74
15779,-7.64,-6.22,2.21,-0.46,-0.48,0.17,-62.29,-12.35,22.21
15790,-7.64,-6.22,2.21,-0.46,-0.48,0.17,-62.29,-12.35,22.21
15801,-7.92,-5.77,1.59,-0.23,-0.51,0.29,-62.29,-12.35,22.21
15812,-7.92,-5.77,1.59,-0.23,-0.51,0.29,-62.29,-12.35,22.21
15823,-7.58,-5.39,1.88,0.15,-0.62,0.31,-62.29,-12.35,22.21
15834,-7.58,-5.39,1.88,0.15,-0.62,0.31,-62.29,-12.35,22.21
15845,-8.33,-4.51,2.34,0.25,-0.68,0.24,-62.29,-12.35,22.21
15856,-8.33,-4.51,2.34,0.25,-0.68,0.24,-62.29,-12.35,22.21
15867,-8.70,-4.55,2.63,0.15,-0.59,0.10,-62.29,-12.35,22.21
15878,-9.27,-4.71,1.06,-0.10,-0.31,-0.04,-62.29,-12.35,22.21
15889,-9.27,-4.71,1.06,-0.10,-0.31,-0.04,-62.29,-12.35,22.21
15900,-8.10,-4.50,0.73,-0.09,-0.14,-0.08,-63.69,-12.04,22.53
15911,-8.10,-4.50,0.73,-0.09,-0.14,-0.08,-63.69,-12.04,22.53
15922,-9.21,-4.28,0.76,0.06,-0.07,-0.11,-63.69,-12.04,22.53
15933,-9.21,-4.28,0.76,0.06,-0.07,-0.11,-63.69,-12.04,22.53
15944,-9.09,-4.06,0.88,0.09,0.08,-0.15,-63.69,-12.04,22.53
15955,-9.09,-4.06,0.88,0.09,0.08,-0.15,-63.69,-12.04,22.53
15966,-9.08,-3.77,-0.75,0.13,0.17,-0.19,-63.69,-12.04,22.53
15977,-9.08,-3.77,-0.75,0.13,0.17,-0.19,-63.69,-12.04,22.53
15988,-8.89,-3.65,1.17,0.44,0.05,-0.21,-63.69,-12.04,22.53
15999,-9.43,-4.04,1.92,0.46,0.13,-0.30,-63.69,-12.04,22.53
16010,-9.43,-4.04,1.92,0.46,0.13,-0.30,-63.69,-12.04,22.53
16021,-8.79,-4.44,1.77,0.29,0.33,-0.36,-62.52,-12.81,23.32
16032,-8.79,-4.44,1.77,0.29,0.33,-0.36,-62.52,-12.81,23.32
16043,-8.80,-5.48,1.65,0.27,0.48,-0.33,-62.52,-12.81,23.32
16054,-8.80,-5.48,1.65,0.27,0.48,-0.33,-62.52,-12.81,23.32
16065,-9.01,-5.04,1.13,0.22,0.54,-0.16,-62.52,-12.81,23.32
16076,-9.01,-5.04,1.13,0.22,0.54,-0.16,-62.52,-12.81,23.32
16087,-8.93,-4.18,1.62,0.21,0.52,-0.01,-62.52,-12.81,23.32
16098,-8.93,-3.95,2.04,-0.07,0.54,0.04,-62.52,-12.81,23.32
16109,-8.93,-3.95,2.04,-0.07,0.54,0.04,-62.52,-12.81,23.32
16120,-8.96,-3.73,1.09,-0.39,0.52,0.06,-62.52,-12.81,23.32
16131,-8.96,-3.73,1.09,-0.39,0.52,0.06,-62.52,-12.81,23.32
16142,-8.92,-3.40,1.19,-0.36,0.37,0.06,-64.15,-13.58,21.90
16153,-8.92,-3.40,1.19,-0.36,0.37,0.06,-64.15,-13.58,21.90
16164,-8.76,-3.97,1.22,-0.37,0.24,0.06,-64.15,-13.58,21.90
16175,-8.76,-3.97,1.22,-0.37,0.24,0.06,-64.15,-13.58,21.90
16186,-8.78,-3.97,1.78,-0.33,0.05,0.09,-64.15,-13.58,21.90
16197,-8.78,-3.97,1.78,-0.33,0.05,0.09,-64.15,-13.58,21.90
16208,-8.41,-4.16,0.89,-0.18,-0.14,0.08,-64.15,-13.58,21.90
16219,-9.17,-3.68,1.45,-0.02,-0.32,0.03,-64.15,-13.58,21.90
16230,-9.17,-3.68,1.45,-0.02,-0.32,0.03,-64.15,-13.58,21.90
16241,-12.56,-2.64,1.30,-0.08,-0.42,-0.28,-64.15,-13.58,21.90
16252,-12.56,-2.64,1.30,-0.08,-0.42,-0.28,-64.15,-13.58,21.90
16263,-11.91,-1.35,2.05,-0.94,-0.68,-1.20,-64.15,-13.58,21.90
16274,-11.91,-1.35,2.05,-0.94,-0.68,-1.20,-64.15,-13.58,21.90
16285,-8.59,-9.09,2.30,-1.00,-0.48,-2.01,-62.06,-13.73,20.47
16296,-8.59,-9.09,2.30,-1.00,-0.48,-2.01,-62.06,-13.73,20.47
16307,-6.93,-9.59,-0.80,-0.77,-0.28,-1.32,-62.06,-13.73,20.47
16318,-7.14,-8.08,-0.90,0.16,-0.67,-0.55,-62.06,-13.73,20.47
16329,-7.14,-8.08,-0.90,0.16,-0.67,-0.55,-62.06,-13.73,20.47
16340,-7.63,-7.65,1.44,1.01,-1.15,-0.26,-62.06,-13.73,20.47
16351,-7.63,-7.65,1.44,1.01,-1.15,-0.26,-62.06,-13.73,20.47
16362,-7.12,-8.28,2.59,1.24,-1.30,-0.23,-62.06,-13.73,20.47
16373,-7.12,-8.28,2.59,1.24,-1.30,-0.23,-62.06,-13.73,20.47
16384,-6.71,-7.90,3.27,0.68,-1.32,-0.25,-62.06,-13.73,20.47
16395,-6.71,-7.90,3.27,0.68,-1.32,-0.25,-62.06,-13.73,20.47
16406,-5.86,-7.76,4.24,0.05,-1.16,-0.43,-56.71,-16.65,25.39
16417,-5.86,-7.76,4.24,0.05,-1.16,-0.43,-56.71,-16.65,25.39
16428,-5.31,-8.25,3.90,-0.27,-0.74,-0.64,-56.71,-16.65,25.39
16439,-5.51,-7.79,2.43,0.02,-0.38,-0.65,-56.71,-16.65,25.39
16450,-5.51,-7.79,2.43,0.02,-0.38,-0.65,-56.71,-16.65,25.39
16461,-5.90,-7.10,2.58,0.90,-0.29,-0.60,-56.71,-16.65,25.39
16472,-5.90,-7.10,2.58,0.90,-0.29,-0.60,-56.71,-16.65,25.39
16483,-6.47,-6.24,3.73,1.52,-0.36,-0.64,-56.71,-16.65,25.39
16494,-6.47,-6.24,3.73,1.52,-0.36,-0.64,-56.71,-16.65,25.39
16505,-6.19,-6.31,4.60,1.73,-0.36,-0.79,-56.71,-16.65,25.39
16516,-6.19,-6.31,4.60,1.73,-0.36,-0.79,-56.71,-16.65,25.39
16527,-5.20,-6.01,4.47,1.59,-0.22,-0.91,-55.55,-17.42,28.72
16538,-5.20,-6.01,4.47,1.59,-0.22,-0.91,-55.55,-17.42,28.72
16549,-4.57,-5.96,3.77,1.67,-0.03,-1.02,-55.55,-17.42,28.72
16560,-3.68,-5.81,3.53,1.90,0.02,-1.13,-55.55,-17.42,28.72
16571,-3.68,-5.81,3.53,1.90,0.02,-1.13,-55.55,-17.42,28.72
16582,-3.20,-5.58,4.14,1.95,0.04,-1.20,-55.55,-17.42,28.72
16594,-3.20,-5.58,4.14,1.95,0.04,-1.20,-55.55,-17.42,28.72
16604,-2.61,-7.18,6.57,1.68,0.31,-1.17,-55.55,-17.42,28.72
16615,-2.61,-7.18,6.57,1.68,0.31,-1.17,-55.55,-17.42,28.72
16626,-3.52,-6.04,5.22,0.51,0.98,-0.79,-55.55,-17.42,28.72
16637,-3.52,-6.04,5.22,0.51,0.98,-0.79,-55.55,-17.42,28.72
16648,-4.93,-4.79,2.06,-0.05,1.52,-0.45,-55.55,-17.42,28.72
16659,-5.93,-4.58,0.12,-0.05,1.51,-0.34,-55.08,-14.04,30.63
16670,-5.93,-4.58,0.12,-0.05,1.51,-0.34,-55.08,-14.04,30.63
16681,-5.94,-2.95,-0.09,-0.37,0.91,-0.13,-55.08,-14.04,30.63
16692,-5.94,-2.95,-0.09,-0.37,0.91,-0.13,-55.08,-14.04,30.63
16703,-5.94,-2.35,0.78,-0.38,0.34,0.12,-55.08,-14.04,30.63
16714,-5.94,-2.35,0.78,-0.38,0.34,0.12,-55.08,-14.04,30.63
16725,-7.07,-2.33,1.69,-0.28,-0.07,0.55,-55.08,-14.04,30.63
16736,-7.07,-2.33,1.69,-0.28,-0.07,0.55,-55.08,-14.04,30.63
16747,-8.61,-1.57,1.08,-0.74,-0.41,0.96,-55.08,-14.04,30.63
16758,-8.61,-1.57,1.08,-0.74,-0.41,0.96,-55.08,-14.04,30.63
16769,-10.62,0.59,2.84,-0.62,-0.73,0.97,-55.08,-14.04,30.63
16780,-10.93,0.60,3.99,0.21,-0.78,0.30,-55.78,-13.89,29.83
16791,-10.93,0.60,3.99,0.21,-0.78,0.30,-55.78,-13.89,29.83
16802,-10.70,-2.95,4.79,0.97,-0.51,-0.70,-55.78,-13.89,29.83
16813,-10.70,-2.95,4.79,0.97,-0.51,-0.70,-55.78,-13.89,29.83
16824,-9.72,-10.71,6.21,1.76,-0.20,-1.00,-55.78,-13.89,29.83
16835,-9.72,-10.71,6.21,1.76,-0.20,-1.00,-55.78,-13.89,29.83
16846,-8.84,-8.08,4.76,0.59,0.05,-0.10,-55.78,-13.89,29.83
16857,-8.84,-8.08,4.76,0.59,0.05,-0.10,-55.78,-13.89,29.83
16868,-9.21,-6.42,4.30,0.33,0.23,0.20,-55.78,-13.89,29.83
16879,-8.88,-6.35,4.89,0.82,0.19,0.06,-55.78,-13.89,29.83
16890,-8.88,-6.35,4.89,0.82,0.19,0.06,-55.78,-13.89,29.83
16901,-8.33,-5.64,5.34,0.86,0.05,0.16,-54.38,-12.35,30.79
16912,-8.33,-5.64,5.34,0.86,0.05,0.16,-54.38,-12.35,30.79
16923,-7.75,-4.17,4.97,1.45,0.08,0.15,-54.38,-12.35,30.79
16934,-7.75,-4.17,4.97,1.45,0.08,0.15,-54.38,-12.35,30.79
16945,-6.32,-4.72,5.13,1.66,0.09,-0.08,-54.38,-12.35,30.79
16956,-6.32,-4.72,5.13,1.66,0.09,-0.08,-54.38,-12.35,30.79
16967,-6.50,-5.33,5.80,1.15,-0.00,-0.08,-54.38,-12.35,30.79
16978,-6.50,-5.33,5.80,1.15,-0.00,-0.08,-54.38,-12.35,30.79
16994,-6.38,-5.53,6.40,0.70,0.13,0.02,-54.38,-12.35,30.79
17000,-7.05,-5.47,5.39,0.53,0.39,0.20,-54.38,-12.35,30.79
17011,-7.05,-5.47,5.39,0.53,0.39,0.20,-54.38,-12.35,30.79
17022,-7.93,-4.67,4.87,0.59,0.57,0.41,-54.38,-12.35,30.79
17033,-7.93,-4.67,4.87,0.59,0.57,0.41,-54.38,-12.35,30.79
17044,-8.28,-3.34,4.08,0.61,0.56,0.41,-57.41,-7.90,30.31
17055,-8.28,-3.34,4.08,0.61,0.56,0.41,-57.41,-7.90,30.31
17067,-7.84,-4.21,5.02,0.93,0.50,0.25,-57.41,-7.90,30.31
17077,-7.84,-4.21,5.02,0.93,0.50,0.25,-57.41,-7.90,30.31
17088,-7.40,-4.84,6.08,0.40,0.54,0.22,-57.41,-7.90,30.31
17099,-7.20,-4.46,5.22,-0.79,0.73,0.34,-57.41,-7.90,30.31
17110,-7.20,-4.46,5.22,-0.79,0.73,0.34,-57.41,-7.90,30.31
17121,-7.38,-3.53,3.04,-1.53,0.80,0.28,-57.41,-7.90,30.31
17132,-7.38,-3.53,3.04,-1.53,0.80,0.28,-57.41,-7.90,30.31
17143,-8.54,-4.70,2.46,-1.31,0.60,0.05,-57.41,-7.90,30.31
17154,-8.54,-4.70,2.46,-1.31,0.60,0.05,-57.41,-7.90,30.31
17165,-7.30,-2.47,-0.09,-0.45,0.22,-0.02,-60.90,-7.13,28.25
17176,-7.30,-2.47,-0.09,-0.45,0.22,-0.02,-60.90,-7.13,28.25
17187,-7.50,-5.92,6.45,1.73,-0.11,-0.31,-60.90,-7.13,28.25
17198,-7.50,-5.92,6.45,1.73,-0.11,-0.31,-60.90,-7.13,28.25
17209,-7.57,-4.77,4.46,0.70,0.20,-0.11,-60.90,-7.13,28.25
17220,-8.16,-5.69,3.00,-0.01,0.25,-0.02,-60.90,-7.13,28.25
17231,-8.16,-5.69,3.00,-0.01,0.25,-0.02,-60.90,-7.13,28.25
17242,-6.89,-5.87,2.80,-0.26,-0.06,0.11,-60.90,-7.13,28.25
17253,-6.89,-5.87,2.80,-0.26,-0.06,0.11,-60.90,-7.13,28.25
17264,-7.29,-4.94,5.17,0.03,-0.10,0.32,-60.90,-7.13,28.25
17275,-7.29,-4.94,5.17,0.03,-0.10,0.32,-60.90,-7.13,28.25
17286,-7.76,-4.47,5.71,-0.36,0.17,0.39,-59.27,-6.06,29.36
17297,-7.76,-4.47,5.71,-0.36,0.17,0.39,-59.27,-6.06,29.36
17308,-7.92,-3.29,4.03,-0.71,0.46,0.26,-59.27,-6.06,29.36
17320,-8.45,-1.48,5.11,1.67,0.50,0.03,-59.27,-6.06,29.36
17330,-8.45,-1.48,5.11,1.67,0.50,0.03,-59.27,-6.06,29.36
17341,-8.17,-4.33,5.79,2.24,0.75,-0.33,-59.27,-6.06,29.36
17352,-8.17,-4.33,5.79,2.24,0.75,-0.33,-59.27,-6.06,29.36
17363,-7.07,-4.09,5.80,1.19,1.00,-0.43,-59.27,-6.06,29.36
17374,-7.07,-4.09,5.80,1.19,1.00,-0.43,-59.27,-6.06,29.36
17385,-7.70,-4.77,4.28,0.63,1.15,-0.50,-59.27,-6.06,29.36
17396,-7.70,-4.77,4.28,0.63,1.15,-0.50,-59.27,-6.06,29.36
17407,-7.91,-4.23,2.18,0.19,0.98,-0.37,-63.92,-5.14,26.18
17423,-7.91,-4.23,2.18,0.19,0.98,-0.37,-63.92,-5.14,26.18
17429,-7.92,-3.51,1.12,0.21,0.48,-0.21,-63.92,-5.14,26.18
17440,-7.76,-4.25,2.91,0.45,-0.12,-0.19,-63.92,-5.14,26.18
17451,-7.76,-4.25,2.91,0.45,-0.12,-0.19,-63.92,-5.14,26.18
17462,-8.13,-5.72,5.32,0.63,-0.35,-0.08,-63.92,-5.14,26.18
17473,-8.13,-5.72,5.32,0.63,-0.35,-0.08,-63.92,-5.14,26.18
17484,-7.97,-4.27,4.29,0.16,-0.25,0.12,-63.92,-5.14,26.18
17495,-7.97,-4.27,4.29,0.16,-0.25,0.12,-63.92,-5.14,26.18
17506,-7.38,-3.86,3.45,-0.07,-0.22,0.05,-63.92,-5.14,26.18
17517,-7.38,-3.86,3.45,-0.07,-0.22,0.05,-63.92,-5.14,26.18
17528,-6.91,-4.78,4.29,0.17,-0.15,-0.02,-63.92,-5.14,26.18
17539,-6.91,-4.78,4.29,0.17,-0.15,-0.02,-63.92,-5.14,26.18
17550,-7.43,-5.23,4.30,0.20,0.05,0.11,-62.29,-4.06,26.66
17561,-8.37,-5.46,3.81,0.04,0.13,0.26,-62.29,-4.06,26.66
17572,-8.37,-5.46,3.81,0.04,0.13,0.26,-62.29,-4.06,26.66
17583,-7.98,-5.54,3.92,0.02,0.05,0.30,-62.29,-4.06,26.66
17594,-7.98,-5.54,3.92,0.02,0.05,0.30,-62.29,-4.06,26.66
17605,-7.29,-5.70,4.11,0.25,0.03,0.34,-62.29,-4.06,26.66
17616,-7.29,-5.70,4.11,0.25,0.03,0.34,-62.29,-4.06,26.66
17627,-6.30,-5.59,3.61,0.58,0.08,0.53,-62.29,-4.06,26.66
17638,-6.30,-5.59,3.61,0.58,0.08,0.53,-62.29,-4.06,26.66
17649,-7.26,-5.85,4.08,1.03,0.07,0.76,-62.29,-4.06,26.66
17660,-8.44,-5.22,3.90,1.49,0.05,1.05,-62.06,-1.76,25.55
17671,-8.44,-5.22,3.90,1.49,0.05,1.05,-62.06,-1.76,25.55
17682,-8.73,-2.14,2.77,1.50,-0.19,1.13,-62.06,-1.76,25.55
17693,-8.73,-2.14,2.77,1.50,-0.19,1.13,-62.06,-1.76,25.55
17704,-7.83,0.18,3.23,1.42,-0.67,0.78,-62.06,-1.76,25.55
17715,-7.83,0.18,3.23,1.42,-0.67,0.78,-62.06,-1.76,25.55
17726,-8.04,-0.29,7.09,1.90,-0.79,0.50,-62.06,-1.76,25.55
17737,-8.04,-0.29,7.09,1.90,-0.79,0.50,-62.06,-1.76,25.55
17748,-8.15,-0.35,6.75,1.17,-0.16,0.47,-62.06,-1.76,25.55
17759,-8.15,-0.35,6.75,1.17,-0.16,0.47,-62.06,-1.76,25.55
17770,-9.08,-0.06,3.72,0.32,0.41,0.50,-62.06,-1.76,25.55
17781,-10.20,0.98,2.95,0.17,0.29,0.44,-62.76,5.15,26.66
17792,-10.20,0.98,2.95,0.17,0.29,0.44,-62.76,5.15,26.66
17803,-9.28,2.01,4.56,-0.17,-0.18,0.16,-62.76,5.15,26.66
17814,-9.28,2.01,4.56,-0.17,-0.18,0.16,-62.76,5.15,26.66
17825,-8.60,-0.56,6.06,-0.48,-0.22,-0.37,-62.76,5.15,26.66
17836,-8.60,-0.56,6.06,-0.48,-0.22,-0.37,-62.76,5.15,26.66
17847,-7.80,-3.24,4.51,-0.85,0.04,-0.52,-62.76,5.15,26.66
17858,-7.80,-3.24,4.51,-0.85,0.04,-0.52,-62.76,5.15,26.66
17869,-7.55,-4.23,3.73,-0.62,0.07,-0.29,-62.76,5.15,26.66
17880,-8.06,-3.50,5.03,-0.18,-0.08,-0.05,-62.76,5.15,26.66
17891,-8.06,-3.50,5.03,-0.18,-0.08,-0.05,-62.76,5.15,26.66
17902,-8.09,-2.66,5.58,-0.14,-0.12,-0.02,-62.76,5.15,26.66
17913,-8.09,-2.66,5.58,-0.14,-0.12,-0.02,-62.76,5.15,26.66
17924,-7.58,-3.03,5.05,-0.16,-0.03,-0.07,-62.76,2.69,27.29
17935,-7.58,-3.03,5.05,-0.16,-0.03,-0.07,-62.76,2.69,27.29
17946,-7.59,-2.38,4.59,-0.06,0.04,0.01,-62.76,2.69,27.29
17957,-7.59,-2.38,4.59,-0.06,0.04,0.01,-62.76,2.69,27.29
17968,-8.59,-2.17,5.04,0.09,0.06,0.01,-62.76,2.69,27.29
17979,-8.59,-2.17,5.04,0.09,0.06,0.01,-62.76,2.69,27.29
17990,-9.12,-2.17,4.55,-0.09,0.02,-0.03,-62.76,2.69,27.29
18001,-8.29,-1.80,4.42,-0.26,-0.11,-0.06,-62.76,2.69,27.29
18012,-8.29,-1.80,4.42,-0.26,-0.11,-0.06,-62.76,2.69,27.29
18023,-7.70,-1.72,5.03,-0.25,-0.14,-0.11,-62.76,2.69,27.29
18034,-7.70,-1.72,5.03,-0.25,-0.14,-0.11,-62.76,2.69,27.29
18045,-7.70,-2.56,5.14,-0.23,0.02,-0.17,-62.29,3.31,27.29
18056,-7.70,-2.56,5.14,-0.23,0.02,-0.17,-62.29,3.31,27.29
18067,-8.59,-3.30,4.35,-0.19,0.13,-0.16,-62.29,3.31,27.29
18078,-8.59,-3.30,4.35,-0.19,0.13,-0.16,-62.29,3.31,27.29
18089,-8.44,-3.28,4.38,-0.14,-0.03,-0.10,-62.29,3.31,27.29
18100,-7.61,-2.59,4.96,-0.08,-0.14,-0.04,-62.29,3.31,27.29
18111,-7.61,-2.59,4.96,-0.08,-0.14,-0.04,-62.29,3.31,27.29
18122,-7.79,-2.25,5.17,-0.07,-0.04,-0.06,-62.29,3.31,27.29
18133,-7.79,-2.25,5.17,-0.07,-0.04,-0.06,-62.29,3.31,27.29
18144,-8.17,-2.74,4.94,-0.12,0.09,-0.13,-62.29,3.31,27.29
18155,-8.17,-2.74,4.94,-0.12,0.09,-0.13,-62.29,3.31,27.29
18166,-8.62,-3.15,4.36,-0.19,0.10,-0.15,-62.29,0.54,26.66
18177,-8.62,-3.15,4.36,-0.19,0.10,-0.15,-62.29,0.54,26.66
18188,-8.21,-2.62,4.13,-0.14,-0.04,-0.11,-62.29,0.54,26.66
18199,-8.21,-2.62,4.13,-0.14,-0.04,-0.11,-62.29,0.54,26.66
18210,-8.02,-2.38,4.94,-0.05,-0.14,-0.13,-62.29,0.54,26.66
18221,-7.80,-2.99,5.10,-0.11,-0.07,-0.16,-62.29,0.54,26.66
18232,-7.80,-2.99,5.10,-0.11,-0.07,-0.16,-62.29,0.54,26.66
18243,-8.04,-3.22,4.55,-0.15,0.03,-0.13,-62.29,0.54,26.66
18254,-8.04,-3.22,4.55,-0.15,0.03,-0.13,-62.29,0.54,26.66
18265,-8.28,-3.47,4.53,-0.06,-0.01,-0.10,-62.29,0.54,26.66
18276,-8.28,-3.47,4.53,-0.06,-0.01,-0.10,-62.29,0.54,26.66
18287,-7.99,-2.91,4.48,0.01,-0.08,-0.05,-62.29,0.54,26.66
18298,-7.99,-2.91,4.48,0.01,-0.08,-0.05,-62.29,0.54,26.66
18309,-7.90,-2.75,5.02,0.02,-0.10,-0.06,-62.29,1.46,28.25
18320,-8.40,-2.80,4.73,-0.04,-0.03,-0.07,-62.29,1.46,28.25
18331,-8.40,-2.80,4.73,-0.04,-0.03,-0.07,-62.29,1.46,28.25
18342,-7.88,-3.05,4.68,-0.10,-0.06,-0.12,-62.29,1.46,28.25
18353,-7.88,-3.05,4.68,-0.10,-0.06,-0.12,-62.29,1.46,28.25
18364,-7.99,-3.20,4.73,-0.03,-0.05,-0.10,-62.29,1.46,28.25
18375,-7.99,-3.20,4.73,-0.03,-0.05,-0.10,-62.29,1.46,28.25
18386,-8.27,-3.06,4.64,-0.00,-0.07,-0.08,-62.29,1.46,28.25
18397,-8.27,-3.06,4.64,-0.00,-0.07,-0.08,-62.29,1.46,28.25
18408,-8.21,-2.97,4.68,-0.02,-0.13,-0.10,-62.29,1.46,28.25
18419,-8.21,-2.97,4.68,-0.02,-0.13,-0.10,-62.29,1.46,28.25
18430,-7.84,-3.11,4.85,-0.04,-0.15,-0.13,-60.66,0.70,28.09
18442,-7.42,-3.58,4.95,-0.07,-0.12,-0.08,-60.66,0.70,28.09
18452,-7.42,-3.58,4.95,-0.07,-0.12,-0.08,-60.66,0.70,28.09
18463,-8.02,-3.59,4.86,-0.04,-0.03,0.04,-60.66,0.70,28.09
18474,-8.02,-3.59,4.86,-0.04,-0.03,0.04,-60.66,0.70,28.09
18485,-8.15,-3.47,4.69,0.01,-0.05,0.06,-60.66,0.70,28.09
18496,-8.15,-3.47,4.69,0.01,-0.05,0.06,-60.66,0.70,28.09
18507,-7.88,-3.16,4.93,0.03,-0.12,0.03,-60.66,0.70,28.09
18518,-7.88,-3.16,4.93,0.03,-0.12,0.03,-60.66,0.70,28.09
18529,-7.70,-3.05,5.10,0.01,-0.11,0.05,-60.66,0.70,28.09
18540,-7.70,-3.05,5.10,0.01,-0.11,0.05,-60.66,0.70,28.09
18551,-7.47,-2.59,4.82,-0.03,-0.05,0.07,-60.43,-0.07,27.93
18562,-7.77,-2.94,5.04,0.02,0.01,0.05,-60.43,-0.07,27.93
18573,-7.77,-2.94,5.04,0.02,0.01,0.05,-60.43,-0.07,27.93
18584,-8.38,-3.54,4.61,0.05,0.05,0.06,-60.43,-0.07,27.93
18595,-8.38,-3.54,4.61,0.05,0.05,0.06,-60.43,-0.07,27.93
18606,-8.20,-3.09,4.38,0.07,-0.06,0.10,-60.43,-0.07,27.93
18617,-8.20,-3.09,4.38,0.07,-0.06,0.10,-60.43,-0.07,27.93
18628,-7.80,-2.78,5.18,0.11,-0.15,0.09,-60.43,-0.07,27.93
18639,-7.80,-2.78,5.18,0.11,-0.15,0.09,-60.43,-0.07,27.93
18650,-7.87,-2.61,5.21,0.01,-0.07,0.04,-60.43,-0.07,27.93
18661,-8.03,-2.76,4.85,-0.12,-0.01,-0.03,-59.96,-0.07,28.56
18672,-8.03,-2.76,4.85,-0.12,-0.01,-0.03,-59.96,-0.07,28.56
18683,-7.91,-3.13,4.75,-0.12,-0.05,-0.06,-59.96,-0.07,28.56
18694,-7.91,-3.13,4.75,-0.12,-0.05,-0.06,-59.96,-0.07,28.56
18705,-8.04,-3.04,4.74,-0.07,-0.10,-0.05,-59.96,-0.07,28.56
18716,-8.04,-3.04,4.74,-0.07,-0.10,-0.05,-59.96,-0.07,28.56
18727,-7.76,-3.01,4.99,-0.04,-0.14,-0.06,-59.96,-0.07,28.56
18738,-7.76,-3.01,4.99,-0.04,-0.14,-0.06,-59.96,-0.07,28.56
18749,-7.54,-2.85,5.09,-0.07,-0.12,-0.05,-59.96,-0.07,28.56
18760,-7.54,-2.85,5.09,-0.07,-0.12,-0.05,-59.96,-0.07,28.56
18771,-7.86,-2.83,4.98,-0.09,-0.06,-0.06,-59.96,-0.07,28.56
18782,-8.13,-3.35,4.81,-0.09,-0.08,-0.09,-59.96,-0.07,28.56
18793,-8.13,-3.35,4.81,-0.09,-0.08,-0.09,-59.96,-0.07,28.56
18804,-7.90,-3.75,4.86,-0.05,-0.13,-0.08,-61.13,0.08,29.99
18815,-7.90,-3.75,4.86,-0.05,-0.13,-0.08,-61.13,0.08,29.99
18826,-7.58,-3.34,4.97,0.00,-0.14,-0.02,-61.13,0.08,29.99
18837,-7.58,-3.34,4.97,0.00,-0.14,-0.02,-61.13,0.08,29.99
18848,-7.13,-3.08,5.33,0.01,-0.12,-0.00,-61.13,0.08,29.99
18859,-7.13,-3.08,5.33,0.01,-0.12,-0.00,-61.13,0.08,29.99
18871,-7.26,-2.86,5.27,-0.05,-0.02,0.01,-61.13,0.08,29.99
18881,-7.92,-3.23,5.12,-0.02,0.07,-0.01,-61.13,0.08,29.99
18892,-7.92,-3.23,5.12,-0.02,0.07,-0.01,-61.13,0.08,29.99
18903,-8.21,-3.47,4.76,-0.04,0.05,-0.03,-61.13,0.08,29.99
18914,-8.21,-3.47,4.76,-0.04,0.05,-0.03,-61.13,0.08,29.99
18925,-7.74,-3.35,4.81,-0.04,-0.06,-0.03,-58.34,-0.53,30.31
18936,-7.74,-3.35,4.81,-0.04,-0.06,-0.03,-58.34,-0.53,30.31
18947,-7.39,-2.95,5.12,-0.03,-0.08,0.00,-58.34,-0.53,30.31
18958,-7.39,-2.95,5.12,-0.03,-0.08,0.00,-58.34,-0.53,30.31
18969,-7.43,-2.76,5.23,-0.05,-0.00,-0.01,-58.34,-0.53,30.31
18980,-7.43,-2.76,5.23,-0.05,-0.00,-0.01,-58.34,-0.53,30.31
18991,-8.02,-3.20,5.02,-0.07,0.07,-0.07,-58.34,-0.53,30.31
19002,-8.33,-3.57,4.82,-0.10,0.02,-0.09,-58.34,-0.53,30.31
19013,-8.33,-3.57,4.82,-0.10,0.02,-0.09,-58.34,-0.53,30.31
19024,-7.91,-3.34,4.70,-0.08,-0.09,-0.09,-58.34,-0.53,30.31
19035,-7.91,-3.34,4.70,-0.08,-0.09,-0.09,-58.34,-0.53,30.31
19046,-7.45,-3.27,4.98,0.07,-0.14,-0.09,-59.96,0.24,31.74
19057,-7.45,-3.27,4.98,0.07,-0.14,-0.09,-59.96,0.24,31.74
19068,-6.82,-3.22,8.79,-0.08,-0.07,-0.06,-59.96,0.24,31.74
19079,-6.82,-3.22,8.79,-0.08,-0.07,-0.06,-59.96,0.24,31.74
19090,-7.20,-3.42,6.34,-1.03,0.51,-0.10,-59.96,0.24,31.74
19101,-8.67,-4.02,2.93,-0.90,0.85,-0.21,-59.96,0.24,31.74
19112,-8.67,-4.02,2.93,-0.90,0.85,-0.21,-59.96,0.24,31.74
19123,-9.09,-3.84,3.43,-0.60,0.46,-0.31,-59.96,0.24,31.74
19134,-9.09,-3.84,3.43,-0.60,0.46,-0.31,-59.96,0.24,31.74
19145,-7.64,-4.43,5.61,-1.10,0.11,-0.32,-59.96,0.24,31.74
19156,-7.64,-4.43,5.61,-1.10,0.11,-0.32,-59.96,0.24,31.74
19167,-6.73,-4.13,5.61,-1.47,0.44,-0.13,-59.96,0.24,31.74
19178,-6.73,-4.13,5.61,-1.47,0.44,-0.13,-59.96,0.24,31.74
19189,-7.66,-4.19,4.59,-1.59,0.75,0.08,-60.90,-5.60,27.93
19200,-7.66,-4.19,4.59,-1.59,0.75,0.08,-60.90,-5.60,27.93
19211,-8.20,-3.90,2.87,-1.81,0.69,0.04,-60.90,-5.60,27.93
19222,-8.31,-4.49,2.42,-2.36,0.32,-0.22,-60.90,-5.60,27.93
19233,-8.31,-4.49,2.42,-2.36,0.32,-0.22,-60.90,-5.60,27.93
19244,-7.94,-5.30,3.26,-2.70,0.10,-0.27,-60.90,-5.60,27.93
19255,-7.94,-5.30,3.26,-2.70,0.10,-0.27,-60.90,-5.60,27.93
19266,-8.00,-4.89,2.61,-1.84,0.28,0.02,-60.90,-5.60,27.93
19277,-8.00,-4.89,2.61,-1.84,0.28,0.02,-60.90,-5.60,27.93
19288,-7.75,-4.90,2.65,-1.70,0.30,0.07,-60.90,-5.60,27.93
19299,-7.75,-4.90,2.65,-1.70,0.30,0.07,-60.90,-5.60,27.93
19310,-7.47,-3.71,1.84,-1.74,0.23,0.08,-64.85,-12.20,23.96
19321,-8.30,-4.91,2.04,-0.88,0.08,0.10,-64.85,-12.20,23.96
19332,-8.30,-4.91,2.04,-0.88,0.08,0.10,-64.85,-12.20,23.96
19343,-8.45,-5.57,2.23,0.06,0.09,0.20,-64.85,-12.20,23.96
19354,-8.45,-5.57,2.23,0.06,0.09,0.20,-64.85,-12.20,23.96
19365,-8.97,-4.93,3.06,0.16,0.05,0.28,-64.85,-12.20,23.96
19376,-8.97,-4.93,3.06,0.16,0.05,0.28,-64.85,-12.20,23.96
19387,-8.94,-5.06,3.03,-0.21,0.14,0.23,-64.85,-12.20,23.96
19398,-8.94,-5.06,3.03,-0.21,0.14,0.23,-64.85,-12.20,23.96
19409,-9.28,-5.36,3.10,-0.30,0.26,0.22,-64.85,-12.20,23.96
19420,-9.28,-5.36,3.10,-0.30,0.26,0.22,-64.85,-12.20,23.96
19431,-8.58,-4.75,2.39,-0.36,0.37,0.34,-64.85,-12.81,23.96
19442,-8.16,-3.95,1.99,-0.04,0.44,0.39,-64.85,-12.81,23.96
19453,-8.16,-3.95,1.99,-0.04,0.44,0.39,-64.85,-12.81,23.96
19464,-8.49,-3.99,1.87,-0.13,0.43,0.25,-64.85,-12.81,23.96
19475,-8.49,-3.99,1.87,-0.13,0.43,0.25,-64.85,-12.81,23.96
19486,-8.64,-4.44,2.34,-0.32,0.39,0.07,-64.85,-12.81,23.96
19497,-8.64,-4.44,2.34,-0.32,0.39,0.07,-64.85,-12.81,23.96
19508,-8.55,-4.79,2.60,-0.38,0.49,-0.06,-64.85,-12.81,23.96
19519,-8.55,-4.79,2.60,-0.38,0.49,-0.06,-64.85,-12.81,23.96
19530,-8.08,-4.54,1.92,-0.34,0.67,-0.12,-64.85,-12.81,23.96
19541,-8.08,-4.54,1.92,-0.34,0.67,-0.12,-64.85,-12.81,23.96
19552,-7.96,-5.32,0.39,-0.16,0.71,-0.19,-64.85,-12.81,23.96
19563,-8.33,-5.00,0.53,0.05,0.50,-0.17,-68.57,-12.20,21.74
19574,-8.33,-5.00,0.53,0.05,0.50,-0.17,-68.57,-12.20,21.74
19585,-9.86,-4.85,1.75,0.51,0.33,-0.19,-68.57,-12.20,21.74
19596,-9.86,-4.85,1.75,0.51,0.33,-0.19,-68.57,-12.20,21.74
19607,-9.60,-6.86,2.57,0.64,0.48,0.04,-68.57,-12.20,21.74
19618,-9.60,-6.86,2.57,0.64,0.48,0.04,-68.57,-12.20,21.74
19629,-9.45,-5.94,2.38,0.23,-0.10,0.47,-68.57,-12.20,21.74
19640,-9.45,-5.94,2.38,0.23,-0.10,0.47,-68.57,-12.20,21.74
19651,-8.67,-5.12,1.76,0.17,-0.47,0.43,-68.57,-12.20,21.74
19662,-8.45,-5.01,1.24,0.24,-0.27,-0.17,-68.57,-12.20,21.74
19674,-8.45,-5.01,1.24,0.24,-0.27,-0.17,-68.57,-12.20,21.74
19684,-8.50,-4.26,1.46,0.26,0.24,-0.51,-68.34,-12.35,21.26
19695,-8.50,-4.26,1.46,0.26,0.24,-0.51,-68.34,-12.35,21.26
19706,-9.30,-4.27,2.55,0.10,0.69,-0.23,-68.34,-12.35,21.26
19717,-9.30,-4.27,2.55,0.10,0.69,-0.23,-68.34,-12.35,21.26
19728,-10.56,-6.27,3.00,-0.15,0.63,0.44,-68.34,-12.35,21.26
19739,-10.56,-6.27,3.00,-0.15,0.63,0.44,-68.34,-12.35,21.26
19750,-10.48,-5.67,3.37,-0.53,0.33,0.66,-68.34,-12.35,21.26
19761,-10.48,-5.67,3.37,-0.53,0.33,0.66,-68.34,-12.35,21.26
19772,-8.74,-4.52,1.68,-0.60,0.13,0.01,-68.34,-12.35,21.26
19783,-7.74,-4.30,0.71,-0.53,-0.20,-0.68,-68.34,-12.35,21.26
19794,-7.74,-4.30,0.71,-0.53,-0.20,-0.68,-68.34,-12.35,21.26
19805,-7.10,-4.12,0.11,-0.66,-0.21,-0.79,-68.57,-14.04,19.51
19816,-7.10,-4.12,0.11,-0.66,-0.21,-0.79,-68.57,-14.04,19.51
19827,-6.30,-3.81,-0.35,-0.76,0.43,-0.46,-68.57,-14.04,19.51
19838,-6.30,-3.81,-0.35,-0.76,0.43,-0.46,-68.57,-14.04,19.51
19849,-7.80,-6.61,-0.76,-1.44,1.35,-0.11,-68.57,-14.04,19.51
19860,-7.80,-6.61,-0.76,-1.44,1.35,-0.11,-68.57,-14.04,19.51
19871,-9.83,-8.73,0.78,-2.40,2.02,0.24,-68.57,-14.04,19.51
19882,-7.20,-4.61,-0.78,-3.08,2.35,-0.07,-68.57,-14.04,19.51
19893,-7.20,-4.61,-0.78,-3.08,2.35,-0.07,-68.57,-14.04,19.51
19904,-4.53,-2.49,-3.17,-2.59,2.16,-0.63,-68.57,-14.04,19.51
19915,-4.53,-2.49,-3.17,-2.59,2.16,-0.63,-68.57,-14.04,19.51
19927,-5.01,-3.47,-2.42,-1.59,1.52,-0.34,-70.90,-18.34,9.04
19937,-5.01,-3.47,-2.42,-1.59,1.52,-0.34,-70.90,-18.34,9.04
19948,-6.26,-3.83,-1.02,-0.68,1.31,0.86,-70.90,-18.34,9.04
19959,-6.26,-3.83,-1.02,-0.68,1.31,0.86,-70.90,-18.34,9.04
19970,-6.46,-4.32,-2.61,0.01,1.41,1.45,-70.90,-18.34,9.04
19981,-6.46,-4.32,-2.61,0.01,1.41,1.45,-70.90,-18.34,9.04
19992,-6.98,-4.81,-3.23,-0.19,1.25,1.18,-70.90,-18.34,9.04
20003,-6.22,-3.67,-3.26,-0.76,1.34,0.86,-70.90,-18.34,9.04
20014,-6.22,-3.67,-3.26,-0.76,1.34,0.86,-70.90,-18.34,9.04
20025,-7.34,-4.02,-2.50,-0.90,1.69,0.99,-70.90,-18.34,9.04
20036,-7.34,-4.02,-2.50,-0.90,1.69,0.99,-70.90,-18.34,9.04
20047,-9.58,-5.58,-0.93,-0.86,1.66,1.41,-70.90,-18.34,9.04
20058,-9.58,-5.58,-0.93,-0.86,1.66,1.41,-70.90,-18.34,9.04
20069,-8.53,-3.52,-2.09,-1.06,1.05,1.40,-74.62,-12.20,1.10
20080,-8.53,-3.52,-2.09,-1.06,1.05,1.40,-74.62,-12.20,1.10
20091,-6.75,-0.68,-4.43,-1.96,0.02,0.80,-74.62,-12.20,1.10
20102,-6.97,-1.10,-4.42,-2.59,-0.61,0.66,-74.62,-12.20,1.10
20113,-6.97,-1.10,-4.42,-2.59,-0.61,0.66,-74.62,-12.20,1.10
20124,-8.27,-1.02,-3.23,-1.78,-0.05,1.54,-74.62,-12.20,1.10
20135,-8.27,-1.02,-3.23,-1.78,-0.05,1.54,-74.62,-12.20,1.10
20146,-9.21,-1.01,-4.14,-0.55,0.90,2.23,-74.62,-12.20,1.10
20158,-9.21,-1.01,-4.14,-0.55,0.90,2.23,-74.62,-12.20,1.10
20168,-9.64,-0.36,-5.29,-0.16,1.25,2.06,-74.62,-12.20,1.10
20179,-9.64,-0.36,-5.29,-0.16,1.25,2.06,-74.62,-12.20,1.10
20190,-8.97,-0.04,-5.97,-0.73,1.07,1.45,-74.39,-6.52,-2.55
20201,-8.97,-0.04,-5.97,-0.73,1.07,1.45,-74.39,-6.52,-2.55
20212,-8.51,0.32,-6.15,-1.62,1.06,1.27,-74.39,-6.52,-2.55
20223,-7.92,-0.39,-6.17,-0.99,1.58,1.82,-74.39,-6.52,-2.55
20234,-7.92,-0.39,-6.17,-0.99,1.58,1.82,-74.39,-6.52,-2.55
20245,-7.53,-0.52,-6.06,-0.23,1.99,2.32,-74.39,-6.52,-2.55
20256,-7.53,-0.52,-6.06,-0.23,1.99,2.32,-74.39,-6.52,-2.55
20267,-6.82,-0.16,-6.32,-0.57,2.03,2.03,-74.39,-6.52,-2.55
20278,-6.82,-0.16,-6.32,-0.57,2.03,2.03,-74.39,-6.52,-2.55
20289,-6.30,0.26,-7.39,-1.40,1.98,1.44,-74.39,-6.52,-2.55
20300,-6.30,0.26,-7.39,-1.40,1.98,1.44,-74.39,-6.52,-2.55
20311,-7.04,-0.10,-7.35,-1.46,1.98,1.22,-74.62,5.92,-11.29
20322,-7.64,-0.44,-7.51,-0.95,2.15,1.25,-74.62,5.92,-11.29
20333,-7.64,-0.44,-7.51,-0.95,2.15,1.25,-74.62,5.92,-11.29
20344,-7.70,-0.06,-7.67,-0.71,2.25,1.03,-74.62,5.92,-11.29
20355,-7.70,-0.06,-7.67,-0.71,2.25,1.03,-74.62,5.92,-11.29
20366,-7.22,0.77,-7.65,-0.81,2.03,0.70,-74.62,5.92,-11.29
20377,-7.22,0.77,-7.65,-0.81,2.03,0.70,-74.62,5.92,-11.29
20388,-7.63,0.16,-8.17,-0.73,1.82,0.41,-74.62,5.92,-11.29
20399,-7.63,0.16,-8.17,-0.73,1.82,0.41,-74.62,5.92,-11.29
20410,-8.01,0.04,-8.22,-0.84,1.70,0.14,-74.62,5.92,-11.29
20421,-8.01,0.04,-8.22,-0.84,1.70,0.14,-74.62,5.92,-11.29
20432,-6.43,1.49,-8.60,-0.81,1.79,-0.25,-74.62,5.92,-11.29
20443,-5.34,2.20,-8.84,-0.34,1.60,-0.38,-67.87,9.45,-20.02
20454,-5.34,2.20,-8.84,-0.34,1.60,-0.38,-67.87,9.45,-20.02
20465,-5.40,2.33,-8.13,-0.15,1.17,-0.09,-67.87,9.45,-20.02
20476,-5.40,2.33,-8.13,-0.15,1.17,-0.09,-67.87,9.45,-20.02
20487,-6.33,0.91,-7.78,0.06,0.88,0.35,-67.87,9.45,-20.02
20498,-6.33,0.91,-7.78,0.06,0.88,0.35,-67.87,9.45,-20.02
20509,-6.55,1.30,-7.98,-0.14,0.66,0.42,-67.87,9.45,-20.02
20520,-6.55,1.30,-7.98,-0.14,0.66,0.42,-67.87,9.45,-20.02
20531,-5.90,1.86,-8.59,-0.12,0.61,-0.09,-67.87,9.45,-20.02
20542,-5.90,1.86,-8.59,-0.12,0.61,-0.09,-67.87,9.45,-20.02
20553,-5.18,2.61,-9.10,-0.23,0.56,-0.44,-67.87,9.45,-20.02
20564,-5.44,2.10,-9.43,-0.26,0.62,-0.14,-66.01,10.06,-21.61
20575,-5.44,2.10,-9.43,-0.26,0.62,-0.14,-66.01,10.06,-21.61
20586,-6.29,1.14,-9.21,0.08,0.73,0.40,-66.01,10.06,-21.61
20597,-6.29,1.14,-9.21,0.08,0.73,0.40,-66.01,10.06,-21.61
20608,-6.18,1.26,-9.36,-0.12,0.89,0.21,-66.01,10.06,-21.61
20619,-6.18,1.26,-9.36,-0.12,0.89,0.21,-66.01,10.06,-21.61
20630,-5.32,2.59,-9.75,-0.56,1.04,-0.52,-66.01,10.06,-21.61
20641,-5.32,2.59,-9.75,-0.56,1.04,-0.52,-66.01,10.06,-21.61
20652,-5.04,2.67,-9.77,-0.74,1.00,-0.72,-66.01,10.06,-21.61
20663,-5.01,2.53,-9.60,-0.65,0.96,-0.18,-66.01,10.06,-21.61
20675,-5.01,2.53,-9.60,-0.65,0.96,-0.18,-66.01,10.06,-21.61
20685,-4.98,2.20,-9.75,-0.53,1.07,0.22,-61.36,10.06,-25.42
20696,-4.98,2.20,-9.75,-0.53,1.07,0.22,-61.36,10.06,-25.42
20707,-4.85,2.04,-9.82,-0.39,1.08,0.08,-61.36,10.06,-25.42
20718,-4.85,2.04,-9.82,-0.39,1.08,0.08,-61.36,10.06,-25.42
20729,-4.54,2.55,-9.79,-0.35,0.99,-0.20,-61.36,10.06,-25.42
20740,-4.54,2.55,-9.79,-0.35,0.99,-0.20,-61.36,10.06,-25.42
20751,-3.98,3.36,-9.57,-0.24,0.89,-0.26,-61.36,10.06,-25.42
20762,-3.98,3.36,-9.57,-0.24,0.89,-0.26,-61.36,10.06,-25.42
20773,-3.93,3.02,-9.50,-0.15,0.78,-0.10,-61.36,10.06,-25.42
20784,-3.93,2.27,-9.48,-0.03,0.66,0.07,-61.36,10.06,-25.42
20795,-3.93,2.27,-9.48,-0.03,0.66,0.07,-61.36,10.06,-25.42
20806,-4.06,1.42,-9.25,-0.20,0.61,0.15,-61.36,10.06,-25.42
20817,-4.06,1.42,-9.25,-0.20,0.61,0.15,-61.36,10.06,-25.42
20828,-4.63,0.80,-9.19,-0.91,0.64,0.01,-57.64,12.21,-28.91
20839,-4.63,0.80,-9.19,-0.91,0.64,0.01,-57.64,12.21,-28.91
20850,-3.79,3.02,-9.12,-1.37,0.72,-0.16,-57.64,12.21,-28.91
20861,-3.79,3.02,-9.12,-1.37,0.72,-0.16,-57.64,12.21,-28.91
20872,-2.33,5.01,-9.65,-0.85,0.83,-0.26,-57.64,12.21,-28.91
20883,-2.14,4.58,-9.78,0.10,0.70,-0.02,-57.64,12.21,-28.91
20894,-2.14,4.58,-9.78,0.10,0.70,-0.02,-57.64,12.21,-28.91
20905,-2.50,2.18,-10.31,0.28,0.54,0.15,-57.64,12.21,-28.91
20916,-2.50,2.18,-10.31,0.28,0.54,0.15,-57.64,12.21,-28.91
20927,-3.59,0.79,-9.88,-0.11,0.39,0.30,-57.64,12.21,-28.91
20938,-3.59,0.79,-9.88,-0.11,0.39,0.30,-57.64,12.21,-28.91
20949,-4.65,2.78,-9.71,-1.42,0.15,0.55,-55.78,12.21,-29.55
20960,-4.65,2.78,-9.71,-1.42,0.15,0.55,-55.78,12.21,-29.55
20971,-2.73,5.66,-9.41,-2.15,-0.02,0.49,-55.78,12.21,-29.55
20982,-2.73,5.66,-9.41,-2.15,-0.02,0.49,-55.78,12.21,-29.55
20993,-1.56,4.97,-9.35,-1.43,-0.11,0.32,-55.78,12.21,-29.55
21004,-1.76,3.92,-9.82,-0.72,-0.13,0.28,-55.78,12.21,-29.55
21015,-1.76,3.92,-9.82,-0.72,-0.13,0.28,-55.78,12.21,-29.55
21026,-2.74,1.90,-5.81,-0.78,-0.11,0.39,-55.78,12.21,-29.55
21037,-2.74,1.90,-5.81,-0.78,-0.11,0.39,-55.78,12.21,-29.55
21048,-3.86,4.51,-6.63,-3.55,0.21,0.50,-55.78,12.21,-29.55
21059,-3.86,4.51,-6.63,-3.55,0.21,0.50,-55.78,12.21,-29.55
21070,-4.55,9.90,-9.55,-2.68,0.17,0.49,-53.68,21.88,-24.62
21081,-4.55,9.90,-9.55,-2.68,0.17,0.49,-53.68,21.88,-24.62
21092,-2.27,6.41,-8.25,1.59,-0.05,0.39,-53.68,21.88,-24.62
21103,-0.85,4.95,-9.03,3.54,-0.02,0.46,-53.68,21.88,-24.62
21114,-0.85,4.95,-9.03,3.54,-0.02,0.46,-53.68,21.88,-24.62
21125,-2.72,0.95,-8.09,4.18,0.28,0.24,-53.68,21.88,-24.62
21136,-2.72,0.95,-8.09,4.18,0.28,0.24,-53.68,21.88,-24.62
21147,-2.51,3.47,-8.68,2.08,0.35,0.30,-53.68,21.88,-24.62
21158,-2.51,3.47,-8.68,2.08,0.35,0.30,-53.68,21.88,-24.62
21170,-1.87,2.38,-8.84,1.86,0.50,0.33,-53.68,21.88,-24.62
21180,-1.87,2.38,-8.84,1.86,0.50,0.33,-53.68,21.88,-24.62
21191,-1.52,2.88,-9.84,1.50,0.62,0.44,-50.89,15.12,-31.93
21202,-1.52,2.88,-9.84,1.50,0.62,0.44,-50.89,15.12,-31.93
21213,-1.75,4.64,-9.14,2.25,0.70,0.53,-50.89,15.12,-31.93
21224,-0.80,2.02,-10.72,4.22,0.95,0.43,-50.89,15.12,-31.93
21235,-0.80,2.02,-10.72,4.22,0.95,0.43,-50.89,15.12,-31.93
21246,-2.39,0.04,-10.50,2.72,0.74,0.14,-50.89,15.12,-31.93
21257,-2.39,0.04,-10.50,2.72,0.74,0.14,-50.89,15.12,-31.93
21268,-1.61,1.95,-10.11,-1.62,0.26,-0.23,-50.89,15.12,-31.93
21279,-1.61,1.95,-10.11,-1.62,0.26,-0.23,-50.89,15.12,-31.93
21290,-1.36,1.62,-9.87,-1.74,0.24,-0.27,-50.89,15.12,-31.93
21301,-1.36,1.62,-9.87,-1.74,0.24,-0.27,-50.89,15.12,-31.93
21312,-1.33,2.21,-9.70,-1.40,0.30,-0.14,-50.89,15.12,-31.93
21323,-1.15,2.56,-11.01,-0.88,0.34,-0.01,-50.89,15.12,-31.93
21334,-1.15,2.56,-11.01,-0.88,0.34,-0.01,-47.40,11.59,-33.04
21345,-1.19,2.21,-9.99,-0.09,0.22,0.05,-47.40,11.59,-33.04
21356,-1.19,2.21,-9.99,-0.09,0.22,0.05,-47.40,11.59,-33.04
21367,0.30,2.57,-8.75,-0.27,0.19,0.04,-47.40,11.59,-33.04
21378,0.30,2.57,-8.75,-0.27,0.19,0.04,-47.40,11.59,-33.04
21389,-1.29,3.02,-8.84,-0.59,0.32,0.13,-47.40,11.59,-33.04
21400,-1.29,3.02,-8.84,-0.59,0.32,0.13,-47.40,11.59,-33.04
21411,-1.84,2.64,-10.05,-0.73,0.44,0.25,-47.40,11.59,-33.04
21422,-1.84,2.64,-10.05,-0.73,0.44,0.25,-47.40,11.59,-33.04
21433,-0.41,2.98,-9.81,-1.78,0.20,0.68,-47.40,11.59,-33.04
21445,-0.73,3.89,-9.89,-2.95,-0.18,1.06,-46.01,15.89,-32.09
21455,-0.73,3.89,-9.89,-2.95,-0.18,1.06,-46.01,15.89,-32.09
21466,-1.50,4.12,-9.65,-2.61,-0.21,0.90,-46.01,15.89,-32.09
21477,-1.50,4.12,-9.65,-2.61,-0.21,0.90,-46.01,15.89,-32.09
21488,-1.54,3.94,-9.53,-2.04,0.06,0.31,-46.01,15.89,-32.09
21499,-1.54,3.94,-9.53,-2.04,0.06,0.31,-46.01,15.89,-32.09
21510,-0.93,4.15,-8.95,-1.57,0.46,-0.17,-46.01,15.89,-32.09
21521,-0.93,4.15,-8.95,-1.57,0.46,-0.17,-46.01,15.89,-32.09
21532,-0.15,5.49,-9.69,-1.67,0.59,-0.19,-46.01,15.89,-32.09
21543,-0.15,5.49,-9.69,-1.67,0.59,-0.19,-46.01,15.89,-32.09
21554,-0.33,5.60,-8.63,-1.28,0.26,-0.03,-46.01,15.89,-32.09
21565,-0.28,5.25,-8.55,-1.21,0.15,0.08,-43.68,22.34,-27.01
21576,-0.28,5.25,-8.55,-1.21,0.15,0.08,-43.68,22.34,-27.01
21587,-1.16,6.08,-6.69,-1.62,0.16,0.33,-43.68,22.34,-27.01
21598,-1.16,6.08,-6.69,-1.62,0.16,0.33,-43.68,22.34,-27.01
21609,-1.16,7.71,-10.11,-2.41,0.20,0.42,-43.68,22.34,-27.01
21620,-1.16,7.71,-10.11,-2.41,0.20,0.42,-43.68,22.34,-27.01
21631,-0.89,6.12,-9.00,-0.56,0.14,0.34,-43.68,22.34,-27.01
21642,-0.89,6.12,-9.00,-0.56,0.14,0.34,-43.68,22.34,-27.01
21658,-0.44,6.09,-8.42,-0.20,0.06,-0.20,-43.68,22.34,-27.01
21664,-0.50,6.43,-8.08,-0.04,0.17,-0.23,-43.68,22.34,-27.01
21675,-0.50,6.43,-8.08,-0.04,0.17,-0.23,-43.68,22.34,-27.01
21686,-0.16,6.57,-7.87,0.06,0.18,-0.19,-43.68,22.34,-27.01
21697,-0.16,6.57,-7.87,0.06,0.18,-0.19,-43.68,22.34,-27.01
21708,-0.64,6.36,-8.05,0.03,0.31,-0.30,-44.61,24.49,-25.42
21719,-0.64,6.36,-8.05,0.03,0.31,-0.30,-44.61,24.49,-25.42
21730,-0.94,6.37,-8.13,-0.08,0.31,-0.44,-44.61,24.49,-25.42
21741,-0.94,6.37,-8.13,-0.08,0.31,-0.44,-44.61,24.49,-25.42
21752,-0.48,6.24,-8.11,-0.15,0.21,-0.38,-44.61,24.49,-25.42
21763,-0.48,6.24,-8.11,-0.15,0.21,-0.38,-44.61,24.49,-25.42
21774,-0.63,6.03,-8.27,-0.02,0.23,-0.29,-44.61,24.49,-25.42
21785,-0.45,5.98,-8.35,0.08,0.24,-0.19,-44.61,24.49,-25.42
21796,-0.45,5.98,-8.35,0.08,0.24,-0.19,-44.61,24.49,-25.42
21807,-0.61,6.16,-8.18,-0.05,0.12,-0.21,-44.61,24.49,-25.42
21818,-0.61,6.16,-8.18,-0.05,0.12,-0.21,-44.61,24.49,-25.42
21829,-0.72,6.43,-8.01,-0.01,0.13,-0.18,-42.98,24.64,-25.26
21840,-0.72,6.43,-8.01,-0.01,0.13,-0.18,-42.98,24.64,-25.26
21851,-1.02,6.59,-7.85,-0.01,0.17,-0.22,-42.98,24.64,-25.26
21862,-1.02,6.59,-7.85,-0.01,0.17,-0.22,-42.98,24.64,-25.26
21873,-0.59,6.05,-8.33,0.00,0.23,-0.28,-42.98,24.64,-25.26
21884,-0.02,5.60,-8.74,0.11,0.25,-0.17,-42.98,24.64,-25.26
21895,-0.02,5.60,-8.74,0.11,0.25,-0.17,-42.98,24.64,-25.26
21906,-0.32,5.94,-8.46,-0.01,0.08,-0.12,-42.98,24.64,-25.26
21917,-0.32,5.94,-8.46,-0.01,0.08,-0.12,-42.98,24.64,-25.26
21928,-0.95,6.48,-7.87,-0.14,-0.06,-0.13,-42.98,24.64,-25.26
21939,-0.95,6.48,-7.87,-0.14,-0.06,-0.13,-42.98,24.64,-25.26
21950,-0.72,6.40,-8.05,0.07,0.06,-0.03,-45.31,23.72,-25.26
21961,-0.72,6.40,-8.05,0.07,0.06,-0.03,-45.31,23.72,-25.26
21972,-0.16,6.20,-8.25,0.05,0.02,0.01,-45.31,23.72,-25.26
21983,-0.16,6.20,-8.25,0.05,0.02,0.01,-45.31,23.72,-25.26
21994,-0.59,6.69,-7.71,-0.07,-0.09,0.03,-45.31,23.72,-25.26
22005,-0.34,6.28,-8.13,0.06,-0.04,0.09,-45.31,23.72,-25.26
22016,-0.34,6.28,-8.13,0.06,-0.04,0.09,-45.31,23.72,-25.26
22027,-0.20,6.70,-7.91,0.01,-0.07,0.10,-45.31,23.72,-25.26
22038,-0.20,6.70,-7.91,0.01,-0.07,0.10,-45.31,23.72,-25.26
22049,-0.61,6.68,-7.76,-0.04,-0.06,0.03,-45.31,23.72,-25.26
22060,-0.61,6.68,-7.76,-0.04,-0.06,0.03,-45.31,23.72,-25.26
22071,0.17,5.82,-8.54,0.04,0.02,0.02,-45.31,23.72,-25.26
22082,0.17,5.82,-8.54,0.04,0.02,0.02,-45.31,23.72,-25.26
22093,0.45,6.32,-8.18,-0.01,-0.04,0.04,-43.91,24.33,-26.21
22104,-0.38,6.25,-8.16,0.01,-0.05,0.05,-43.91,24.33,-26.21
22115,-0.38,6.25,-8.16,0.01,-0.05,0.05,-43.91,24.33,-26.21
22126,-0.42,6.41,-8.04,0.01,-0.02,0.03,-43.91,24.33,-26.21
22137,-0.42,6.41,-8.04,0.01,-0.02,0.03,-43.91,24.33,-26.21
22148,-1.03,5.85,-8.63,-0.05,-0.00,0.02,-43.91,24.33,-26.21
22159,-1.03,5.85,-8.63,-0.05,-0.00,0.02,-43.91,24.33,-26.21
22170,-1.34,5.77,-8.67,-0.05,-0.26,0.29,-43.91,24.33,-26.21
22181,-1.34,5.77,-8.67,-0.05,-0.26,0.29,-43.91,24.33,-26.21
22192,-0.15,6.92,-7.52,0.09,-0.55,0.68,-43.91,24.33,-26.21
22203,-0.15,6.92,-7.52,0.09,-0.55,0.68,-43.91,24.33,-26.21
22214,0.12,6.37,-8.15,0.02,-0.68,0.81,-43.45,24.64,-26.21
22225,0.21,7.20,-7.49,0.12,-0.70,0.89,-43.45,24.64,-26.21
22236,0.21,7.20,-7.49,0.12,-0.70,0.89,-43.45,24.64,-26.21
22247,-0.49,6.61,-8.03,0.08,-0.51,0.63,-43.45,24.64,-26.21
22258,-0.49,6.61,-8.03,0.08,-0.51,0.63,-43.45,24.64,-26.21
22269,-0.49,6.37,-8.07,0.04,-0.23,0.29,-43.45,24.64,-26.21
22280,-0.49,6.37,-8.07,0.04,-0.23,0.29,-43.45,24.64,-26.21
22291,-0.82,7.38,-7.19,0.05,0.06,-0.08,-43.45,24.64,-26.21
22302,-0.82,7.38,-7.19,0.05,0.06,-0.08,-43.45,24.64,-26.21
22313,-0.85,6.18,-8.24,-0.03,0.41,-0.49,-43.45,24.64,-26.21
22324,-0.06,6.16,-8.26,-0.04,0.42,-0.53,-43.45,24.64,-26.21
22335,-0.06,6.16,-8.26,-0.04,0.42,-0.53,-44.15,24.18,-24.46
22346,-0.17,6.27,-8.15,-0.20,0.24,-0.46,-44.15,24.18,-24.46
22357,-0.17,6.27,-8.15,-0.20,0.24,-0.46,-44.15,24.18,-24.46
22368,-0.59,6.36,-8.12,-0.31,0.20,-0.44,-44.15,24.18,-24.46
22379,-0.59,6.36,-8.12,-0.31,0.20,-0.44,-44.15,24.18,-24.46
22390,-0.54,6.28,-8.10,-0.46,0.21,-0.54,-44.15,24.18,-24.46
22401,-0.54,6.28,-8.10,-0.46,0.21,-0.54,-44.15,24.18,-24.46
22412,-0.80,6.54,-7.92,-0.34,0.36,-0.63,-44.15,24.18,-24.46
22423,-0.80,6.54,-7.92,-0.34,0.36,-0.63,-44.15,24.18,-24.46
22434,-0.73,7.05,-7.40,-0.02,0.56,-0.65,-44.15,24.18,-24.46
22445,-0.64,6.26,-8.09,0.14,0.70,-0.69,-44.15,24.18,-24.46
22456,-0.64,6.26,-8.09,0.14,0.70,-0.69,-44.15,24.18,-24.46
22467,-0.52,6.34,-8.10,0.58,0.88,-0.58,-47.87,23.57,-24.78
22478,-0.52,6.34,-8.10,0.58,0.88,-0.58,-47.87,23.57,-24.78
22489,-0.92,6.54,-7.99,0.44,0.83,-0.58,-47.87,23.57,-24.78
22500,-0.92,6.54,-7.99,0.44,0.83,-0.58,-47.87,23.57,-24.78
22511,-0.24,6.28,-8.14,0.10,0.54,-0.55,-47.87,23.57,-24.78
22522,-0.24,6.28,-8.14,0.10,0.54,-0.55,-47.87,23.57,-24.78
22533,-0.29,6.27,-8.14,0.01,0.28,-0.36,-47.87,23.57,-24.78
22545,-0.39,6.20,-8.17,0.01,0.12,-0.21,-47.87,23.57,-24.78
22555,-0.39,6.20,-8.17,0.01,0.12,-0.21,-47.87,23.57,-24.78
22566,-0.51,6.31,-8.11,0.04,0.12,-0.11,-47.87,23.57,-24.78
22577,-0.51,6.31,-8.11,0.04,0.12,-0.11,-47.87,23.57,-24.78
22588,-0.57,6.36,-8.05,0.06,0.16,-0.09,-43.91,22.80,-26.53
22599,-0.57,6.36,-8.05,0.06,0.16,-0.09,-43.91,22.80,-26.53
22610,-0.59,6.34,-8.10,0.02,0.27,-0.27,-43.91,22.80,-26.53
22621,-0.59,6.34,-8.10,0.02,0.27,-0.27,-43.91,22.80,-26.53
22632,-0.28,6.26,-8.18,-0.00,0.36,-0.47,-43.91,22.80,-26.53
22643,-0.28,6.26,-8.18,-0.00,0.36,-0.47,-43.91,22.80,-26.53
22654,-0.36,6.33,-8.10,-0.02,0.41,-0.52,-43.91,22.80,-26.53
22665,-0.26,6.22,-8.25,-0.00,0.43,-0.55,-43.91,22.80,-26.53
22676,-0.26,6.22,-8.25,-0.00,0.43,-0.55,-43.91,22.80,-26.53
22687,-0.30,6.32,-8.15,0.01,0.43,-0.52,-43.91,22.80,-26.53
22698,-0.30,6.32,-8.15,0.01,0.43,-0.52,-43.91,22.80,-26.53
22709,-0.76,6.49,-7.97,0.01,0.25,-0.30,-44.84,23.72,-27.48
22720,-0.76,6.49,-7.97,0.01,0.25,-0.30,-44.84,23.72,-27.48
22731,-0.58,6.37,-8.12,-0.00,-0.02,-0.04,-44.84,23.72,-27.48
22742,-0.58,6.37,-8.12,-0.00,-0.02,-0.04,-44.84,23.72,-27.48
22753,-0.58,6.43,-7.96,-0.09,-0.09,-0.06,-44.84,23.72,-27.48
22764,-0.58,6.43,-7.96,-0.09,-0.09,-0.06,-44.84,23.72,-27.48
22776,-0.61,6.25,-8.14,-0.09,-0.04,-0.06,-44.84,23.72,-27.48
22786,-0.95,6.96,-7.39,-0.10,-0.02,0.00,-44.84,23.72,-27.48
22797,-0.95,6.96,-7.39,-0.10,-0.02,0.00,-44.84,23.72,-27.48
22808,-0.14,6.37,-8.32,0.30,0.19,0.12,-44.84,23.72,-27.48
22819,-0.14,6.37,-8.32,0.30,0.19,0.12,-44.84,23.72,-27.48
22830,-0.69,6.60,-7.77,-0.10,-0.09,-0.08,-44.38,22.19,-25.26
22841,-0.69,6.60,-7.77,-0.10,-0.09,-0.08,-44.38,22.19,-25.26
22852,-0.33,6.38,-8.20,0.13,0.08,0.05,-44.38,22.19,-25.26
22863,-0.33,6.38,-8.20,0.13,0.08,0.05,-44.38,22.19,-25.26
22874,-0.56,6.46,-8.00,-0.04,-0.04,-0.04,-44.38,22.19,-25.26
22885,-0.47,6.28,-8.08,0.06,0.03,0.01,-44.38,22.19,-25.26
22896,-0.47,6.28,-8.08,0.06,0.03,0.01,-44.38,22.19,-25.26
22907,-0.50,6.30,-8.07,0.01,-0.00,-0.01,-44.38,22.19,-25.26
