time,ax,ay,az,gx,gy,gz,mx,my,mz
401,-0.52,6.37,-8.02,0.01,0.01,-0.00,-43.68,23.26,-26.05
411,-0.52,6.37,-8.02,0.01,0.01,-0.00,-43.68,23.26,-26.05
422,-0.52,6.39,-8.06,0.02,0.01,-0.00,-44.61,22.34,-26.69
433,-0.52,6.39,-8.06,0.02,0.01,-0.00,-44.61,22.34,-26.69
444,-0.51,6.37,-8.08,0.02,0.01,-0.00,-44.61,22.34,-26.69
455,-0.51,6.37,-8.08,0.02,0.01,-0.00,-44.61,22.34,-26.69
466,-0.50,6.36,-8.09,0.02,0.01,0.00,-44.61,22.34,-26.69
477,-0.50,6.36,-8.09,0.02,0.01,0.00,-44.61,22.34,-26.69
488,-0.50,6.38,-8.06,0.02,0.01,-0.00,-44.61,22.34,-26.69
499,-0.53,6.40,-8.05,0.02,0.01,-0.00,-44.61,22.34,-26.69
510,-0.53,6.40,-8.05,0.02,0.01,-0.00,-44.61,22.34,-26.69
521,-0.51,6.40,-8.01,0.02,0.01,-0.00,-44.61,22.34,-26.69
532,-0.51,6.40,-8.01,0.02,0.01,-0.00,-44.61,22.34,-26.69
543,-0.49,6.39,-8.05,0.02,0.01,-0.00,-43.22,22.95,-26.69
554,-0.49,6.39,-8.05,0.02,0.01,-0.00,-43.22,22.95,-26.69
565,-0.48,6.38,-8.00,0.02,0.01,-0.00,-43.22,22.95,-26.69
576,-0.48,6.38,-8.00,0.02,0.01,-0.00,-43.22,22.95,-26.69
587,-0.52,6.38,-8.02,0.02,0.01,-0.00,-43.22,22.95,-26.69
598,-0.50,6.38,-8.04,0.02,0.01,-0.00,-43.22,22.95,-26.69
609,-0.50,6.38,-8.04,0.02,0.01,-0.00,-43.22,22.95,-26.69
620,-0.51,6.38,-8.05,0.02,0.01,-0.00,-43.22,22.95,-26.69
631,-0.51,6.38,-8.05,0.02,0.01,-0.00,-43.22,22.95,-26.69
642,-0.51,6.37,-8.05,0.02,0.01,-0.00,-43.22,22.95,-26.69
653,-0.51,6.37,-8.05,0.02,0.01,-0.00,-43.22,22.95,-26.69
665,-0.50,6.37,-8.07,0.02,0.01,-0.00,-43.22,22.95,-26.69
675,-0.50,6.37,-8.07,0.02,0.01,-0.00,-43.22,22.95,-26.69
686,-0.51,6.38,-8.04,0.02,0.01,-0.00,-43.91,22.49,-27.16
697,-0.51,6.38,-8.04,0.02,0.01,-0.00,-43.91,22.49,-27.16
708,-0.51,6.38,-8.04,0.02,0.01,-0.00,-43.91,22.49,-27.16
719,-0.49,6.38,-8.07,0.02,0.01,-0.00,-43.91,22.49,-27.16
730,-0.49,6.38,-8.07,0.02,0.01,-0.00,-43.91,22.49,-27.16
741,-0.47,6.37,-8.06,0.02,0.01,-0.00,-43.91,22.49,-27.16
752,-0.47,6.37,-8.06,0.02,0.01,-0.00,-43.91,22.49,-27.16
763,-0.50,6.38,-8.06,0.02,0.01,-0.00,-43.91,22.49,-27.16
774,-0.50,6.38,-8.06,0.02,0.01,-0.00,-43.91,22.49,-27.16
785,-0.51,6.38,-8.05,0.02,0.01,-0.00,-43.91,22.49,-27.16
796,-0.51,6.38,-8.05,0.02,0.01,-0.00,-43.91,22.49,-27.16
811,-0.51,6.38,-8.05,0.02,0.01,-0.00,-45.78,22.49,-25.58
818,-0.49,6.38,-8.04,0.02,0.01,-0.00,-45.78,22.49,-25.58
829,-0.49,6.38,-8.04,0.02,0.01,-0.00,-45.78,22.49,-25.58
840,-0.48,6.39,-8.06,0.02,0.01,-0.00,-45.78,22.49,-25.58
851,-0.48,6.39,-8.06,0.02,0.01,-0.00,-45.78,22.49,-25.58
862,-0.49,6.39,-8.05,0.02,0.01,-0.00,-45.78,22.49,-25.58
873,-0.49,6.39,-8.05,0.02,0.01,-0.00,-45.78,22.49,-25.58
884,-0.51,6.35,-8.04,0.02,0.01,-0.00,-45.78,22.49,-25.58
895,-0.51,6.35,-8.04,0.02,0.01,-0.00,-45.78,22.49,-25.58
906,-0.49,6.39,-8.08,0.02,0.00,-0.00,-45.78,22.49,-25.58
917,-0.49,6.39,-8.08,0.02,0.00,-0.00,-45.78,22.49,-25.58
928,-0.49,6.41,-8.05,0.02,0.00,-0.00,-45.08,22.65,-26.37
939,-0.49,6.38,-8.06,0.03,0.01,-0.00,-45.08,22.65,-26.37
950,-0.49,6.38,-8.06,0.03,0.01,-0.00,-45.08,22.65,-26.37
961,-0.51,6.37,-8.08,0.03,0.01,-0.00,-45.08,22.65,-26.37
972,-0.51,6.37,-8.08,0.03,0.01,-0.00,-45.08,22.65,-26.37
983,-0.52,6.35,-8.08,0.03,0.01,-0.00,-45.08,22.65,-26.37
994,-0.52,6.35,-8.08,0.03,0.01,-0.00,-45.08,22.65,-26.37
1005,-0.50,6.37,-8.05,0.02,0.01,-0.00,-45.08,22.65,-26.37
1016,-0.50,6.37,-8.05,0.02,0.01,-0.00,-45.08,22.65,-26.37
1027,-0.51,6.39,-8.04,0.02,0.01,-0.00,-45.08,22.65,-26.37
1038,-0.51,6.39,-8.04,0.02,0.01,-0.00,-45.08,22.65,-26.37
1054,-0.51,6.38,-8.05,0.02,0.01,-0.00,-43.91,22.49,-26.53
1060,0.07,7.55,-7.30,0.00,0.01,-0.00,-43.91,22.49,-26.53
1071,0.07,7.55,-7.30,0.00,0.01,-0.00,-43.91,22.49,-26.53
1082,-0.71,5.96,-8.44,0.04,0.12,-0.13,-43.91,22.49,-26.53
1093,-0.71,5.96,-8.44,0.04,0.12,-0.13,-43.91,22.49,-26.53
1104,-0.38,6.20,-8.28,0.06,0.07,-0.03,-43.91,22.49,-26.53
1115,-0.38,6.20,-8.28,0.06,0.07,-0.03,-43.91,22.49,-26.53
1126,-0.62,6.46,-7.88,-0.08,-0.04,-0.04,-43.91,22.49,-26.53
1137,-0.62,6.46,-7.88,-0.08,-0.04,-0.04,-43.91,22.49,-26.53
1148,-0.43,6.30,-8.17,0.09,0.04,0.03,-43.91,22.49,-26.53
1159,-0.59,6.45,-7.95,-0.04,-0.02,-0.03,-43.91,22.49,-26.53
1170,-0.59,6.45,-7.95,-0.04,-0.02,-0.03,-43.91,22.49,-26.53
1181,-0.45,6.31,-8.14,0.07,0.03,0.01,-45.08,23.57,-26.05
1192,-0.45,6.31,-8.14,0.07,0.03,0.01,-45.08,23.57,-26.05
1203,-0.54,6.43,-8.01,-0.01,-0.01,-0.02,-45.08,23.57,-26.05
1214,-0.54,6.43,-8.01,-0.01,-0.01,-0.02,-45.08,23.57,-26.05
1225,-0.45,6.33,-8.11,0.05,0.02,0.01,-45.08,23.57,-26.05
1236,-0.45,6.33,-8.11,0.05,0.02,0.01,-45.08,23.57,-26.05
1247,-0.54,6.41,-8.01,0.00,-0.00,-0.01,-45.08,23.57,-26.05
1258,-0.54,6.41,-8.01,0.00,-0.00,-0.01,-45.08,23.57,-26.05
1269,-0.50,6.35,-8.08,0.04,0.01,0.00,-45.08,23.57,-26.05
1280,-0.51,6.40,-8.02,0.01,0.00,-0.01,-45.08,23.57,-26.05
1291,-0.51,6.40,-8.02,0.01,0.00,-0.01,-45.08,23.57,-26.05
1302,-0.48,6.34,-8.12,0.03,0.01,0.00,-46.01,21.42,-26.37
1313,-0.48,6.34,-8.12,0.03,0.01,0.00,-46.01,21.42,-26.37
1324,-0.52,6.40,-8.02,0.01,0.00,-0.01,-46.01,21.42,-26.37
1335,-0.52,6.40,-8.02,0.01,0.00,-0.01,-46.01,21.42,-26.37
1346,-0.50,6.35,-8.07,0.03,0.01,0.00,-46.01,21.42,-26.37
1357,-0.50,6.35,-8.07,0.03,0.01,0.00,-46.01,21.42,-26.37
1368,-0.53,6.39,-8.02,0.01,0.00,-0.01,-46.01,21.42,-26.37
1379,-0.49,6.35,-8.08,0.03,0.01,-0.00,-46.01,21.42,-26.37
1390,-0.49,6.35,-8.08,0.03,0.01,-0.00,-46.01,21.42,-26.37
1401,-0.51,6.39,-8.06,0.01,0.00,-0.01,-46.01,21.42,-26.37
1412,-0.51,6.39,-8.06,0.01,0.00,-0.01,-46.01,21.42,-26.37
1423,-0.50,6.36,-8.07,0.03,0.01,-0.00,-44.38,22.49,-26.53
1435,-0.50,6.36,-8.07,0.03,0.01,-0.00,-44.38,22.49,-26.53
1445,-0.51,6.38,-8.07,0.02,0.00,-0.00,-44.38,22.49,-26.53
1456,-0.51,6.38,-8.07,0.02,0.00,-0.00,-44.38,22.49,-26.53
1467,-0.51,6.37,-8.07,0.02,0.01,-0.00,-44.38,22.49,-26.53
1483,-0.51,6.37,-8.07,0.02,0.01,-0.00,-44.38,22.49,-26.53
1489,-0.50,6.38,-8.06,0.02,0.01,-0.00,-44.38,22.49,-26.53
1500,-0.50,6.38,-8.04,0.02,0.01,-0.00,-44.38,22.49,-26.53
1511,-0.50,6.38,-8.04,0.02,0.01,-0.00,-44.38,22.49,-26.53
1522,-0.49,6.36,-8.06,0.02,0.01,-0.00,-44.38,22.49,-26.53
1533,-0.49,6.36,-8.06,0.02,0.01,-0.00,-44.38,22.49,-26.53
1544,-0.51,6.38,-8.06,0.02,0.01,-0.00,-44.38,22.49,-26.53
1555,-0.51,6.38,-8.06,0.02,0.01,-0.00,-44.38,22.49,-26.53
1566,-0.50,6.37,-8.11,0.02,0.01,-0.00,-45.08,23.26,-26.05
1577,-0.50,6.37,-8.11,0.02,0.01,-0.00,-45.08,23.26,-26.05
1588,-0.50,6.37,-8.08,0.02,0.01,-0.00,-45.08,23.26,-26.05
1599,-0.51,6.37,-8.07,0.02,0.01,-0.00,-45.08,23.26,-26.05
1610,-0.51,6.37,-8.07,0.02,0.01,-0.00,-45.08,23.26,-26.05
1621,-0.52,6.37,-8.05,0.02,0.01,-0.00,-45.08,23.26,-26.05
1632,-0.52,6.37,-8.05,0.02,0.01,-0.00,-45.08,23.26,-26.05
1643,-0.51,6.36,-8.05,0.02,0.01,-0.00,-45.08,23.26,-26.05
1654,-0.51,6.36,-8.05,0.02,0.01,-0.00,-45.08,23.26,-26.05
1665,-0.51,6.37,-8.05,0.02,0.01,-0.00,-45.08,23.26,-26.05
1676,-0.51,6.37,-8.05,0.02,0.01,-0.00,-45.08,23.26,-26.05
1687,-0.51,6.35,-8.09,0.02,0.01,-0.00,-44.61,21.72,-27.01
1698,-0.51,6.35,-8.09,0.02,0.01,-0.00,-44.61,21.72,-27.01
1709,-0.50,6.36,-8.07,0.02,0.01,-0.00,-44.61,21.72,-27.01
1720,-0.51,6.36,-8.07,0.02,0.01,-0.00,-44.61,21.72,-27.01
1731,-0.51,6.36,-8.07,0.02,0.01,-0.00,-44.61,21.72,-27.01
1742,-0.51,6.38,-8.07,0.02,0.01,-0.00,-44.61,21.72,-27.01
1753,-0.51,6.38,-8.07,0.02,0.01,-0.00,-44.61,21.72,-27.01
1764,-0.50,6.38,-8.06,0.02,0.01,-0.00,-44.61,21.72,-27.01
1775,-0.50,6.38,-8.06,0.02,0.01,-0.00,-44.61,21.72,-27.01
1786,-0.49,6.36,-8.06,0.02,0.01,-0.00,-44.61,21.72,-27.01
1797,-0.49,6.36,-8.06,0.02,0.01,-0.00,-44.61,21.72,-27.01
1808,-0.52,6.37,-8.07,0.02,0.01,-0.00,-44.84,22.19,-27.80
1819,-0.50,6.36,-8.08,0.02,0.01,-0.00,-44.84,22.19,-27.80
1830,-0.50,6.36,-8.08,0.02,0.01,-0.00,-44.84,22.19,-27.80
1842,-0.51,6.37,-8.07,0.02,0.01,-0.00,-44.84,22.19,-27.80
1852,-0.51,6.37,-8.07,0.02,0.01,-0.00,-44.84,22.19,-27.80
1863,-0.49,6.36,-8.06,0.02,0.01,-0.00,-44.84,22.19,-27.80
1874,-0.49,6.36,-8.06,0.02,0.01,-0.00,-44.84,22.19,-27.80
1885,-0.49,6.35,-8.06,0.02,0.01,-0.00,-44.84,22.19,-27.80
1896,-0.49,6.35,-8.06,0.02,0.01,-0.00,-44.84,22.19,-27.80
1907,-0.50,6.35,-8.04,0.02,0.01,-0.00,-44.84,22.19,-27.80
1918,-0.50,6.35,-8.04,0.02,0.01,-0.00,-44.84,22.19,-27.80
1929,-0.51,6.36,-8.05,0.02,0.01,-0.00,-44.84,22.19,-27.80
1940,-0.51,6.38,-8.08,0.02,0.01,-0.00,-43.91,22.80,-26.53
1951,-0.51,6.38,-8.08,0.02,0.01,-0.00,-43.91,22.80,-26.53
1962,-0.52,6.35,-8.05,0.02,0.01,-0.00,-43.91,22.80,-26.53
1973,-0.52,6.35,-8.05,0.02,0.01,-0.00,-43.91,22.80,-26.53
1984,-0.51,6.38,-8.06,0.02,0.01,-0.00,-43.91,22.80,-26.53
1995,-0.51,6.38,-8.06,0.02,0.01,-0.00,-43.91,22.80,-26.53
2006,-0.51,6.35,-8.04,0.02,0.01,-0.00,-43.91,22.80,-26.53
2017,-0.51,6.35,-8.04,0.02,0.01,-0.00,-43.91,22.80,-26.53
2028,-0.51,6.36,-8.06,0.02,0.01,-0.00,-43.91,22.80,-26.53
2039,-0.51,6.36,-8.06,0.02,0.01,-0.00,-43.91,22.80,-26.53
2050,-0.51,6.35,-8.06,0.02,0.01,-0.00,-43.91,22.80,-26.53
2061,-0.51,6.35,-8.08,0.02,0.01,-0.00,-45.54,21.72,-26.05
2072,-0.51,6.35,-8.08,0.02,0.01,-0.00,-45.54,21.72,-26.05
2083,-0.51,6.36,-8.09,0.02,0.01,-0.00,-45.54,21.72,-26.05
2094,-0.51,6.36,-8.09,0.02,0.01,-0.00,-45.54,21.72,-26.05
2105,-0.51,6.35,-8.07,0.02,0.01,-0.00,-45.54,21.72,-26.05
2116,-0.51,6.35,-8.07,0.02,0.01,-0.00,-45.54,21.72,-26.05
2127,-0.52,6.37,-8.06,0.02,0.01,-0.00,-45.54,21.72,-26.05
2138,-0.52,6.37,-8.06,0.02,0.01,-0.00,-45.54,21.72,-26.05
2149,-0.50,6.36,-8.04,0.02,0.01,-0.00,-45.54,21.72,-26.05
2160,-0.50,6.36,-8.07,0.02,0.01,-0.00,-45.54,21.72,-26.05
2171,-0.50,6.36,-8.07,0.02,0.01,-0.00,-45.54,21.72,-26.05
2182,-0.51,6.37,-8.09,0.02,0.01,-0.00,-44.84,22.49,-26.85
2193,-0.51,6.37,-8.09,0.02,0.01,-0.00,-44.84,22.49,-26.85
2204,-0.51,6.37,-8.10,0.02,0.01,-0.00,-44.84,22.49,-26.85
2215,-0.51,6.37,-8.10,0.02,0.01,-0.00,-44.84,22.49,-26.85
2226,-0.50,6.37,-8.06,0.02,0.01,-0.00,-44.84,22.49,-26.85
2237,-0.50,6.37,-8.06,0.02,0.01,-0.00,-44.84,22.49,-26.85
2248,-0.49,6.36,-8.07,0.02,0.01,-0.00,-44.84,22.49,-26.85
2259,-0.49,6.36,-8.07,0.02,0.01,-0.00,-44.84,22.49,-26.85
2271,-0.50,6.36,-8.06,0.02,0.01,-0.00,-44.84,22.49,-26.85
2281,-0.51,6.36,-8.08,0.02,0.01,-0.00,-44.84,22.49,-26.85
2292,-0.51,6.36,-8.08,0.02,0.01,-0.00,-44.84,22.49,-26.85
2303,-0.50,6.36,-8.08,0.02,0.01,-0.00,-45.31,22.19,-26.53
2314,-0.50,6.36,-8.08,0.02,0.01,-0.00,-45.31,22.19,-26.53
2325,-0.51,6.37,-8.07,0.02,0.01,-0.00,-45.31,22.19,-26.53
2336,-0.51,6.37,-8.07,0.02,0.01,-0.00,-45.31,22.19,-26.53
2347,-0.51,6.36,-8.09,0.02,0.01,-0.00,-45.31,22.19,-26.53
2358,-0.51,6.36,-8.09,0.02,0.01,-0.00,-45.31,22.19,-26.53
2369,-0.49,6.36,-8.07,0.02,0.01,-0.00,-45.31,22.19,-26.53
2380,-0.50,6.35,-8.07,0.02,0.01,-0.00,-45.31,22.19,-26.53
2391,-0.50,6.35,-8.07,0.02,0.01,-0.00,-45.31,22.19,-26.53
2402,-0.50,6.36,-8.06,0.02,0.01,-0.00,-45.31,22.19,-26.53
2413,-0.50,6.36,-8.06,0.02,0.01,-0.00,-45.31,22.19,-26.53
2424,-0.50,6.34,-8.04,0.02,0.01,-0.00,-45.31,22.19,-26.53
2435,-0.50,6.34,-8.04,0.02,0.01,-0.00,-45.31,22.19,-26.53
2446,-0.49,6.36,-8.08,0.02,0.01,-0.00,-43.91,23.11,-24.94
2457,-0.49,6.36,-8.08,0.02,0.01,-0.00,-43.91,23.11,-24.94
2468,-0.51,6.36,-8.06,0.02,0.01,-0.00,-43.91,23.11,-24.94
2479,-0.51,6.36,-8.06,0.02,0.01,-0.00,-43.91,23.11,-24.94
2490,-0.51,6.36,-8.07,0.02,0.01,-0.00,-43.91,23.11,-24.94
2501,-0.51,6.37,-8.07,0.02,0.01,-0.00,-43.91,23.11,-24.94
2512,-0.51,6.37,-8.07,0.02,0.01,-0.00,-43.91,23.11,-24.94
2523,-0.51,6.36,-8.04,0.02,0.01,-0.00,-43.91,23.11,-24.94
2534,-0.51,6.36,-8.04,0.02,0.01,-0.00,-43.91,23.11,-24.94
2545,-0.50,6.35,-8.05,0.02,0.01,-0.00,-43.91,23.11,-24.94
2556,-0.50,6.35,-8.05,0.02,0.01,-0.00,-43.91,23.11,-24.94
2567,-0.50,6.35,-8.09,0.02,0.01,-0.00,-45.78,23.41,-27.48
2578,-0.50,6.35,-8.09,0.02,0.01,-0.00,-45.78,23.41,-27.48
2589,-0.51,6.36,-8.08,0.02,0.01,-0.00,-45.78,23.41,-27.48
2600,-0.50,6.37,-8.07,0.02,0.01,-0.00,-45.78,23.41,-27.48
2611,-0.50,6.37,-8.07,0.02,0.01,-0.00,-45.78,23.41,-27.48
2622,-0.51,6.36,-8.06,0.02,0.01,-0.00,-45.78,23.41,-27.48
2633,-0.51,6.36,-8.06,0.02,0.01,-0.00,-45.78,23.41,-27.48
2644,-0.51,6.36,-8.08,0.02,0.01,-0.00,-45.78,23.41,-27.48
2655,-0.51,6.36,-8.08,0.02,0.01,-0.00,-45.78,23.41,-27.48
2666,-0.50,6.34,-8.07,0.02,0.01,-0.00,-45.78,23.41,-27.48
2677,-0.50,6.34,-8.07,0.02,0.01,-0.00,-45.78,23.41,-27.48
2688,-0.51,6.36,-8.09,0.02,0.01,-0.00,-44.15,22.65,-26.37
2700,-0.51,6.36,-8.09,0.02,0.01,-0.00,-44.15,22.65,-26.37
2710,-0.49,6.36,-8.08,0.02,0.01,-0.00,-44.15,22.65,-26.37
2721,-0.49,6.35,-8.05,0.02,0.01,-0.00,-44.15,22.65,-26.37
2732,-0.49,6.35,-8.05,0.02,0.01,-0.00,-44.15,22.65,-26.37
2743,-0.50,6.35,-8.05,0.02,0.01,-0.00,-44.15,22.65,-26.37
2754,-0.50,6.35,-8.05,0.02,0.01,-0.00,-44.15,22.65,-26.37
2765,-0.51,6.36,-8.08,0.02,0.01,-0.00,-44.15,22.65,-26.37
2776,-0.51,6.36,-8.08,0.02,0.01,-0.00,-44.15,22.65,-26.37
2787,-0.50,6.37,-8.08,0.02,0.01,-0.00,-44.15,22.65,-26.37
2798,-0.50,6.37,-8.08,0.02,0.01,-0.00,-44.15,22.65,-26.37
2809,-0.51,6.35,-8.04,0.02,0.01,-0.00,-44.15,22.65,-26.37
2820,-0.50,6.35,-8.10,0.02,0.01,-0.00,-45.54,22.65,-26.37
2831,-0.50,6.35,-8.10,0.02,0.01,-0.00,-45.54,21.42,-26.69
2842,-0.49,6.35,-8.08,0.02,0.01,-0.00,-45.54,21.42,-26.69
2853,-0.49,6.35,-8.08,0.02,0.01,-0.00,-45.54,21.42,-26.69
2864,-0.51,6.36,-8.08,0.02,0.01,-0.00,-45.54,21.42,-26.69
2875,-0.51,6.36,-8.08,0.02,0.01,-0.00,-45.54,21.42,-26.69
2886,-0.52,6.36,-8.07,0.02,0.01,-0.00,-45.54,21.42,-26.69
2897,-0.52,6.36,-8.07,0.02,0.01,-0.00,-45.54,21.42,-26.69
2908,-0.51,6.34,-8.06,0.02,0.01,-0.00,-45.54,21.42,-26.69
2919,-0.51,6.34,-8.06,0.02,0.01,-0.00,-45.54,21.42,-26.69
2930,-0.50,6.36,-8.07,0.02,0.01,-0.00,-45.54,21.42,-26.69
2941,-0.51,6.35,-8.05,0.02,0.01,-0.00,-43.91,22.80,-26.21
2952,-0.51,6.35,-8.05,0.02,0.01,-0.00,-43.91,22.80,-26.21
2963,-0.51,6.36,-8.06,0.02,0.01,-0.00,-43.91,22.80,-26.21
2974,-0.51,6.36,-8.06,0.02,0.01,-0.00,-43.91,22.80,-26.21
2985,-0.52,6.35,-8.07,0.02,0.01,-0.00,-43.91,22.80,-26.21
2996,-0.52,6.35,-8.07,0.02,0.01,-0.00,-43.91,22.80,-26.21
3007,-0.50,6.35,-8.05,0.02,0.01,-0.00,-43.91,22.80,-26.21
3018,-0.50,6.35,-8.05,0.02,0.01,-0.00,-43.91,22.80,-26.21
3029,-0.51,6.36,-8.10,0.02,0.01,-0.00,-43.91,22.80,-26.21
3040,-0.51,6.36,-8.10,0.02,0.01,-0.00,-43.91,22.80,-26.21
3051,-0.51,6.36,-8.07,0.02,0.01,-0.00,-43.91,22.80,-26.21
3062,-0.51,6.36,-8.08,0.02,0.01,-0.00,-45.31,22.49,-25.58
3073,-0.51,6.36,-8.08,0.02,0.01,-0.00,-45.31,22.49,-25.58
3084,-0.51,6.34,-8.08,0.02,0.01,-0.00,-45.31,22.49,-25.58
3095,-0.51,6.34,-8.08,0.02,0.01,-0.00,-45.31,22.49,-25.58
3107,-0.50,6.35,-8.07,0.02,0.01,-0.00,-45.31,22.49,-25.58
3117,-0.50,6.35,-8.07,0.02,0.01,-0.00,-45.31,22.49,-25.58
3128,-0.51,6.35,-8.06,0.02,0.01,-0.00,-45.31,22.49,-25.58
3139,-0.51,6.35,-8.06,0.02,0.01,-0.00,-45.31,22.49,-25.58
3150,-0.51,6.36,-8.08,0.02,0.01,-0.00,-45.31,22.49,-25.58
3161,-0.51,6.35,-8.08,0.02,0.01,-0.00,-45.31,22.49,-25.58
3172,-0.51,6.35,-8.08,0.02,0.01,-0.00,-45.31,22.49,-25.58
3183,-0.51,6.35,-8.07,0.02,0.01,-0.00,-45.31,22.49,-25.58
3194,-0.51,6.35,-8.07,0.02,0.01,-0.00,-45.31,22.49,-25.58
3205,-0.50,6.37,-8.08,0.02,0.01,-0.00,-43.91,23.11,-27.16
3216,-0.50,6.37,-8.08,0.02,0.01,-0.00,-43.91,23.11,-27.16
3227,-0.50,6.36,-8.09,0.02,0.01,-0.00,-43.91,23.11,-27.16
3238,-0.50,6.36,-8.09,0.02,0.01,-0.00,-43.91,23.11,-27.16
3249,-0.51,6.36,-8.05,0.02,0.01,-0.00,-43.91,23.11,-27.16
3260,-0.51,6.36,-8.05,0.02,0.01,-0.00,-43.91,23.11,-27.16
3271,-0.51,6.36,-8.07,0.02,0.01,-0.00,-43.91,23.11,-27.16
3282,-0.51,6.36,-8.09,0.02,0.01,-0.00,-43.91,23.11,-27.16
3293,-0.51,6.36,-8.09,0.02,0.01,-0.00,-43.91,23.11,-27.16
3304,-0.52,6.36,-8.06,0.02,0.01,-0.00,-43.91,23.11,-27.16
3315,-0.52,6.36,-8.06,0.02,0.01,-0.00,-43.91,23.11,-27.16
3326,-0.49,6.36,-8.08,0.02,0.01,-0.00,-45.78,21.88,-26.85
3337,-0.49,6.36,-8.08,0.02,0.01,-0.00,-45.78,21.88,-26.85
3348,-0.52,6.35,-8.07,0.02,0.01,-0.00,-45.78,21.88,-26.85
3359,-0.52,6.35,-8.07,0.02,0.01,-0.00,-45.78,21.88,-26.85
3370,-0.51,6.37,-8.07,0.02,0.01,-0.00,-45.78,21.88,-26.85
3381,-0.50,6.36,-8.06,0.02,0.01,-0.00,-45.78,21.88,-26.85
3392,-0.50,6.36,-8.06,0.02,0.01,-0.00,-45.78,21.88,-26.85
3403,-0.49,6.36,-8.05,0.02,0.01,-0.00,-45.78,21.88,-26.85
3414,-0.49,6.36,-8.05,0.02,0.01,-0.00,-45.78,21.88,-26.85
3425,-0.51,6.35,-8.05,0.02,0.01,-0.00,-45.78,21.88,-26.85
3436,-0.51,6.35,-8.05,0.02,0.01,-0.00,-45.78,21.88,-26.85
3447,-0.51,6.35,-8.08,0.02,0.01,-0.00,-43.68,22.95,-26.69
3458,-0.51,6.35,-8.08,0.02,0.01,-0.00,-43.68,22.95,-26.69
3469,-0.50,6.36,-8.07,0.02,0.01,-0.00,-43.68,22.95,-26.69
3480,-0.50,6.36,-8.07,0.02,0.01,-0.00,-43.68,22.95,-26.69
3491,-0.50,6.35,-8.08,0.02,0.01,-0.00,-43.68,22.95,-26.69
3502,-0.50,6.35,-8.07,0.02,0.01,-0.00,-43.68,22.95,-26.69
3513,-0.50,6.35,-8.07,0.02,0.01,-0.00,-43.68,22.95,-26.69
3524,-0.51,6.35,-8.08,0.02,0.01,-0.00,-43.68,22.95,-26.69
3535,-0.51,6.35,-8.08,0.02,0.01,-0.00,-43.68,22.95,-26.69
3546,-0.52,6.35,-8.06,0.02,0.01,-0.00,-43.68,22.95,-26.69
3558,-0.52,6.35,-8.06,0.02,0.01,-0.00,-43.68,22.95,-26.69
3568,-0.51,6.35,-8.06,0.02,0.01,-0.00,-45.08,22.03,-27.64
3579,-0.51,6.35,-8.06,0.02,0.01,-0.00,-45.08,22.03,-27.64
3590,-0.51,6.35,-8.09,0.02,0.01,-0.00,-45.08,22.03,-27.64
3601,-0.50,6.35,-8.07,0.02,0.01,-0.00,-45.08,22.03,-27.64
3612,-0.50,6.35,-8.07,0.02,0.01,-0.00,-45.08,22.03,-27.64
3623,-0.50,6.36,-8.10,0.02,0.01,-0.00,-45.08,22.03,-27.64
3634,-0.50,6.36,-8.10,0.02,0.01,-0.00,-45.08,22.03,-27.64
3645,-0.51,6.37,-8.07,0.02,0.01,-0.00,-45.08,22.03,-27.64
3656,-0.51,6.37,-8.07,0.02,0.01,-0.00,-45.08,22.03,-27.64
3667,-0.50,6.35,-8.06,0.02,0.01,-0.00,-45.08,22.03,-27.64
3678,-0.50,6.35,-8.06,0.02,0.01,-0.00,-45.08,22.03,-27.64
3689,-0.51,6.34,-8.08,0.02,0.01,-0.00,-45.08,22.03,-27.64
3700,-0.51,6.34,-8.08,0.02,0.01,-0.00,-45.08,22.03,-27.64
3711,-0.51,6.35,-8.10,0.02,0.01,-0.00,-42.52,22.19,-26.21
3722,-0.50,6.35,-8.09,0.02,0.01,-0.00,-42.52,22.19,-26.21
3733,-0.50,6.35,-8.09,0.02,0.01,-0.00,-42.52,22.19,-26.21
3744,-0.49,6.37,-8.08,0.02,0.01,-0.00,-42.52,22.19,-26.21
3755,-0.49,6.37,-8.08,0.02,0.01,-0.00,-42.52,22.19,-26.21
3766,-0.49,6.36,-8.08,0.02,0.01,-0.00,-42.52,22.19,-26.21
3777,-0.49,6.36,-8.08,0.02,0.01,-0.00,-42.52,22.19,-26.21
3788,-0.51,6.35,-8.06,0.02,0.01,-0.00,-42.52,22.19,-26.21
3799,-0.51,6.35,-8.06,0.02,0.01,-0.00,-42.52,22.19,-26.21
3810,-0.51,6.37,-8.06,0.02,0.01,-0.00,-42.52,22.19,-26.21
3821,-0.51,6.36,-8.07,0.02,0.01,-0.00,-44.84,22.19,-26.21
3832,-0.51,6.36,-8.07,0.02,0.01,-0.00,-44.84,22.49,-27.16
3843,-0.52,6.35,-8.08,0.02,0.01,-0.00,-44.84,22.49,-27.16
3854,-0.52,6.35,-8.08,0.02,0.01,-0.00,-44.84,22.49,-27.16
3865,-0.50,6.36,-8.07,0.02,0.01,-0.00,-44.84,22.49,-27.16
3876,-0.50,6.36,-8.07,0.02,0.01,-0.00,-44.84,22.49,-27.16
3887,-0.51,6.35,-8.04,0.02,0.01,-0.00,-44.84,22.49,-27.16
3898,-0.51,6.35,-8.04,0.02,0.01,-0.00,-44.84,22.49,-27.16
3909,-0.50,6.37,-8.07,0.02,0.01,-0.00,-44.84,22.49,-27.16
3920,-0.50,6.37,-8.07,0.02,0.01,-0.00,-44.84,22.49,-27.16
3931,-0.51,6.35,-8.07,0.02,0.01,-0.00,-44.84,22.49,-27.16
3942,-0.51,6.35,-8.09,0.02,0.01,-0.00,-45.31,21.88,-26.53
3953,-0.51,6.35,-8.09,0.02,0.01,-0.00,-45.31,21.88,-26.53
3964,-0.50,6.36,-8.07,0.02,0.01,-0.00,-45.31,21.88,-26.53
3975,-0.50,6.36,-8.07,0.02,0.01,-0.00,-45.31,21.88,-26.53
3986,-0.50,6.35,-8.08,0.02,0.01,-0.00,-45.31,21.88,-26.53
3997,-0.50,6.35,-8.08,0.02,0.01,-0.00,-45.31,21.88,-26.53
4008,-0.50,6.35,-8.07,0.02,0.01,-0.00,-45.31,21.88,-26.53
4019,-0.50,6.35,-8.07,0.02,0.01,-0.00,-45.31,21.88,-26.53
4030,-0.53,6.36,-8.09,0.02,0.01,-0.00,-45.31,21.88,-26.53
4041,-0.53,6.36,-8.09,0.02,0.01,-0.00,-45.31,21.88,-26.53
4052,-0.51,6.34,-8.07,0.02,0.01,-0.00,-45.31,21.88,-26.53
4063,-0.50,6.36,-8.07,0.02,0.01,-0.00,-45.31,21.88,-26.53
4074,-0.50,6.36,-8.07,0.02,0.01,-0.00,-45.31,21.88,-26.53
4085,-0.52,6.36,-8.07,0.02,0.01,-0.00,-43.68,22.95,-25.10
4096,-0.52,6.36,-8.07,0.02,0.01,-0.00,-43.68,22.95,-25.10
4107,-0.52,6.36,-8.07,0.02,0.01,-0.00,-43.68,22.95,-25.10
4118,-0.52,6.36,-8.07,0.02,0.01,-0.00,-43.68,22.95,-25.10
4129,-0.51,6.36,-8.07,0.02,0.01,-0.00,-43.68,22.95,-25.10
4140,-0.51,6.36,-8.07,0.02,0.01,-0.00,-43.68,22.95,-25.10
4155,-0.51,6.37,-8.07,0.02,0.01,-0.00,-43.68,22.95,-25.10
4162,-0.50,6.34,-8.08,0.02,0.01,-0.00,-43.68,22.95,-25.10
4173,-0.50,6.34,-8.08,0.02,0.01,-0.00,-43.68,22.95,-25.10
4184,-0.50,6.35,-8.07,0.02,0.01,-0.00,-43.68,22.95,-25.10
4195,-0.50,6.35,-8.07,0.02,0.01,-0.00,-43.68,22.95,-25.10
4206,-0.52,6.36,-8.07,0.02,0.01,-0.00,-45.31,23.11,-26.53
4217,-0.52,6.36,-8.07,0.02,0.01,-0.00,-45.31,23.11,-26.53
4229,-0.51,6.35,-8.07,0.02,0.01,-0.00,-45.31,23.11,-26.53
4239,-0.51,6.35,-8.07,0.02,0.01,-0.00,-45.31,23.11,-26.53
4250,-0.51,6.35,-8.05,0.02,0.01,-0.00,-45.31,23.11,-26.53
4261,-0.51,6.35,-8.05,0.02,0.01,-0.00,-45.31,23.11,-26.53
4272,-0.51,6.34,-8.06,0.02,0.01,-0.00,-45.31,23.11,-26.53
4283,-0.51,6.37,-8.06,0.02,0.01,-0.00,-45.31,23.11,-26.53
4299,-0.51,6.37,-8.06,0.02,0.01,-0.00,-45.31,23.11,-26.53
4305,-0.51,6.36,-8.06,0.02,0.01,-0.00,-45.31,23.11,-26.53
4316,-0.51,6.36,-8.06,0.02,0.01,-0.00,-45.31,23.11,-26.53
4327,-0.51,6.37,-8.09,0.02,0.01,-0.00,-44.61,22.95,-27.01
4338,-0.51,6.37,-8.09,0.02,0.01,-0.00,-44.61,22.95,-27.01
4349,-0.51,6.36,-8.08,0.02,0.01,-0.00,-44.61,22.95,-27.01
4360,-0.51,6.36,-8.08,0.02,0.01,-0.00,-44.61,22.95,-27.01
4371,-0.51,6.36,-8.07,0.02,0.01,-0.00,-44.61,22.95,-27.01
4382,-0.51,6.35,-8.07,0.02,0.01,-0.00,-44.61,22.95,-27.01
4393,-0.51,6.35,-8.07,0.02,0.01,-0.00,-44.61,22.95,-27.01
4404,-0.51,6.33,-8.06,0.02,0.01,-0.00,-44.61,22.95,-27.01
4415,-0.51,6.33,-8.06,0.02,0.01,-0.00,-44.61,22.95,-27.01
4426,-0.49,6.34,-8.08,0.02,0.01,-0.00,-44.61,22.95,-27.01
4437,-0.49,6.34,-8.08,0.02,0.01,-0.00,-44.61,22.95,-27.01
4448,-0.49,6.35,-8.09,0.02,0.01,-0.00,-44.61,22.95,-27.01
4459,-0.49,6.35,-8.09,0.02,0.01,-0.00,-44.61,22.95,-27.01
4470,-0.50,6.35,-8.09,0.02,0.01,-0.00,-44.84,22.19,-27.48
4481,-0.50,6.35,-8.09,0.02,0.01,-0.00,-44.84,22.19,-27.48
4492,-0.53,6.36,-8.05,0.02,0.01,-0.00,-44.84,22.19,-27.48
4503,-0.51,6.37,-8.06,0.02,0.01,-0.00,-44.84,22.19,-27.48
4514,-0.51,6.37,-8.06,0.02,0.01,-0.00,-44.84,22.19,-27.48
4525,-0.49,6.36,-8.08,0.02,0.01,-0.00,-44.84,22.19,-27.48
4536,-0.49,6.36,-8.08,0.02,0.01,-0.00,-44.84,22.19,-27.48
4547,-0.48,6.33,-8.08,0.02,0.01,-0.00,-44.84,22.19,-27.48
4558,-0.48,6.33,-8.08,0.02,0.01,-0.00,-44.84,22.19,-27.48
4569,-0.52,6.34,-8.10,0.02,0.01,-0.00,-44.84,22.19,-27.48
4580,-0.52,6.34,-8.10,0.02,0.01,-0.00,-44.84,22.19,-27.48
4591,-0.52,6.36,-8.09,0.02,0.01,-0.00,-44.61,22.34,-26.37
4602,-0.51,6.37,-8.07,0.02,0.01,-0.00,-44.61,22.34,-26.37
4613,-0.51,6.37,-8.07,0.02,0.01,-0.00,-44.61,22.34,-26.37
4624,-0.50,6.36,-8.09,0.02,0.01,-0.00,-44.61,22.34,-26.37
4635,-0.50,6.36,-8.09,0.02,0.01,-0.00,-44.61,22.34,-26.37
4646,-0.50,6.36,-8.07,0.02,0.01,-0.00,-44.61,22.34,-26.37
4657,-0.50,6.36,-8.07,0.02,0.01,-0.00,-44.61,22.34,-26.37
4668,-0.51,6.35,-8.07,0.02,0.01,-0.00,-44.61,22.34,-26.37
4679,-0.51,6.35,-8.07,0.02,0.01,-0.00,-44.61,22.34,-26.37
4690,-0.52,6.37,-8.06,0.02,0.01,-0.00,-44.61,22.34,-26.37
4702,-0.52,6.37,-8.06,0.02,0.01,-0.00,-44.61,22.34,-26.37
4712,-0.51,6.37,-8.10,0.02,0.01,-0.00,-45.78,22.19,-26.53
4723,-0.50,6.35,-8.07,0.02,0.01,-0.00,-45.78,22.19,-26.53
4734,-0.50,6.35,-8.07,0.02,0.01,-0.00,-45.78,22.19,-26.53
4745,-0.51,6.35,-8.05,0.02,0.01,-0.00,-45.78,22.19,-26.53
4756,-0.51,6.35,-8.05,0.02,0.01,-0.00,-45.78,22.19,-26.53
4767,-0.52,6.36,-8.06,0.02,0.01,-0.00,-45.78,22.19,-26.53
4778,-0.52,6.36,-8.06,0.02,0.01,-0.00,-45.78,22.19,-26.53
4789,-0.53,6.36,-8.07,0.02,0.01,-0.00,-45.78,22.19,-26.53
4800,-0.53,6.36,-8.07,0.02,0.01,-0.00,-45.78,22.19,-26.53
4811,-0.52,6.35,-8.07,0.02,0.01,-0.00,-45.78,22.19,-26.53
4822,-0.50,6.35,-8.09,0.02,0.01,-0.00,-46.71,22.19,-26.53
4833,-0.50,6.35,-8.09,0.02,0.01,-0.00,-46.71,22.80,-25.89
4844,-0.50,6.35,-8.10,0.02,0.01,-0.00,-46.71,22.80,-25.89
4855,-0.50,6.35,-8.10,0.02,0.01,-0.00,-46.71,22.80,-25.89
4866,-0.52,6.35,-8.07,0.02,0.01,-0.00,-46.71,22.80,-25.89
4877,-0.52,6.35,-8.07,0.02,0.01,-0.00,-46.71,22.80,-25.89
4888,-0.52,6.35,-8.06,0.02,0.01,-0.00,-46.71,22.80,-25.89
4899,-0.52,6.35,-8.06,0.02,0.01,-0.00,-46.71,22.80,-25.89
4910,-0.50,6.36,-8.10,0.02,0.01,-0.00,-46.71,22.80,-25.89
4921,-0.50,6.36,-8.10,0.02,0.01,-0.00,-46.71,22.80,-25.89
4932,-0.49,6.36,-8.09,0.02,0.01,-0.00,-46.71,22.80,-25.89
4943,-0.49,6.34,-8.09,0.02,0.01,-0.00,-46.71,22.80,-25.89
4954,-0.49,6.34,-8.09,0.02,0.01,-0.00,-46.71,22.80,-25.89
4965,-0.52,6.36,-8.10,0.02,0.01,-0.00,-45.54,23.87,-26.69
4976,-0.52,6.36,-8.10,0.02,0.01,-0.00,-45.54,23.87,-26.69
4987,-0.51,6.36,-8.06,0.02,0.01,-0.00,-45.54,23.87,-26.69
4998,-0.51,6.36,-8.06,0.02,0.01,-0.00,-45.54,23.87,-26.69
5009,-0.51,6.34,-8.08,0.02,0.01,-0.00,-45.54,23.87,-26.69
5020,-0.51,6.34,-8.08,0.02,0.01,-0.00,-45.54,23.87,-26.69
5031,-0.49,6.36,-8.05,0.02,0.01,-0.00,-45.54,23.87,-26.69
5042,-0.49,6.36,-8.05,0.02,0.01,-0.00,-45.54,23.87,-26.69
5053,-0.51,6.36,-8.05,0.02,0.01,-0.00,-45.54,23.87,-26.69
5065,-0.52,6.53,-8.04,-0.01,0.03,-0.03,-45.54,23.87,-26.69
5075,-0.52,6.53,-8.04,-0.01,0.03,-0.03,-45.54,23.87,-26.69
5086,-0.47,6.47,-8.06,0.01,0.51,-0.59,-45.31,21.88,-25.89
5097,-0.47,6.47,-8.06,0.01,0.51,-0.59,-45.31,21.88,-25.89
5108,-0.46,6.37,-8.07,-0.02,0.90,-1.09,-45.31,21.88,-25.89
5119,-0.46,6.37,-8.07,-0.02,0.90,-1.09,-45.31,21.88,-25.89
5130,-0.94,6.69,-7.75,-0.02,0.81,-1.01,-45.31,21.88,-25.89
5141,-0.94,6.69,-7.75,-0.02,0.81,-1.01,-45.31,21.88,-25.89
5157,-0.32,6.06,-8.33,0.05,0.28,-0.29,-45.31,21.88,-25.89
5163,-0.54,6.40,-8.05,-0.01,0.04,-0.04,-45.31,21.88,-25.89
5174,-0.54,6.40,-8.05,-0.01,0.04,-0.04,-45.31,21.88,-25.89
5185,-0.56,6.36,-8.06,0.04,0.11,-0.08,-45.31,21.88,-25.89
5196,-0.56,6.36,-8.06,0.04,0.11,-0.08,-45.31,21.88,-25.89
5207,-0.34,6.37,-8.07,0.05,0.15,-0.11,-45.78,21.88,-27.80
5218,-0.34,6.37,-8.07,0.05,0.15,-0.11,-45.78,21.88,-27.80
5229,-0.42,6.33,-8.13,0.06,0.16,-0.08,-45.78,21.88,-27.80
5240,-0.42,6.33,-8.13,0.06,0.16,-0.08,-45.78,21.88,-27.80
5251,-0.47,6.29,-8.13,0.04,0.14,-0.06,-45.78,21.88,-27.80
5262,-0.47,6.29,-8.13,0.04,0.14,-0.06,-45.78,21.88,-27.80
5273,-0.51,6.30,-8.09,0.01,0.04,0.07,-45.78,21.88,-27.80
5284,-0.25,6.24,-8.20,-0.01,-0.01,0.28,-45.78,21.88,-27.80
5300,-0.25,6.24,-8.20,-0.01,-0.01,0.28,-45.78,21.88,-27.80
5306,-0.28,6.29,-8.40,0.00,-0.05,0.39,-45.78,21.88,-27.80
5317,-0.28,6.29,-8.40,0.00,-0.05,0.39,-45.78,21.88,-27.80
5328,-1.09,6.28,-8.90,0.14,-0.02,0.45,-45.78,21.88,-27.80
5339,-1.09,6.28,-8.90,0.14,-0.02,0.45,-45.78,21.88,-27.80
5350,-0.69,5.86,-8.88,0.72,-0.09,0.63,-43.45,21.57,-28.43
5361,-0.69,5.86,-8.88,0.72,-0.09,0.63,-43.45,21.57,-28.43
5372,0.18,4.88,-7.75,0.97,-0.36,0.88,-43.45,21.57,-28.43
5383,0.29,5.31,-7.79,-0.16,-0.59,1.14,-43.45,21.57,-28.43
5394,0.29,5.31,-7.79,-0.16,-0.59,1.14,-43.45,21.57,-28.43
5405,-0.53,7.97,-8.24,-0.91,-0.73,1.17,-43.45,21.57,-28.43
5416,-0.53,7.97,-8.24,-0.91,-0.73,1.17,-43.45,21.57,-28.43
5427,-0.68,8.69,-7.49,-0.10,-0.29,0.73,-43.45,21.57,-28.43
5438,-0.68,8.69,-7.49,-0.10,-0.29,0.73,-43.45,21.57,-28.43
5449,-0.46,8.72,-7.40,0.70,0.32,0.15,-43.45,21.57,-28.43
5460,-0.46,8.72,-7.40,0.70,0.32,0.15,-43.45,21.57,-28.43
5471,0.53,9.28,-8.65,1.57,0.98,-0.49,-41.36,22.03,-27.64
5482,0.53,9.28,-8.65,1.57,0.98,-0.49,-41.36,22.03,-27.64
5493,-0.97,8.01,-11.00,3.70,1.73,-1.10,-41.36,22.03,-27.64
5504,-0.20,6.16,-15.23,6.47,2.32,-1.51,-41.36,22.03,-27.64
5515,-0.20,6.16,-15.23,6.47,2.32,-1.51,-41.36,22.03,-27.64
5526,0.62,2.60,-14.41,8.07,1.45,-1.56,-41.36,22.03,-27.64
5537,0.62,2.60,-14.41,8.07,1.45,-1.56,-41.36,22.03,-27.64
5548,1.70,0.27,-14.21,6.38,-0.22,-1.56,-41.36,22.03,-27.64
5559,1.70,0.27,-14.21,6.38,-0.22,-1.56,-41.36,22.03,-27.64
5570,0.48,-0.78,-12.62,5.42,-1.03,-1.35,-41.36,22.03,-27.64
5581,0.48,-0.78,-12.62,5.42,-1.03,-1.35,-41.36,22.03,-27.64
5592,-1.39,-0.78,-11.16,4.75,-0.77,-0.96,-42.05,-2.68,-36.37
5603,-1.23,1.35,-13.05,2.34,-0.66,-0.73,-42.05,-2.68,-36.37
5614,-1.23,1.35,-13.05,2.34,-0.66,-0.73,-42.05,-2.68,-36.37
5625,-0.95,2.27,-10.35,1.24,-1.48,-0.88,-42.05,-2.68,-36.37
5636,-0.95,2.27,-10.35,1.24,-1.48,-0.88,-42.05,-2.68,-36.37
5647,-0.68,1.02,-11.05,0.03,-2.43,-1.59,-42.05,-2.68,-36.37
5658,-0.68,1.02,-11.05,0.03,-2.43,-1.59,-42.05,-2.68,-36.37
5669,-0.91,0.17,-13.65,-1.20,-3.14,-2.31,-42.05,-2.68,-36.37
5680,-0.91,0.17,-13.65,-1.20,-3.14,-2.31,-42.05,-2.68,-36.37
5691,-0.63,1.65,-9.28,-2.63,-3.81,-2.87,-42.05,-2.68,-36.37
5702,-0.63,1.65,-9.28,-2.63,-3.81,-2.87,-42.05,-2.68,-36.37
5713,0.34,2.81,0.57,-7.70,-3.88,-4.12,-42.05,-2.68,-36.37
5724,-2.16,10.35,2.44,-17.45,-2.55,-6.29,-52.52,-0.99,-34.63
5735,-2.16,10.35,2.44,-17.45,-2.55,-6.29,-52.52,-0.99,-34.63
5746,0.80,11.41,-4.67,-17.45,1.36,-7.66,-52.52,-0.99,-34.63
5757,0.80,11.41,-4.67,-17.45,1.36,-7.66,-52.52,-0.99,-34.63
5768,3.31,4.31,-3.98,-7.89,5.40,-6.88,-52.52,-0.99,-34.63
5779,3.31,4.31,-3.98,-7.89,5.40,-6.88,-52.52,-0.99,-34.63
5790,2.32,4.71,-27.51,7.05,6.51,-5.88,-52.52,-0.99,-34.63
5801,2.32,4.71,-27.51,7.05,6.51,-5.88,-52.52,-0.99,-34.63
5812,-0.01,-5.73,3.58,13.87,0.30,-4.69,-52.52,-0.99,-34.63
5823,2.39,-4.28,-5.14,3.18,-0.09,-4.07,-52.52,-0.99,-34.63
5834,2.39,-4.28,-5.14,3.18,-0.09,-4.07,-52.52,-0.99,-34.63
5845,-1.65,-1.16,-8.09,-1.03,-0.37,-3.11,-50.89,-11.28,-32.56
5856,-1.65,-1.16,-8.09,-1.03,-0.37,-3.11,-50.89,-11.28,-32.56
5867,-3.41,3.26,-6.05,-3.65,-1.22,-3.09,-50.89,-11.28,-32.56
5878,-3.41,3.26,-6.05,-3.65,-1.22,-3.09,-50.89,-11.28,-32.56
5889,-3.95,6.42,-7.75,-2.93,-0.51,-3.81,-50.89,-11.28,-32.56
5900,-3.95,6.42,-7.75,-2.93,-0.51,-3.81,-50.89,-11.28,-32.56
5911,-3.27,3.05,-8.91,2.51,0.22,-4.22,-50.89,-11.28,-32.56
5922,-3.27,3.05,-8.91,2.51,0.22,-4.22,-50.89,-11.28,-32.56
5933,-2.56,-6.34,-8.61,6.03,-0.29,-3.33,-50.89,-11.28,-32.56
5944,-4.84,-5.42,-5.11,4.37,-1.44,-1.17,-50.89,-11.28,-32.56
5955,-4.84,-5.42,-5.11,4.37,-1.44,-1.17,-50.89,-11.28,-32.56
5966,-7.75,0.32,-6.63,1.79,-1.33,-0.16,-51.13,-22.79,-26.05
5977,-7.75,0.32,-6.63,1.79,-1.33,-0.16,-51.13,-22.79,-26.05
5988,-8.50,2.70,-9.09,3.54,-0.38,-0.22,-51.13,-22.79,-26.05
5999,-8.50,2.70,-9.09,3.54,-0.38,-0.22,-51.13,-22.79,-26.05
6010,-10.85,-3.97,-3.96,5.39,0.09,-0.25,-51.13,-22.79,-26.05
6021,-10.85,-3.97,-3.96,5.39,0.09,-0.25,-51.13,-22.79,-26.05
6032,-7.91,-3.51,-9.69,1.19,0.15,0.11,-51.13,-22.79,-26.05
6043,-7.91,-3.51,-9.69,1.19,0.15,0.11,-51.13,-22.79,-26.05
6054,-8.44,-3.96,-6.32,1.07,-0.03,0.19,-51.13,-22.79,-26.05
6065,-8.37,-5.06,-6.40,-1.59,0.36,0.00,-51.13,-22.79,-26.05
6076,-8.37,-5.06,-6.40,-1.59,0.36,0.00,-51.13,-22.79,-26.05
6087,-5.20,-1.38,-9.93,-6.39,0.25,0.36,-50.43,-21.71,-25.26
6098,-5.20,-1.38,-9.93,-6.39,0.25,0.36,-50.43,-21.71,-25.26
6109,-6.44,0.76,-9.55,-2.87,0.66,1.48,-50.43,-21.71,-25.26
6120,-6.44,0.76,-9.55,-2.87,0.66,1.48,-50.43,-21.71,-25.26
6131,-6.91,1.64,-10.36,-1.33,0.13,1.07,-50.43,-21.71,-25.26
6142,-6.91,1.64,-10.36,-1.33,0.13,1.07,-50.43,-21.71,-25.26
6153,-7.19,-0.28,-6.40,-4.23,-1.01,0.23,-50.43,-21.71,-25.26
6164,-7.98,-0.92,-7.83,-6.88,-1.43,0.20,-50.43,-21.71,-25.26
6175,-7.98,-0.92,-7.83,-6.88,-1.43,0.20,-50.43,-21.71,-25.26
6186,-6.91,1.28,-7.61,-9.95,-1.88,0.60,-50.43,-21.71,-25.26
6197,-6.91,1.28,-7.61,-9.95,-1.88,0.60,-50.43,-21.71,-25.26
6209,-8.01,5.11,-3.89,-14.12,-2.76,0.95,-50.43,-21.71,-25.26
6219,-8.01,5.11,-3.89,-14.12,-2.76,0.95,-50.43,-21.71,-25.26
6230,-4.73,8.72,-6.84,-13.88,-2.29,1.35,-58.57,6.38,-29.55
6241,-4.73,8.72,-6.84,-13.88,-2.29,1.35,-58.57,6.38,-29.55
6252,-5.96,12.71,-4.27,-5.76,-1.11,1.21,-58.57,6.38,-29.55
6263,-5.96,12.71,-4.27,-5.76,-1.11,1.21,-58.57,6.38,-29.55
6274,-2.96,11.03,-0.54,0.19,-0.16,-0.29,-58.57,6.38,-29.55
6285,-1.85,6.97,-4.06,2.96,0.58,-1.72,-58.57,6.38,-29.55
6296,-1.85,6.97,-4.06,2.96,0.58,-1.72,-58.57,6.38,-29.55
6307,-6.51,6.31,-9.10,5.21,0.45,-2.07,-58.57,6.38,-29.55
6318,-6.51,6.31,-9.10,5.21,0.45,-2.07,-58.57,6.38,-29.55
6329,-12.69,3.69,-2.74,5.83,-0.47,-2.12,-58.57,6.38,-29.55
6340,-12.69,3.69,-2.74,5.83,-0.47,-2.12,-58.57,6.38,-29.55
6351,-9.49,3.37,-2.64,2.26,-0.58,-1.69,-62.29,1.46,-27.64
6362,-9.49,3.37,-2.64,2.26,-0.58,-1.69,-62.29,1.46,-27.64
6373,-6.60,3.90,-5.52,1.17,-0.20,-1.17,-62.29,1.46,-27.64
6384,-7.24,2.65,-5.11,3.42,-0.02,-0.77,-62.29,1.46,-27.64
6395,-7.24,2.65,-5.11,3.42,-0.02,-0.77,-62.29,1.46,-27.64
6406,-7.39,1.76,-4.74,4.09,-0.12,-0.44,-62.29,1.46,-27.64
6417,-7.39,1.76,-4.74,4.09,-0.12,-0.44,-62.29,1.46,-27.64
6428,-6.97,3.57,-5.98,2.81,-0.33,-0.51,-62.29,1.46,-27.64
6440,-6.97,3.57,-5.98,2.81,-0.33,-0.51,-62.29,1.46,-27.64
6450,-10.77,2.20,-5.61,2.89,-0.36,-0.74,-62.29,1.46,-27.64
6461,-10.77,2.20,-5.61,2.89,-0.36,-0.74,-62.29,1.46,-27.64
6472,-10.02,-1.60,-4.43,2.73,-0.17,-0.68,-61.13,-10.97,-23.35
6483,-10.02,-1.60,-4.43,2.73,-0.17,-0.68,-61.13,-10.97,-23.35
6494,-6.45,-2.14,-4.43,1.08,0.06,-0.08,-61.13,-10.97,-23.35
6505,-6.78,2.43,-8.31,-0.43,0.09,0.61,-61.13,-10.97,-23.35
6516,-6.78,2.43,-8.31,-0.43,0.09,0.61,-61.13,-10.97,-23.35
6527,-8.03,2.25,-6.16,-0.07,-0.32,0.66,-61.13,-10.97,-23.35
6538,-8.03,2.25,-6.16,-0.07,-0.32,0.66,-61.13,-10.97,-23.35
6549,-8.84,2.17,-6.40,-0.02,-0.35,0.58,-61.13,-10.97,-23.35
6560,-8.84,2.17,-6.40,-0.02,-0.35,0.58,-61.13,-10.97,-23.35
6571,-7.71,3.20,-6.09,-0.14,-0.30,0.39,-61.13,-10.97,-23.35
6582,-7.71,3.20,-6.09,-0.14,-0.30,0.39,-61.13,-10.97,-23.35
6593,-7.64,3.67,-6.15,-0.20,-0.36,0.05,-61.13,-10.97,-23.35
6604,-7.27,1.71,-6.78,-0.09,-0.30,-0.26,-62.76,-9.89,-22.56
6615,-7.27,1.71,-6.78,-0.09,-0.30,-0.26,-62.76,-9.89,-22.56
6626,-9.38,1.24,-5.13,0.02,-0.35,-0.07,-62.76,-9.89,-22.56
6637,-9.38,1.24,-5.13,0.02,-0.35,-0.07,-62.76,-9.89,-22.56
6653,-8.55,1.87,-5.45,-0.80,-0.23,0.18,-62.76,-9.89,-22.56
6659,-8.55,1.87,-5.45,-0.80,-0.23,0.18,-62.76,-9.89,-22.56
6670,-8.22,3.44,-5.63,-0.86,-0.16,0.24,-62.76,-9.89,-22.56
6681,-8.22,3.44,-5.63,-0.86,-0.16,0.24,-62.76,-9.89,-22.56
6692,-7.96,3.30,-5.20,-0.10,-0.03,-0.09,-62.76,-9.89,-22.56
6703,-7.96,3.30,-5.20,-0.10,-0.03,-0.09,-62.76,-9.89,-22.56
6714,-8.28,1.44,-5.80,0.41,0.05,-0.46,-62.76,-9.89,-22.56
6725,-9.11,1.16,-5.67,0.34,-0.07,-0.34,-62.99,-10.66,-21.45
6736,-9.11,1.16,-5.67,0.34,-0.07,-0.34,-62.99,-10.66,-21.45
6747,-7.87,2.29,-5.38,-0.11,-0.07,-0.14,-62.99,-10.66,-21.45
6758,-7.87,2.29,-5.38,-0.11,-0.07,-0.14,-62.99,-10.66,-21.45
6769,-7.75,2.43,-5.65,-0.12,-0.08,-0.22,-62.99,-10.66,-21.45
6780,-7.75,2.43,-5.65,-0.12,-0.08,-0.22,-62.99,-10.66,-21.45
6791,-9.86,1.28,-5.05,0.04,-0.12,-0.27,-62.99,-10.66,-21.45
6802,-9.86,1.28,-5.05,0.04,-0.12,-0.27,-62.99,-10.66,-21.45
6813,-8.66,1.34,-4.75,-0.35,-0.01,-0.08,-62.99,-10.66,-21.45
6824,-8.19,2.66,-5.86,-0.43,0.11,0.05,-62.99,-10.66,-21.45
6835,-8.19,2.66,-5.86,-0.43,0.11,0.05,-62.99,-10.66,-21.45
6846,-7.89,2.92,-5.94,-0.11,0.07,-0.05,-64.85,-9.74,-21.45
6857,-7.89,2.92,-5.94,-0.11,0.07,-0.05,-64.85,-9.74,-21.45
6868,-8.15,1.99,-5.83,0.18,0.01,-0.20,-64.85,-9.74,-21.45
6879,-8.15,1.99,-5.83,0.18,0.01,-0.20,-64.85,-9.74,-21.45
6890,-8.50,1.20,-5.47,0.16,-0.05,-0.16,-64.85,-9.74,-21.45
6901,-8.50,1.20,-5.47,0.16,-0.05,-0.16,-64.85,-9.74,-21.45
6912,-8.39,1.78,-5.39,-0.05,-0.08,-0.04,-64.85,-9.74,-21.45
6923,-8.39,1.78,-5.39,-0.05,-0.08,-0.04,-64.85,-9.74,-21.45
6934,-7.84,2.62,-5.91,-0.05,-0.08,-0.02,-64.85,-9.74,-21.45
6945,-9.00,2.34,-5.38,0.40,-0.20,-0.15,-64.85,-9.74,-21.45
6957,-9.00,2.34,-5.38,0.40,-0.20,-0.15,-64.85,-9.74,-21.45
6967,-8.15,1.43,-5.45,0.63,-0.15,-0.16,-64.85,-9.74,-21.45
6978,-8.15,1.43,-5.45,0.63,-0.15,-0.16,-64.85,-9.74,-21.45
6989,-9.38,1.74,-5.78,0.39,-0.23,-0.04,-62.06,-10.35,-21.13
7000,-9.38,1.74,-5.78,0.39,-0.23,-0.04,-62.06,-10.35,-21.13
7011,-8.72,0.91,-4.44,0.61,-0.19,0.09,-62.06,-10.35,-21.13
7022,-8.72,0.91,-4.44,0.61,-0.19,0.09,-62.06,-10.35,-21.13
7033,-8.64,1.67,-5.39,0.18,-0.10,0.24,-62.06,-10.35,-21.13
7044,-8.64,1.67,-5.39,0.18,-0.10,0.24,-62.06,-10.35,-21.13
7055,-8.59,1.80,-5.56,0.06,-0.16,0.26,-62.06,-10.35,-21.13
7066,-8.76,2.08,-5.63,-0.07,-0.31,0.23,-62.06,-10.35,-21.13
7077,-8.76,2.08,-5.63,-0.07,-0.31,0.23,-62.06,-10.35,-21.13
7088,-8.96,1.61,-4.76,0.03,-0.29,0.19,-62.06,-10.35,-21.13
7099,-8.96,1.61,-4.76,0.03,-0.29,0.19,-62.06,-10.35,-21.13
7110,-8.90,1.06,-4.79,-0.16,-0.21,0.11,-66.25,-10.05,-19.86
7121,-8.90,1.06,-4.79,-0.16,-0.21,0.11,-66.25,-10.05,-19.86
7132,-8.95,1.16,-4.50,-0.45,-0.14,0.10,-66.25,-10.05,-19.86
7143,-8.95,1.16,-4.50,-0.45,-0.14,0.10,-66.25,-10.05,-19.86
7154,-8.51,3.01,-5.51,-0.81,0.02,0.07,-66.25,-10.05,-19.86
7165,-8.85,4.13,-5.57,-0.50,0.11,-0.17,-66.25,-10.05,-19.86
7176,-8.85,4.13,-5.57,-0.50,0.11,-0.17,-66.25,-10.05,-19.86
7188,-8.19,3.98,-5.60,0.09,0.29,-0.54,-66.25,-10.05,-19.86
7198,-8.19,3.98,-5.60,0.09,0.29,-0.54,-66.25,-10.05,-19.86
7209,-7.70,1.67,-5.88,0.47,0.46,-0.68,-66.25,-10.05,-19.86
7220,-7.70,1.67,-5.88,0.47,0.46,-0.68,-66.25,-10.05,-19.86
7231,-8.31,1.13,-5.85,0.32,0.36,-0.39,-64.15,-10.82,-20.34
7242,-8.31,1.13,-5.85,0.32,0.36,-0.39,-64.15,-10.82,-20.34
7253,-8.74,1.53,-5.10,0.23,0.19,-0.10,-64.15,-10.82,-20.34
7264,-8.74,1.53,-5.10,0.23,0.19,-0.10,-64.15,-10.82,-20.34
7275,-8.11,1.17,-5.51,0.35,0.13,0.09,-64.15,-10.82,-20.34
7286,-8.11,1.22,-6.08,0.40,-0.03,0.34,-64.15,-10.82,-20.34
7297,-8.11,1.22,-6.08,0.40,-0.03,0.34,-64.15,-10.82,-20.34
7308,-8.49,2.06,-5.60,0.13,-0.23,0.51,-64.15,-10.82,-20.34
7319,-8.49,2.06,-5.60,0.13,-0.23,0.51,-64.15,-10.82,-20.34
7330,-8.81,2.43,-5.42,0.19,-0.29,0.54,-64.15,-10.82,-20.34
7341,-8.81,2.43,-5.42,0.19,-0.29,0.54,-64.15,-10.82,-20.34
7352,-8.26,1.63,-5.89,0.42,-0.22,0.64,-65.78,-10.66,-20.50
7363,-8.26,1.63,-5.89,0.42,-0.22,0.64,-65.78,-10.66,-20.50
7374,-8.79,1.65,-5.90,0.53,-0.20,0.87,-65.78,-10.66,-20.50
7385,-8.36,1.65,-5.39,0.20,-0.29,0.69,-65.78,-10.66,-20.50
7396,-8.36,1.65,-5.39,0.20,-0.29,0.69,-65.78,-10.66,-20.50
7407,-8.87,1.56,-3.92,-0.28,-0.26,0.43,-65.78,-10.66,-20.50
7418,-8.87,1.56,-3.92,-0.28,-0.26,0.43,-65.78,-10.66,-20.50
7429,-8.60,2.00,-2.94,-0.75,0.02,0.30,-65.78,-10.66,-20.50
7440,-8.60,2.00,-2.94,-0.75,0.02,0.30,-65.78,-10.66,-20.50
7451,-9.28,3.67,-4.54,-1.27,0.36,0.08,-65.78,-10.66,-20.50
7462,-9.28,3.67,-4.54,-1.27,0.36,0.08,-65.78,-10.66,-20.50
7473,-9.06,3.26,-5.66,-0.72,0.47,-0.33,-65.78,-10.66,-20.50
7484,-9.06,3.26,-5.66,-0.72,0.47,-0.33,-65.78,-10.66,-20.50
7495,-8.27,1.62,-5.72,-0.01,0.35,-0.52,-65.55,-8.05,-20.34
7506,-8.32,2.04,-5.95,-0.00,0.10,-0.31,-65.55,-8.05,-20.34
7517,-8.32,2.04,-5.95,-0.00,0.10,-0.31,-65.55,-8.05,-20.34
7528,-7.89,3.31,-6.04,0.04,-0.11,-0.05,-65.55,-8.05,-20.34
7539,-7.89,3.31,-6.04,0.04,-0.11,-0.05,-65.55,-8.05,-20.34
7550,-8.42,2.42,-5.40,0.52,-0.26,0.09,-65.55,-8.05,-20.34
7561,-8.42,2.42,-5.40,0.52,-0.26,0.09,-65.55,-8.05,-20.34
7572,-8.68,1.46,-4.83,0.72,-0.27,0.30,-65.55,-8.05,-20.34
7583,-8.68,1.46,-4.83,0.72,-0.27,0.30,-65.55,-8.05,-20.34
7594,-8.69,1.61,-5.21,0.42,-0.24,0.47,-65.55,-8.05,-20.34
7605,-8.71,1.98,-4.84,-0.05,-0.33,0.50,-64.85,-7.59,-19.23
7616,-8.71,1.98,-4.84,-0.05,-0.33,0.50,-64.85,-7.59,-19.23
7627,-9.15,2.38,-4.62,-0.27,-0.33,0.44,-64.85,-7.59,-19.23
7638,-9.15,2.38,-4.62,-0.27,-0.33,0.44,-64.85,-7.59,-19.23
7649,-8.96,2.14,-4.88,-0.35,-0.32,0.27,-64.85,-7.59,-19.23
7660,-8.96,2.14,-4.88,-0.35,-0.32,0.27,-64.85,-7.59,-19.23
7671,-10.24,1.93,-3.59,-0.45,-0.30,0.14,-64.85,-7.59,-19.23
7682,-10.24,1.93,-3.59,-0.45,-0.30,0.14,-64.85,-7.59,-19.23
7693,-9.96,2.02,-2.41,-0.60,-0.01,0.01,-64.85,-7.59,-19.23
7704,-9.96,2.02,-2.41,-0.60,-0.01,0.01,-64.85,-7.59,-19.23
7715,-8.15,3.47,-4.38,-0.88,0.65,0.04,-64.85,-7.59,-19.23
7727,-6.42,4.25,-7.72,-0.69,0.80,-0.10,-65.31,-7.59,-19.86
7737,-6.42,4.25,-7.72,-0.69,0.80,-0.10,-65.31,-7.59,-19.86
7748,-6.59,3.50,-6.69,-0.38,0.31,-0.21,-65.31,-7.59,-19.86
7759,-6.59,3.50,-6.69,-0.38,0.31,-0.21,-65.31,-7.59,-19.86
7775,-6.74,5.13,-7.19,-0.53,-0.02,-0.12,-65.31,-7.59,-19.86
7781,-6.74,5.13,-7.19,-0.53,-0.02,-0.12,-65.31,-7.59,-19.86
7792,-8.09,4.67,-5.35,-0.09,-0.36,-0.36,-65.31,-7.59,-19.86
7803,-8.09,4.67,-5.35,-0.09,-0.36,-0.36,-65.31,-7.59,-19.86
7814,-9.32,-0.00,-2.56,0.29,-0.29,-0.63,-65.31,-7.59,-19.86
7825,-8.99,0.43,-4.29,-0.35,0.10,-0.25,-65.31,-7.59,-19.86
7836,-8.99,0.43,-4.29,-0.35,0.10,-0.25,-65.31,-7.59,-19.86
7847,-8.80,3.67,-4.57,-0.88,0.16,0.06,-65.31,-7.59,-19.86
7858,-8.80,3.67,-4.57,-0.88,0.16,0.06,-65.31,-7.59,-19.86
7869,-9.27,4.70,-3.77,-0.53,0.27,-0.10,-65.08,-6.52,-20.97
7880,-9.27,4.70,-3.77,-0.53,0.27,-0.10,-65.08,-6.52,-20.97
7891,-10.27,2.95,-4.58,0.47,0.58,-0.38,-65.08,-6.52,-20.97
7902,-10.27,2.95,-4.58,0.47,0.58,-0.38,-65.08,-6.52,-20.97
7913,-10.71,-0.66,-3.96,1.16,0.84,-0.26,-65.08,-6.52,-20.97
7924,-10.71,-0.66,-3.96,1.16,0.84,-0.26,-65.08,-6.52,-20.97
7935,-8.81,0.46,-5.86,0.66,1.15,0.64,-65.08,-6.52,-20.97
7946,-7.16,3.50,-6.62,-0.33,0.59,1.04,-65.08,-6.52,-20.97
7957,-7.16,3.50,-6.62,-0.33,0.59,1.04,-65.08,-6.52,-20.97
7968,-6.43,5.45,-4.96,-0.35,-0.35,0.41,-65.08,-6.52,-20.97
7979,-6.43,5.45,-4.96,-0.35,-0.35,0.41,-65.08,-6.52,-20.97
7990,-6.37,4.45,-4.98,0.43,-0.49,-0.14,-62.99,-5.44,-21.13
8001,-6.37,4.45,-4.98,0.43,-0.49,-0.14,-62.99,-5.44,-21.13
8012,-7.38,3.53,-6.57,0.82,-0.23,-0.08,-62.99,-5.44,-21.13
8023,-7.38,3.53,-6.57,0.82,-0.23,-0.08,-62.99,-5.44,-21.13
8034,-6.04,4.32,-8.18,0.48,-0.03,0.23,-62.99,-5.44,-21.13
8045,-6.04,4.32,-8.18,0.48,-0.03,0.23,-62.99,-5.44,-21.13
8056,-6.00,4.40,-7.76,0.36,-0.17,0.18,-62.99,-5.44,-21.13
8067,-7.69,3.21,-6.76,0.51,-0.38,-0.13,-62.99,-5.44,-21.13
8078,-7.69,3.21,-6.76,0.51,-0.38,-0.13,-62.99,-5.44,-21.13
8089,-9.60,1.32,-4.94,0.64,-0.45,-0.26,-62.99,-5.44,-21.13
8100,-9.60,1.32,-4.94,0.64,-0.45,-0.26,-62.99,-5.44,-21.13
8111,-9.92,0.15,-3.18,0.37,-0.26,-0.13,-64.85,-7.90,-18.59
8122,-9.92,0.15,-3.18,0.37,-0.26,-0.13,-64.85,-7.90,-18.59
8133,-9.39,0.86,-3.80,-0.21,-0.01,-0.02,-64.85,-7.90,-18.59
8144,-9.39,0.86,-3.80,-0.21,-0.01,-0.02,-64.85,-7.90,-18.59
8155,-9.01,1.72,-4.20,-0.40,0.00,0.00,-64.85,-7.90,-18.59
8166,-8.55,3.32,-5.46,-0.38,0.07,0.15,-64.85,-7.90,-18.59
8177,-8.55,3.32,-5.46,-0.38,0.07,0.15,-64.85,-7.90,-18.59
8188,-8.20,4.27,-5.91,-0.28,0.03,0.17,-64.85,-7.90,-18.59
8199,-8.20,4.27,-5.91,-0.28,0.03,0.17,-64.85,-7.90,-18.59
8210,-7.81,3.45,-5.44,0.05,-0.06,-0.04,-64.85,-7.90,-18.59
8221,-7.81,3.45,-5.44,0.05,-0.06,-0.04,-64.85,-7.90,-18.59
8232,-7.95,2.28,-5.86,0.26,-0.14,-0.18,-64.85,-7.90,-18.59
8244,-7.95,2.28,-5.86,0.26,-0.14,-0.18,-64.85,-7.90,-18.59
8254,-9.41,1.76,-5.04,0.25,-0.32,-0.12,-67.18,-6.36,-21.13
8265,-9.41,1.76,-5.04,0.25,-0.32,-0.12,-67.18,-6.36,-21.13
8276,-8.74,2.29,-4.73,-0.09,-0.28,0.04,-67.18,-6.36,-21.13
8292,-9.38,2.46,-4.98,-0.32,-0.22,-0.01,-67.18,-6.36,-21.13
8298,-9.38,2.46,-4.98,-0.32,-0.22,-0.01,-67.18,-6.36,-21.13
8309,-8.51,2.21,-4.66,-0.52,-0.22,-0.07,-67.18,-6.36,-21.13
8320,-8.51,2.21,-4.66,-0.52,-0.22,-0.07,-67.18,-6.36,-21.13
8331,-8.38,3.06,-4.60,-0.66,-0.10,-0.01,-67.18,-6.36,-21.13
8342,-8.38,3.06,-4.60,-0.66,-0.10,-0.01,-67.18,-6.36,-21.13
8353,-8.38,3.41,-4.74,-0.51,0.05,-0.06,-67.18,-6.36,-21.13
8364,-8.38,3.41,-4.74,-0.51,0.05,-0.06,-67.18,-6.36,-21.13
8375,-8.15,3.77,-5.23,-0.14,0.18,-0.11,-68.11,-4.83,-21.77
8386,-7.91,3.43,-4.69,0.26,0.26,-0.15,-68.11,-4.83,-21.77
8397,-7.91,3.43,-4.69,0.26,0.26,-0.15,-68.11,-4.83,-21.77
8408,-8.05,3.38,-6.29,0.69,0.35,-0.11,-68.11,-4.83,-21.77
8419,-8.05,3.38,-6.29,0.69,0.35,-0.11,-68.11,-4.83,-21.77
8430,-8.58,1.86,-5.44,1.11,0.13,0.04,-68.11,-4.83,-21.77
8441,-8.58,1.86,-5.44,1.11,0.13,0.04,-68.11,-4.83,-21.77
8452,-9.01,2.04,-4.42,0.98,-0.08,0.26,-68.11,-4.83,-21.77
8463,-9.01,2.04,-4.42,0.98,-0.08,0.26,-68.11,-4.83,-21.77
8474,-8.85,2.07,-4.96,0.71,-0.12,0.35,-68.11,-4.83,-21.77
8485,-8.85,2.07,-4.96,0.71,-0.12,0.35,-68.11,-4.83,-21.77
8496,-9.08,1.65,-5.19,0.42,-0.18,0.33,-68.57,-6.36,-21.13
8507,-9.11,1.78,-4.86,0.01,-0.30,0.34,-68.57,-6.36,-21.13
8518,-9.11,1.78,-4.86,0.01,-0.30,0.34,-68.57,-6.36,-21.13
8529,-8.79,1.62,-5.19,-0.46,-0.42,0.29,-68.57,-6.36,-21.13
8540,-8.79,1.62,-5.19,-0.46,-0.42,0.29,-68.57,-6.36,-21.13
8551,-9.59,1.58,-3.05,-0.91,-0.41,0.23,-68.57,-6.36,-21.13
8562,-9.59,1.58,-3.05,-0.91,-0.41,0.23,-68.57,-6.36,-21.13
8573,-8.69,3.68,-3.87,-1.13,-0.03,0.11,-68.57,-6.36,-21.13
8584,-8.69,3.68,-3.87,-1.13,-0.03,0.11,-68.57,-6.36,-21.13
8595,-7.67,5.32,-5.53,-0.64,0.40,-0.08,-68.57,-6.36,-21.13
8606,-7.10,5.04,-6.88,-0.03,0.41,-0.41,-66.71,-4.83,-22.08
8617,-7.10,5.04,-6.88,-0.03,0.41,-0.41,-66.71,-4.83,-22.08
8628,-7.30,4.30,-6.51,0.47,0.16,-0.56,-66.71,-4.83,-22.08
8639,-7.30,4.30,-6.51,0.47,0.16,-0.56,-66.71,-4.83,-22.08
8650,-8.20,2.88,-4.76,0.66,0.00,-0.48,-66.71,-4.83,-22.08
8661,-8.20,2.88,-4.76,0.66,0.00,-0.48,-66.71,-4.83,-22.08
8672,-8.36,1.66,-4.69,0.81,0.03,-0.32,-66.71,-4.83,-22.08
8683,-8.36,1.66,-4.69,0.81,0.03,-0.32,-66.71,-4.83,-22.08
8694,-8.52,1.74,-4.89,0.77,0.02,-0.04,-66.71,-4.83,-22.08
8705,-8.52,1.74,-4.89,0.77,0.02,-0.04,-66.71,-4.83,-22.08
8717,-8.50,2.06,-4.77,0.64,-0.01,0.12,-66.71,-4.83,-22.08
8727,-8.75,2.35,-5.46,0.51,-0.02,0.22,-66.71,-4.83,-22.08
8738,-8.75,2.35,-5.46,0.51,-0.02,0.22,-66.71,-4.83,-22.08
8749,-8.70,1.64,-5.46,0.41,-0.14,0.27,-67.41,-9.28,-19.07
8760,-8.70,1.64,-5.46,0.41,-0.14,0.27,-67.41,-9.28,-19.07
8771,-8.77,0.94,-5.13,0.05,-0.26,0.29,-67.41,-9.28,-19.07
8782,-8.77,0.94,-5.13,0.05,-0.26,0.29,-67.41,-9.28,-19.07
8793,-8.71,1.56,-5.01,-0.54,-0.32,0.30,-67.41,-9.28,-19.07
8804,-8.71,1.56,-5.01,-0.54,-0.32,0.30,-67.41,-9.28,-19.07
8815,-9.17,2.49,-4.88,-0.77,-0.28,0.30,-67.41,-9.28,-19.07
8826,-8.89,3.96,-4.09,-0.82,-0.17,0.14,-67.41,-9.28,-19.07
8837,-8.89,3.96,-4.09,-0.82,-0.17,0.14,-67.41,-9.28,-19.07
8848,-8.25,4.57,-4.51,-0.42,0.16,-0.22,-67.41,-9.28,-19.07
8859,-8.25,4.57,-4.51,-0.42,0.16,-0.22,-67.41,-9.28,-19.07
8870,-8.01,2.64,-5.45,0.17,0.31,-0.42,-65.31,-7.28,-20.50
8881,-8.01,2.64,-5.45,0.17,0.31,-0.42,-65.31,-7.28,-20.50
8892,-8.39,3.41,-4.83,0.23,0.20,-0.28,-65.31,-7.28,-20.50
8903,-8.39,3.41,-4.83,0.23,0.20,-0.28,-65.31,-7.28,-20.50
8914,-8.58,3.51,-5.04,0.44,0.17,-0.22,-65.31,-7.28,-20.50
8925,-8.58,3.51,-5.04,0.44,0.17,-0.22,-65.31,-7.28,-20.50
8936,-8.35,2.74,-5.18,0.79,0.13,-0.23,-65.31,-7.28,-20.50
8948,-8.36,1.02,-5.62,0.90,0.03,-0.09,-65.31,-7.28,-20.50
8958,-8.36,1.02,-5.62,0.90,0.03,-0.09,-65.31,-7.28,-20.50
8969,-8.72,1.00,-5.16,0.42,-0.18,0.26,-65.31,-7.28,-20.50
8980,-8.72,1.00,-5.16,0.42,-0.18,0.26,-65.31,-7.28,-20.50
8991,-8.49,1.47,-4.85,-0.23,-0.35,0.47,-66.25,-8.82,-20.50
9002,-8.49,1.47,-4.85,-0.23,-0.35,0.47,-66.25,-8.82,-20.50
9013,-9.05,2.44,-4.47,-0.66,-0.36,0.42,-66.25,-8.82,-20.50
9024,-9.05,2.44,-4.47,-0.66,-0.36,0.42,-66.25,-8.82,-20.50
9035,-8.88,1.85,-4.75,-0.80,-0.28,0.28,-66.25,-8.82,-20.50
9046,-8.88,1.85,-4.75,-0.80,-0.28,0.28,-66.25,-8.82,-20.50
9057,-8.76,3.23,-4.11,-0.96,-0.21,0.17,-66.25,-8.82,-20.50
9068,-8.49,4.90,-4.69,-0.59,0.01,-0.14,-66.25,-8.82,-20.50
9079,-8.49,4.90,-4.69,-0.59,0.01,-0.14,-66.25,-8.82,-20.50
9090,-8.15,3.97,-5.04,0.25,0.22,-0.38,-66.25,-8.82,-20.50
9101,-8.15,3.97,-5.04,0.25,0.22,-0.38,-66.25,-8.82,-20.50
9112,-8.36,2.58,-4.83,0.57,0.20,-0.36,-66.25,-8.82,-20.50
9123,-8.36,2.58,-4.83,0.57,0.20,-0.36,-66.25,-8.82,-20.50
9134,-8.44,3.99,-4.75,0.58,0.13,-0.21,-66.94,-7.44,-19.38
9145,-8.44,3.99,-4.75,0.58,0.13,-0.21,-66.94,-7.44,-19.38
9156,-8.65,2.54,-5.20,0.85,0.12,-0.21,-66.94,-7.44,-19.38
9167,-8.30,0.20,-6.06,0.75,-0.01,0.01,-66.94,-7.44,-19.38
9178,-8.30,0.20,-6.06,0.75,-0.01,0.01,-66.94,-7.44,-19.38
9189,-8.72,0.74,-4.28,-0.09,-0.33,0.36,-66.94,-7.44,-19.38
9200,-8.72,0.74,-4.28,-0.09,-0.33,0.36,-66.94,-7.44,-19.38
9211,-8.98,0.96,-4.41,-0.78,-0.38,0.46,-66.94,-7.44,-19.38
9222,-8.98,0.96,-4.41,-0.78,-0.38,0.46,-66.94,-7.44,-19.38
9233,-9.04,2.25,-4.61,-1.16,-0.34,0.46,-66.94,-7.44,-19.38
9244,-9.04,2.25,-4.61,-1.16,-0.34,0.46,-66.94,-7.44,-19.38
9255,-8.87,3.89,-4.01,-1.22,-0.24,0.32,-65.78,-6.67,-17.64
9266,-8.87,3.89,-4.01,-1.22,-0.24,0.32,-65.78,-6.67,-17.64
9277,-8.24,5.57,-4.32,-0.68,0.05,-0.03,-65.78,-6.67,-17.64
9288,-8.19,4.45,-5.28,0.27,0.26,-0.37,-65.78,-6.67,-17.64
9299,-8.19,4.45,-5.28,0.27,0.26,-0.37,-65.78,-6.67,-17.64
9310,-8.05,2.80,-4.80,0.88,0.22,-0.38,-65.78,-6.67,-17.64
9321,-8.05,2.80,-4.80,0.88,0.22,-0.38,-65.78,-6.67,-17.64
9332,-8.66,2.12,-4.36,0.91,0.11,-0.18,-65.78,-6.67,-17.64
9343,-8.66,2.12,-4.36,0.91,0.11,-0.18,-65.78,-6.67,-17.64
9355,-8.55,1.40,-5.70,0.48,0.01,0.04,-65.78,-6.67,-17.64
9365,-8.55,1.40,-5.70,0.48,0.01,0.04,-65.78,-6.67,-17.64
9376,-8.72,2.12,-4.93,-0.16,-0.21,0.22,-66.94,-7.44,-17.80
9387,-9.55,2.92,-3.69,-0.54,-0.35,0.24,-66.94,-7.44,-17.80
9398,-9.55,2.92,-3.69,-0.54,-0.35,0.24,-66.94,-7.44,-17.80
9409,-10.72,2.07,-2.45,-0.56,-0.32,0.05,-66.94,-7.44,-17.80
9420,-10.72,2.07,-2.45,-0.56,-0.32,0.05,-66.94,-7.44,-17.80
9431,-11.06,2.04,-1.91,-0.44,0.00,-0.01,-66.94,-7.44,-17.80
9442,-11.06,2.04,-1.91,-0.44,0.00,-0.01,-66.94,-7.44,-17.80
9453,-9.56,3.86,-2.87,-0.03,0.76,0.17,-66.94,-7.44,-17.80
9464,-9.56,3.86,-2.87,-0.03,0.76,0.17,-66.94,-7.44,-17.80
9475,-7.01,4.78,-5.04,0.54,1.06,-0.11,-66.94,-7.44,-17.80
9486,-7.01,4.78,-5.04,0.54,1.06,-0.11,-66.94,-7.44,-17.80
9497,-6.02,2.32,-4.75,0.60,0.86,-0.60,-66.94,-7.44,-17.80
9508,-7.00,1.61,-6.98,0.18,0.57,-0.60,-65.78,-5.14,-20.81
9519,-7.00,1.61,-6.98,0.18,0.57,-0.60,-65.78,-5.14,-20.81
9530,-7.44,2.44,-7.42,0.00,0.16,-0.20,-65.78,-5.14,-20.81
9541,-7.44,2.44,-7.42,0.00,0.16,-0.20,-65.78,-5.14,-20.81
9552,-7.12,5.45,-8.10,-0.14,0.08,0.11,-65.78,-5.14,-20.81
9563,-7.12,5.45,-8.10,-0.14,0.08,0.11,-65.78,-5.14,-20.81
9574,-7.23,4.62,-7.32,0.45,0.01,-0.13,-65.78,-5.14,-20.81
9585,-7.23,4.62,-7.32,0.45,0.01,-0.13,-65.78,-5.14,-20.81
9596,-9.13,0.76,-5.05,0.94,-0.24,-0.50,-65.78,-5.14,-20.81
9607,-9.79,-1.12,-3.42,0.42,-0.27,-0.37,-65.78,-5.14,-20.81
9618,-9.79,-1.12,-3.42,0.42,-0.27,-0.37,-65.78,-5.14,-20.81
9629,-9.35,0.62,-3.57,-0.37,-0.09,0.13,-66.25,-7.28,-20.81
9640,-9.35,0.62,-3.57,-0.37,-0.09,0.13,-66.25,-7.28,-20.81
9651,-8.18,4.09,-5.33,-0.73,0.06,0.40,-66.25,-7.28,-20.81
9662,-8.18,4.09,-5.33,-0.73,0.06,0.40,-66.25,-7.28,-20.81
9673,-7.85,4.82,-6.07,-0.35,-0.01,0.16,-66.25,-7.28,-20.81
9684,-7.85,4.82,-6.07,-0.35,-0.01,0.16,-66.25,-7.28,-20.81
9695,-9.04,3.04,-5.33,0.21,-0.13,-0.15,-66.25,-7.28,-20.81
9706,-9.04,3.04,-5.33,0.21,-0.13,-0.15,-66.25,-7.28,-20.81
9717,-8.66,0.91,-4.44,0.21,-0.05,-0.23,-66.25,-7.28,-20.81
9728,-8.96,0.94,-4.48,-0.20,0.04,-0.09,-66.25,-7.28,-20.81
9739,-8.96,0.94,-4.48,-0.20,0.04,-0.09,-66.25,-7.28,-20.81
9750,-9.18,2.15,-4.84,-0.67,0.04,-0.01,-66.48,-7.13,-19.70
9761,-9.18,2.15,-4.84,-0.67,0.04,-0.01,-66.48,-7.13,-19.70
9772,-8.69,2.79,-5.15,-0.90,0.05,-0.06,-66.48,-7.13,-19.70
9783,-8.69,2.79,-5.15,-0.90,0.05,-0.06,-66.48,-7.13,-19.70
9794,-8.88,3.20,-4.64,-0.81,0.01,-0.04,-66.48,-7.13,-19.70
9805,-8.88,3.20,-4.64,-0.81,0.01,-0.04,-66.48,-7.13,-19.70
9816,-8.04,3.82,-5.40,-0.56,0.03,-0.06,-66.48,-7.13,-19.70
9828,-7.95,3.32,-5.58,0.16,0.01,-0.00,-66.48,-7.13,-19.70
9838,-7.95,3.32,-5.58,0.16,0.01,-0.00,-66.48,-7.13,-19.70
9849,-8.03,2.23,-5.84,0.69,-0.12,0.22,-66.48,-7.13,-19.70
9860,-8.03,2.23,-5.84,0.69,-0.12,0.22,-66.48,-7.13,-19.70
9871,-8.81,2.40,-4.64,0.66,-0.30,0.49,-66.01,-8.05,-20.34
9882,-8.81,2.40,-4.64,0.66,-0.30,0.49,-66.01,-8.05,-20.34
9893,-9.07,3.43,-4.48,0.50,-0.29,0.44,-66.01,-8.05,-20.34
9904,-9.07,3.43,-4.48,0.50,-0.29,0.44,-66.01,-8.05,-20.34
9915,-8.95,1.68,-4.82,0.46,-0.21,0.17,-66.01,-8.05,-20.34
9926,-8.95,1.68,-4.82,0.46,-0.21,0.17,-66.01,-8.05,-20.34
9937,-8.90,0.43,-5.02,-0.06,-0.27,0.15,-66.01,-8.05,-20.34
9948,-8.67,1.50,-4.52,-0.85,-0.42,0.29,-66.01,-8.05,-20.34
9959,-8.67,1.50,-4.52,-0.85,-0.42,0.29,-66.01,-8.05,-20.34
9970,-8.57,5.15,-4.50,-1.31,-0.37,0.31,-66.01,-8.05,-20.34
9981,-8.57,5.15,-4.50,-1.31,-0.37,0.31,-66.01,-8.05,-20.34
9992,-8.26,5.32,-3.64,-0.73,-0.07,-0.05,-66.01,-8.05,-20.34
10003,-8.26,5.32,-3.64,-0.73,-0.07,-0.05,-66.01,-8.05,-20.34
10014,-8.19,4.03,-4.95,0.09,0.26,-0.29,-66.25,-4.52,-18.59
10025,-8.19,4.03,-4.95,0.09,0.26,-0.29,-66.25,-4.52,-18.59
10036,-8.46,3.86,-4.85,0.48,0.28,-0.33,-66.25,-4.52,-18.59
10047,-8.46,3.86,-4.85,0.48,0.28,-0.33,-66.25,-4.52,-18.59
10058,-8.53,3.27,-5.24,0.91,0.24,-0.30,-66.25,-4.52,-18.59
10069,-8.91,1.48,-4.87,1.04,0.08,-0.18,-66.25,-4.52,-18.59
10080,-8.91,1.48,-4.87,1.04,0.08,-0.18,-66.25,-4.52,-18.59
10091,-9.07,0.90,-4.71,0.39,-0.10,-0.02,-66.25,-4.52,-18.59
10102,-9.07,0.90,-4.71,0.39,-0.10,-0.02,-66.25,-4.52,-18.59
10113,-8.94,0.55,-4.45,-0.47,-0.25,0.09,-66.25,-4.52,-18.59
10124,-8.94,0.55,-4.45,-0.47,-0.25,0.09,-66.25,-4.52,-18.59
10135,-8.85,1.31,-4.28,-1.10,-0.31,0.28,-67.41,-5.29,-20.02
10146,-8.85,1.31,-4.28,-1.10,-0.31,0.28,-67.41,-5.29,-20.02
10157,-8.81,4.88,-4.17,-1.32,-0.25,0.33,-67.41,-5.29,-20.02
10168,-8.46,4.90,-3.97,-0.70,0.01,0.00,-67.41,-5.29,-20.02
10179,-8.46,4.90,-3.97,-0.70,0.01,0.00,-67.41,-5.29,-20.02
10190,-8.24,4.33,-5.13,-0.00,0.28,-0.26,-67.41,-5.29,-20.02
10201,-8.24,4.33,-5.13,-0.00,0.28,-0.26,-67.41,-5.29,-20.02
10212,-8.44,3.97,-4.47,0.40,0.27,-0.31,-67.41,-5.29,-20.02
10223,-8.44,3.97,-4.47,0.40,0.27,-0.31,-67.41,-5.29,-20.02
10234,-8.26,3.24,-4.75,0.99,0.32,-0.30,-67.41,-5.29,-20.02
10245,-8.26,3.24,-4.75,0.99,0.32,-0.30,-67.41,-5.29,-20.02
10256,-8.84,1.81,-5.06,1.33,0.23,-0.21,-66.25,-6.98,-19.54
10267,-8.84,1.81,-5.06,1.33,0.23,-0.21,-66.25,-6.98,-19.54
10278,-8.74,2.05,-5.21,1.06,0.05,0.01,-66.25,-6.98,-19.54
10289,-8.81,2.31,-5.15,0.70,-0.13,0.19,-66.25,-6.98,-19.54
10300,-8.81,2.31,-5.15,0.70,-0.13,0.19,-66.25,-6.98,-19.54
10311,-8.89,1.70,-4.56,0.45,-0.28,0.26,-66.25,-6.98,-19.54
10322,-8.89,1.70,-4.56,0.45,-0.28,0.26,-66.25,-6.98,-19.54
10333,-8.93,1.44,-4.55,0.13,-0.36,0.34,-66.25,-6.98,-19.54
10344,-8.93,1.44,-4.55,0.13,-0.36,0.34,-66.25,-6.98,-19.54
10355,-9.07,2.43,-4.40,-0.37,-0.40,0.36,-66.25,-6.98,-19.54
10366,-9.07,2.43,-4.40,-0.37,-0.40,0.36,-66.25,-6.98,-19.54
10377,-8.96,2.73,-4.51,-0.50,-0.32,0.23,-66.25,-6.98,-19.54
10388,-9.06,3.30,-4.06,-0.46,-0.19,0.05,-67.87,-6.21,-19.38
10399,-9.06,3.30,-4.06,-0.46,-0.19,0.05,-67.87,-6.21,-19.38
10410,-8.75,3.87,-4.17,-0.32,0.01,-0.22,-67.87,-6.21,-19.38
10421,-8.75,3.87,-4.17,-0.32,0.01,-0.22,-67.87,-6.21,-19.38
10432,-8.52,3.65,-4.88,-0.17,0.20,-0.41,-67.87,-6.21,-19.38
10443,-8.52,3.65,-4.88,-0.17,0.20,-0.41,-67.87,-6.21,-19.38
10454,-8.21,2.70,-5.02,-0.07,0.18,-0.38,-67.87,-6.21,-19.38
10465,-8.21,2.70,-5.02,-0.07,0.18,-0.38,-67.87,-6.21,-19.38
10476,-8.53,2.99,-4.71,-0.10,0.07,-0.17,-67.87,-6.21,-19.38
10487,-8.53,2.99,-4.71,-0.10,0.07,-0.17,-67.87,-6.21,-19.38
10498,-8.68,3.23,-4.63,0.02,0.02,-0.10,-67.87,-6.21,-19.38
10509,-8.36,0.68,-5.17,0.10,-0.05,-0.02,-65.55,-6.82,-19.38
10520,-8.36,0.68,-5.17,0.10,-0.05,-0.02,-65.55,-6.82,-19.38
10531,-8.17,1.44,-4.73,-0.39,-0.29,0.54,-65.55,-6.82,-19.38
10542,-8.17,1.44,-4.73,-0.39,-0.29,0.54,-65.55,-6.82,-19.38
10553,-9.23,4.45,-3.85,-0.79,-0.45,0.83,-65.55,-6.82,-19.38
10564,-9.23,4.45,-3.85,-0.79,-0.45,0.83,-65.55,-6.82,-19.38
10575,-9.10,3.80,-3.40,-0.75,-0.25,0.38,-65.55,-6.82,-19.38
10586,-9.10,3.80,-3.40,-0.75,-0.25,0.38,-65.55,-6.82,-19.38
10597,-8.77,1.82,-4.52,-0.65,0.07,0.02,-65.55,-6.82,-19.38
10608,-9.41,3.78,-3.35,-0.84,0.16,-0.00,-65.55,-6.82,-19.38
10619,-9.41,3.78,-3.35,-0.84,0.16,-0.00,-65.55,-6.82,-19.38
10630,-9.03,4.49,-4.46,-0.63,0.41,-0.33,-68.11,-2.37,-18.91
10641,-9.03,4.49,-4.46,-0.63,0.41,-0.33,-68.11,-2.37,-18.91
10652,-8.31,3.30,-4.83,-0.00,0.44,-0.54,-68.11,-2.37,-18.91
10663,-8.31,3.30,-4.83,-0.00,0.44,-0.54,-68.11,-2.37,-18.91
10674,-8.10,3.35,-4.69,0.11,0.22,-0.39,-68.11,-2.37,-18.91
10685,-8.10,3.35,-4.69,0.11,0.22,-0.39,-68.11,-2.37,-18.91
10696,-8.49,3.55,-4.71,0.27,0.06,-0.18,-68.11,-2.37,-18.91
10707,-8.49,3.55,-4.71,0.27,0.06,-0.18,-68.11,-2.37,-18.91
10718,-8.41,1.76,-4.40,0.47,-0.01,-0.07,-68.11,-2.37,-18.91
10729,-8.15,1.22,-5.54,0.17,-0.15,0.33,-68.11,-2.37,-18.91
10740,-8.15,1.22,-5.54,0.17,-0.15,0.33,-68.11,-2.37,-18.91
10751,-9.49,4.18,-4.13,-0.44,-0.47,0.70,-68.11,-2.37,-18.91
10762,-9.49,4.18,-4.13,-0.44,-0.47,0.70,-68.11,-2.37,-18.91
10773,-9.65,3.64,-2.47,-0.42,-0.39,0.45,-67.41,-4.06,-19.38
10785,-9.65,3.64,-2.47,-0.42,-0.39,0.45,-67.41,-4.06,-19.38
10795,-9.21,2.99,-3.70,-0.35,-0.05,0.15,-67.41,-4.06,-19.38
10806,-9.21,2.99,-3.70,-0.35,-0.05,0.15,-67.41,-4.06,-19.38
10817,-9.16,2.87,-3.41,-0.44,0.14,-0.06,-67.41,-4.06,-19.38
10828,-8.31,3.58,-4.73,-0.38,0.30,-0.14,-67.41,-4.06,-19.38
10839,-8.31,3.58,-4.73,-0.38,0.30,-0.14,-67.41,-4.06,-19.38
10850,-7.91,4.95,-5.27,-0.16,0.23,-0.24,-67.41,-4.06,-19.38
10861,-7.91,4.95,-5.27,-0.16,0.23,-0.24,-67.41,-4.06,-19.38
10872,-8.09,4.39,-4.87,0.19,0.14,-0.35,-67.41,-4.06,-19.38
10883,-8.09,4.39,-4.87,0.19,0.14,-0.35,-67.41,-4.06,-19.38
10894,-8.55,3.14,-4.16,0.39,0.07,-0.34,-65.55,-5.29,-18.11
10905,-8.55,3.14,-4.16,0.39,0.07,-0.34,-65.55,-5.29,-18.11
10916,-8.93,2.65,-4.11,0.54,0.06,-0.21,-65.55,-5.29,-18.11
10927,-8.93,2.65,-4.11,0.54,0.06,-0.21,-65.55,-5.29,-18.11
10938,-8.64,2.95,-4.64,0.57,0.05,-0.02,-65.55,-5.29,-18.11
10949,-8.78,3.13,-4.55,0.50,-0.07,0.08,-65.55,-5.29,-18.11
10960,-8.78,3.13,-4.55,0.50,-0.07,0.08,-65.55,-5.29,-18.11
10971,-8.79,2.58,-4.32,0.36,-0.17,0.13,-65.55,-5.29,-18.11
10982,-8.79,2.58,-4.32,0.36,-0.17,0.13,-65.55,-5.29,-18.11
10993,-8.94,2.15,-4.28,0.10,-0.25,0.18,-65.55,-5.29,-18.11
11004,-8.94,2.15,-4.28,0.10,-0.25,0.18,-65.55,-5.29,-18.11
11016,-9.21,2.19,-3.78,-0.32,-0.30,0.18,-69.04,-4.83,-20.18
11026,-9.21,2.19,-3.78,-0.32,-0.30,0.18,-69.04,-4.83,-20.18
11037,-8.90,1.57,-3.84,-0.68,-0.36,0.17,-69.04,-4.83,-20.18
11048,-8.90,1.57,-3.84,-0.68,-0.36,0.17,-69.04,-4.83,-20.18
11059,-8.96,3.29,-3.69,-0.99,-0.32,0.26,-69.04,-4.83,-20.18
11070,-9.04,5.00,-2.83,-0.83,-0.08,0.13,-69.04,-4.83,-20.18
11081,-9.04,5.00,-2.83,-0.83,-0.08,0.13,-69.04,-4.83,-20.18
11092,-8.39,4.42,-4.49,-0.17,0.27,-0.21,-69.04,-4.83,-20.18
11103,-8.39,4.42,-4.49,-0.17,0.27,-0.21,-69.04,-4.83,-20.18
11114,-8.32,4.52,-4.66,0.35,0.30,-0.25,-69.04,-4.83,-20.18
11125,-8.32,4.52,-4.66,0.35,0.30,-0.25,-69.04,-4.83,-20.18
11136,-8.80,4.89,-4.14,0.66,0.22,-0.26,-69.50,-4.22,-18.59
11147,-8.80,4.89,-4.14,0.66,0.22,-0.26,-69.50,-4.22,-18.59
11158,-8.58,3.85,-3.97,1.26,0.21,-0.40,-69.50,-4.22,-18.59
11169,-8.63,1.47,-4.99,1.23,0.13,-0.35,-69.50,-4.22,-18.59
11180,-8.63,1.47,-4.99,1.23,0.13,-0.35,-69.50,-4.22,-18.59
11191,-8.65,1.20,-4.78,0.60,-0.13,0.03,-69.50,-4.22,-18.59
11202,-8.65,1.20,-4.78,0.60,-0.13,0.03,-69.50,-4.22,-18.59
11213,-9.06,1.23,-4.02,-0.22,-0.38,0.39,-69.50,-4.22,-18.59
11224,-9.06,1.23,-4.02,-0.22,-0.38,0.39,-69.50,-4.22,-18.59
11235,-9.37,2.55,-3.63,-0.87,-0.46,0.52,-69.50,-4.22,-18.59
11251,-9.37,2.55,-3.63,-0.87,-0.46,0.52,-69.50,-4.22,-18.59
11257,-9.20,2.47,-3.34,-1.03,-0.35,0.40,-69.50,-4.22,-18.59
11268,-9.20,2.47,-3.34,-1.03,-0.35,0.40,-69.50,-4.22,-18.59
11279,-9.09,4.40,-3.47,-0.98,-0.18,0.27,-70.90,-2.99,-17.96
11290,-8.88,5.53,-3.47,-0.41,0.08,-0.02,-70.90,-2.99,-17.96
11301,-8.88,5.53,-3.47,-0.41,0.08,-0.02,-70.90,-2.99,-17.96
11312,-8.27,4.91,-4.34,0.46,0.33,-0.38,-70.90,-2.99,-17.96
11323,-8.27,4.91,-4.34,0.46,0.33,-0.38,-70.90,-2.99,-17.96
11334,-8.29,2.87,-5.31,0.96,0.29,-0.43,-70.90,-2.99,-17.96
11345,-8.29,2.87,-5.31,0.96,0.29,-0.43,-70.90,-2.99,-17.96
11356,-8.62,2.81,-3.66,0.76,-0.01,-0.18,-70.90,-2.99,-17.96
11367,-8.62,2.81,-3.66,0.76,-0.01,-0.18,-70.90,-2.99,-17.96
11378,-8.75,2.34,-4.93,0.34,-0.09,0.03,-70.90,-2.99,-17.96
11389,-8.86,1.94,-4.06,-0.26,-0.33,0.25,-66.01,-4.68,-16.21
11400,-8.86,1.94,-4.06,-0.26,-0.33,0.25,-66.01,-4.68,-16.21
11411,-9.43,3.69,-2.97,-0.67,-0.46,0.34,-66.01,-4.68,-16.21
11422,-9.43,3.69,-2.97,-0.67,-0.46,0.34,-66.01,-4.68,-16.21
11433,-8.79,2.69,-2.51,-0.52,-0.21,0.15,-66.01,-4.68,-16.21
11444,-8.79,2.69,-2.51,-0.52,-0.21,0.15,-66.01,-4.68,-16.21
11455,-10.14,2.06,-1.69,-0.50,0.18,0.02,-66.01,-4.68,-16.21
11466,-10.14,2.06,-1.69,-0.50,0.18,0.02,-66.01,-4.68,-16.21
11477,-8.59,3.93,-3.78,-0.40,0.80,0.06,-66.01,-4.68,-16.21
11488,-8.59,3.93,-3.78,-0.40,0.80,0.06,-66.01,-4.68,-16.21
11499,-6.56,5.07,-5.40,-0.25,0.99,-0.27,-66.01,-4.68,-16.21
11510,-6.05,5.27,-7.77,0.12,0.70,-0.58,-69.27,-2.53,-20.34
11521,-6.05,5.27,-7.77,0.12,0.70,-0.58,-69.27,-2.53,-20.34
11532,-10.70,1.86,-3.10,0.65,-0.01,-0.63,-69.27,-2.53,-20.34
11543,-10.70,1.86,-3.10,0.65,-0.01,-0.63,-69.27,-2.53,-20.34
11554,-9.71,1.89,-2.33,0.02,-0.01,-0.28,-69.27,-2.53,-20.34
11565,-9.71,1.89,-2.33,0.02,-0.01,-0.28,-69.27,-2.53,-20.34
11576,-10.05,3.26,-2.98,-0.25,0.17,-0.12,-69.27,-2.53,-20.34
11587,-10.05,3.26,-2.98,-0.25,0.17,-0.12,-69.27,-2.53,-20.34
11598,-9.06,2.88,-5.21,-0.14,0.19,-0.14,-69.27,-2.53,-20.34
11609,-8.83,1.87,-4.21,-0.22,0.02,-0.01,-69.27,-2.53,-20.34
11620,-8.83,1.87,-4.21,-0.22,0.02,-0.01,-69.27,-2.53,-20.34
11631,-8.37,2.69,-4.25,-0.55,-0.04,0.16,-69.27,-2.53,-20.34
11643,-8.37,2.69,-4.25,-0.55,-0.04,0.16,-69.27,-2.53,-20.34
11653,-7.84,3.23,-4.76,-0.55,-0.05,0.17,-67.41,-4.37,-21.29
11664,-7.84,3.23,-4.76,-0.55,-0.05,0.17,-67.41,-4.37,-21.29
11675,-7.67,4.21,-5.79,-0.36,-0.13,0.15,-67.41,-4.37,-21.29
11686,-7.67,4.21,-5.79,-0.36,-0.13,0.15,-67.41,-4.37,-21.29
11697,-9.33,4.54,-4.35,-0.14,-0.36,0.13,-67.41,-4.37,-21.29
11708,-9.33,4.54,-4.35,-0.14,-0.36,0.13,-67.41,-4.37,-21.29
11719,-9.15,2.95,-3.57,0.09,-0.35,0.10,-67.41,-4.37,-21.29
11730,-8.76,2.98,-3.71,0.17,-0.29,0.28,-67.41,-4.37,-21.29
11741,-8.76,2.98,-3.71,0.17,-0.29,0.28,-67.41,-4.37,-21.29
11752,-9.00,3.72,-4.15,0.23,-0.31,0.43,-67.41,-4.37,-21.29
11763,-9.00,3.72,-4.15,0.23,-0.31,0.43,-67.41,-4.37,-21.29
11774,-8.87,2.75,-4.01,0.23,-0.38,0.45,-67.18,-4.22,-17.00
11785,-8.87,2.75,-4.01,0.23,-0.38,0.45,-67.18,-4.22,-17.00
11796,-9.31,3.56,-3.55,-0.19,-0.48,0.47,-67.18,-4.22,-17.00
11807,-9.31,3.56,-3.55,-0.19,-0.48,0.47,-67.18,-4.22,-17.00
11818,-9.43,3.58,-3.26,-0.59,-0.50,0.30,-67.18,-4.22,-17.00
11829,-9.05,3.17,-3.03,-0.78,-0.47,0.14,-67.18,-4.22,-17.00
11840,-9.05,3.17,-3.03,-0.78,-0.47,0.14,-67.18,-4.22,-17.00
11851,-9.15,3.83,-2.72,-0.62,-0.29,0.07,-67.18,-4.22,-17.00
11862,-9.15,3.83,-2.72,-0.62,-0.29,0.07,-67.18,-4.22,-17.00
11873,-8.17,3.82,-2.77,-0.15,0.12,0.02,-67.18,-4.22,-17.00
11884,-8.17,3.82,-2.77,-0.15,0.12,0.02,-67.18,-4.22,-17.00
11896,-8.82,4.24,-3.17,0.23,0.50,0.04,-69.73,-2.22,-16.84
11906,-8.82,4.24,-3.17,0.23,0.50,0.04,-69.73,-2.22,-16.84
11917,-7.99,4.06,-2.77,0.11,0.73,-0.00,-69.73,-2.22,-16.84
11928,-7.99,4.06,-2.77,0.11,0.73,-0.00,-69.73,-2.22,-16.84
11939,-7.52,6.20,-6.27,-0.07,0.88,-0.18,-69.73,-2.22,-16.84
11950,-9.61,2.96,-4.19,0.66,0.39,-0.42,-69.73,-2.22,-16.84
11961,-9.61,2.96,-4.19,0.66,0.39,-0.42,-69.73,-2.22,-16.84
11972,-8.92,2.24,-3.88,0.16,0.11,-0.25,-69.73,-2.22,-16.84
11983,-8.92,2.24,-3.88,0.16,0.11,-0.25,-69.73,-2.22,-16.84
11994,-8.93,3.32,-3.44,-0.37,-0.09,-0.03,-69.73,-2.22,-16.84
12005,-8.93,3.32,-3.44,-0.37,-0.09,-0.03,-69.73,-2.22,-16.84
12016,-9.29,4.16,-3.89,-0.52,-0.15,-0.02,-69.73,-2.22,-16.84
12027,-9.29,4.16,-3.89,-0.52,-0.15,-0.02,-69.73,-2.22,-16.84
12038,-9.05,3.04,-3.53,-0.52,-0.22,-0.11,-67.87,-1.30,-18.43
12049,-9.05,3.04,-3.53,-0.52,-0.22,-0.11,-67.87,-1.30,-18.43
12060,-9.89,2.54,-1.37,-0.45,-0.21,-0.04,-67.87,-1.30,-18.43
12071,-11.28,0.45,0.30,0.02,0.24,0.12,-67.87,-1.30,-18.43
12082,-11.28,0.45,0.30,0.02,0.24,0.12,-67.87,-1.30,-18.43
12093,-8.77,2.85,-3.95,0.27,1.10,0.80,-67.87,-1.30,-18.43
12104,-8.77,2.85,-3.95,0.27,1.10,0.80,-67.87,-1.30,-18.43
12115,-8.16,5.25,-4.13,0.63,1.03,0.93,-67.87,-1.30,-18.43
12126,-8.16,5.25,-4.13,0.63,1.03,0.93,-67.87,-1.30,-18.43
12137,-5.92,7.27,-5.98,0.78,0.92,0.68,-67.87,-1.30,-18.43
12148,-5.92,7.27,-5.98,0.78,0.92,0.68,-67.87,-1.30,-18.43
12159,-5.84,5.86,-6.69,1.00,0.61,0.27,-66.94,-0.38,-22.24
12170,-7.65,4.22,-5.48,1.09,-0.15,-0.36,-66.94,-0.38,-22.24
12181,-7.65,4.22,-5.48,1.09,-0.15,-0.36,-66.94,-0.38,-22.24
12192,-6.84,4.16,-6.39,1.02,-0.45,-0.65,-66.94,-0.38,-22.24
12203,-6.84,4.16,-6.39,1.02,-0.45,-0.65,-66.94,-0.38,-22.24
12214,-7.75,4.70,-7.04,0.81,-0.37,-0.36,-66.94,-0.38,-22.24
12225,-7.75,4.70,-7.04,0.81,-0.37,-0.36,-66.94,-0.38,-22.24
12236,-8.29,4.08,-4.64,0.48,-0.48,-0.31,-66.94,-0.38,-22.24
12247,-8.29,4.08,-4.64,0.48,-0.48,-0.31,-66.94,-0.38,-22.24
12258,-9.91,1.95,-2.46,0.34,-0.45,-0.52,-66.94,-0.38,-22.24
12269,-9.91,1.95,-2.46,0.34,-0.45,-0.52,-66.94,-0.38,-22.24
12280,-10.10,0.32,-2.72,0.25,-0.25,-0.45,-69.04,-4.52,-19.86
12291,-9.47,1.19,-2.82,-0.08,-0.04,0.04,-69.04,-4.52,-19.86
12302,-9.47,1.19,-2.82,-0.08,-0.04,0.04,-69.04,-4.52,-19.86
12313,-7.99,5.16,-5.65,-0.42,0.15,0.33,-69.04,-4.52,-19.86
12324,-7.99,5.16,-5.65,-0.42,0.15,0.33,-69.04,-4.52,-19.86
12335,-7.68,5.48,-5.42,-0.01,0.03,0.11,-69.04,-4.52,-19.86
12346,-7.68,5.48,-5.42,-0.01,0.03,0.11,-69.04,-4.52,-19.86
12357,-8.38,3.55,-5.11,0.52,-0.13,-0.16,-69.04,-4.52,-19.86
12368,-8.38,3.55,-5.11,0.52,-0.13,-0.16,-69.04,-4.52,-19.86
12379,-9.54,1.83,-3.53,0.51,-0.28,-0.16,-69.04,-4.52,-19.86
12390,-8.74,2.37,-4.13,0.17,-0.19,0.04,-69.04,-4.52,-19.86
12401,-8.74,2.37,-4.13,0.17,-0.19,0.04,-69.04,-4.52,-19.86
12412,-8.75,2.80,-4.34,-0.09,-0.20,0.09,-67.64,-4.22,-18.27
12423,-8.75,2.80,-4.34,-0.09,-0.20,0.09,-67.64,-4.22,-18.27
12434,-9.36,2.93,-3.79,-0.32,-0.21,0.07,-67.64,-4.22,-18.27
12445,-9.36,2.93,-3.79,-0.32,-0.21,0.07,-67.64,-4.22,-18.27
12456,-8.97,3.38,-4.02,-0.71,-0.10,-0.04,-67.64,-4.22,-18.27
12467,-8.97,3.38,-4.02,-0.71,-0.10,-0.04,-67.64,-4.22,-18.27
12479,-8.52,3.94,-3.60,-0.69,0.04,-0.22,-67.64,-4.22,-18.27
12489,-8.52,3.94,-3.60,-0.69,0.04,-0.22,-67.64,-4.22,-18.27
12500,-8.58,3.79,-4.43,-0.15,0.29,-0.34,-67.64,-4.22,-18.27
12511,-8.23,3.80,-4.60,0.40,0.41,-0.34,-67.64,-4.22,-18.27
12522,-8.23,3.80,-4.60,0.40,0.41,-0.34,-67.64,-4.22,-18.27
12533,-8.31,4.27,-4.93,0.45,0.40,-0.27,-67.41,-3.45,-20.97
12544,-8.31,4.27,-4.93,0.45,0.40,-0.27,-67.41,-3.45,-20.97
12555,-8.58,3.22,-4.74,1.07,0.30,-0.15,-67.41,-3.45,-20.97
12566,-8.58,3.22,-4.74,1.07,0.30,-0.15,-67.41,-3.45,-20.97
12577,-8.83,2.90,-4.87,1.15,0.11,-0.04,-67.41,-3.45,-20.97
12588,-8.83,2.90,-4.87,1.15,0.11,-0.04,-67.41,-3.45,-20.97
12599,-9.18,2.55,-4.98,0.83,-0.12,-0.04,-67.41,-3.45,-20.97
12610,-8.77,0.33,-4.74,0.35,-0.38,0.03,-67.41,-3.45,-20.97
12621,-8.77,0.33,-4.74,0.35,-0.38,0.03,-67.41,-3.45,-20.97
12632,-8.29,2.55,-5.37,-0.35,-0.63,0.38,-67.41,-3.45,-20.97
12643,-8.29,2.55,-5.37,-0.35,-0.63,0.38,-67.41,-3.45,-20.97
12654,-8.29,4.73,-4.02,-0.34,-0.69,0.50,-68.57,-5.44,-18.91
12665,-8.29,4.73,-4.02,-0.34,-0.69,0.50,-68.57,-5.44,-18.91
12676,-8.32,4.22,-3.41,0.19,-0.41,0.29,-68.57,-5.44,-18.91
12687,-8.32,4.22,-3.41,0.19,-0.41,0.29,-68.57,-5.44,-18.91
12698,-8.40,3.58,-3.23,0.51,-0.05,0.08,-68.57,-5.44,-18.91
12710,-8.40,3.58,-3.23,0.51,-0.05,0.08,-68.57,-5.44,-18.91
12720,-9.27,3.00,-3.71,0.39,0.28,-0.03,-68.57,-5.44,-18.91
12731,-9.31,1.96,-4.57,-0.06,0.38,-0.18,-68.57,-5.44,-18.91
12742,-9.31,1.96,-4.57,-0.06,0.38,-0.18,-68.57,-5.44,-18.91
12753,-9.09,0.23,-4.00,-0.50,0.19,-0.12,-68.57,-5.44,-18.91
12764,-9.09,0.23,-4.00,-0.50,0.19,-0.12,-68.57,-5.44,-18.91
12775,-9.27,2.84,-4.82,-1.15,0.03,0.09,-67.41,-3.75,-19.38
12786,-9.27,2.84,-4.82,-1.15,0.03,0.09,-67.41,-3.75,-19.38
12797,-8.69,2.30,-4.28,-1.29,-0.10,0.05,-67.41,-3.75,-19.38
12808,-8.69,2.30,-4.28,-1.29,-0.10,0.05,-67.41,-3.75,-19.38
12819,-8.73,4.86,-4.30,-1.20,-0.19,0.13,-67.41,-3.75,-19.38
12830,-8.61,4.98,-3.69,-0.50,-0.13,-0.07,-67.41,-3.75,-19.38
12841,-8.61,4.98,-3.69,-0.50,-0.13,-0.07,-67.41,-3.75,-19.38
12852,-8.37,4.62,-4.12,0.29,0.11,-0.30,-67.41,-3.75,-19.38
12863,-8.37,4.62,-4.12,0.29,0.11,-0.30,-67.41,-3.75,-19.38
12874,-8.52,3.55,-4.38,0.74,0.20,-0.37,-67.41,-3.75,-19.38
12885,-8.52,3.55,-4.38,0.74,0.20,-0.37,-67.41,-3.75,-19.38
12896,-8.55,3.42,-4.32,0.94,0.18,-0.32,-67.41,-3.75,-19.38
12907,-8.55,3.42,-4.32,0.94,0.18,-0.32,-67.41,-3.75,-19.38
12918,-8.38,2.98,-4.58,1.09,0.18,-0.25,-67.87,-5.29,-18.75
12929,-8.38,2.98,-4.58,1.09,0.18,-0.25,-67.87,-5.29,-18.75
12940,-8.53,1.87,-4.60,0.93,0.05,-0.08,-67.87,-5.29,-18.75
12951,-8.96,2.07,-4.80,0.40,-0.17,0.16,-67.87,-5.29,-18.75
12962,-8.96,2.07,-4.80,0.40,-0.17,0.16,-67.87,-5.29,-18.75
12973,-9.20,1.90,-3.98,-0.11,-0.30,0.21,-67.87,-5.29,-18.75
12984,-9.20,1.90,-3.98,-0.11,-0.30,0.21,-67.87,-5.29,-18.75
12995,-8.94,0.98,-4.25,-0.51,-0.35,0.29,-67.87,-5.29,-18.75
13006,-8.94,0.98,-4.25,-0.51,-0.35,0.29,-67.87,-5.29,-18.75
13017,-9.30,2.84,-3.79,-0.97,-0.41,0.42,-67.87,-5.29,-18.75
13028,-9.30,2.84,-3.79,-0.97,-0.41,0.42,-67.87,-5.29,-18.75
13039,-8.74,4.16,-3.64,-1.11,-0.29,0.29,-66.48,-4.98,-18.43
13050,-8.74,4.16,-3.64,-1.11,-0.29,0.29,-66.48,-4.98,-18.43
13061,-8.74,4.80,-3.44,-0.73,-0.05,0.04,-66.48,-4.98,-18.43
13072,-8.73,3.45,-4.20,-0.20,0.17,-0.17,-66.48,-4.98,-18.43
13083,-8.73,3.45,-4.20,-0.20,0.17,-0.17,-66.48,-4.98,-18.43
13094,-8.98,4.04,-3.84,-0.02,0.22,-0.20,-66.48,-4.98,-18.43
13105,-8.98,4.04,-3.84,-0.02,0.22,-0.20,-66.48,-4.98,-18.43
13116,-8.56,3.33,-4.34,0.20,0.24,-0.31,-66.48,-4.98,-18.43
13127,-8.56,3.33,-4.34,0.20,0.24,-0.31,-66.48,-4.98,-18.43
13138,-8.60,2.47,-4.36,0.22,0.15,-0.21,-66.48,-4.98,-18.43
13149,-8.60,2.47,-4.36,0.22,0.15,-0.21,-66.48,-4.98,-18.43
13160,-8.86,3.42,-4.01,0.02,0.04,-0.03,-69.50,-3.91,-19.23
13171,-8.79,3.03,-4.36,0.02,0.02,-0.03,-69.50,-3.91,-19.23
13182,-8.79,3.03,-4.36,0.02,0.02,-0.03,-69.50,-3.91,-19.23
13193,-8.81,2.79,-3.92,-0.05,-0.02,-0.01,-69.50,-3.91,-19.23
13204,-8.81,2.79,-3.92,-0.05,-0.02,-0.01,-69.50,-3.91,-19.23
13215,-8.84,3.37,-4.07,-0.13,-0.00,0.04,-69.50,-3.91,-19.23
13226,-8.84,3.37,-4.07,-0.13,-0.00,0.04,-69.50,-3.91,-19.23
13237,-8.81,3.28,-4.22,-0.07,-0.00,0.02,-69.50,-3.91,-19.23
13248,-8.81,3.28,-4.22,-0.07,-0.00,0.02,-69.50,-3.91,-19.23
13259,-8.84,3.24,-3.93,-0.05,-0.02,0.00,-69.50,-3.91,-19.23
13270,-8.84,3.24,-3.93,-0.05,-0.02,0.00,-69.50,-3.91,-19.23
13281,-8.79,2.82,-3.97,-0.01,0.00,0.00,-69.50,-3.91,-19.23
13292,-8.89,3.32,-3.93,-0.03,0.01,0.05,-67.41,-4.37,-18.43
13303,-8.89,3.32,-3.93,-0.03,0.01,0.05,-67.41,-4.37,-18.43
13314,-8.99,3.69,-3.82,-0.06,0.03,-0.01,-67.41,-4.37,-18.43
13325,-8.99,3.69,-3.82,-0.06,0.03,-0.01,-67.41,-4.37,-18.43
13336,-8.71,2.81,-4.21,-0.02,0.06,-0.09,-67.41,-4.37,-18.43
13347,-8.71,2.81,-4.21,-0.02,0.06,-0.09,-67.41,-4.37,-18.43
13358,-8.77,3.15,-4.03,-0.08,0.03,-0.02,-67.41,-4.37,-18.43
13369,-8.77,3.15,-4.03,-0.08,0.03,-0.02,-67.41,-4.37,-18.43
13380,-8.82,3.68,-4.00,-0.04,0.02,0.00,-67.41,-4.37,-18.43
13391,-8.80,3.19,-4.06,0.04,0.02,-0.04,-67.41,-4.37,-18.43
13402,-8.80,3.19,-4.06,0.04,0.02,-0.04,-67.41,-4.37,-18.43
13413,-8.76,3.09,-4.09,0.08,0.02,-0.04,-68.57,-2.99,-19.54
13424,-8.76,3.09,-4.09,0.08,0.02,-0.04,-68.57,-2.99,-19.54
13435,-8.59,2.95,-4.22,0.11,-0.01,0.01,-68.57,-2.99,-19.54
13446,-8.59,2.95,-4.22,0.11,-0.01,0.01,-68.57,-2.99,-19.54
13457,-8.71,3.51,-4.09,0.11,-0.05,0.10,-68.57,-2.99,-19.54
13468,-8.71,3.51,-4.09,0.11,-0.05,0.10,-68.57,-2.99,-19.54
13479,-8.78,3.41,-4.23,0.16,-0.13,0.12,-68.57,-2.99,-19.54
13490,-8.78,3.41,-4.23,0.16,-0.13,0.12,-68.57,-2.99,-19.54
13501,-8.99,3.22,-4.10,0.16,-0.21,0.16,-68.57,-2.99,-19.54
13512,-9.16,2.87,-3.80,0.06,-0.26,0.15,-68.57,-2.99,-19.54
13523,-9.16,2.87,-3.80,0.06,-0.26,0.15,-68.57,-2.99,-19.54
13534,-9.16,2.25,-3.45,-0.17,-0.29,0.10,-66.71,-4.52,-16.37
13545,-9.16,2.25,-3.45,-0.17,-0.29,0.10,-66.71,-4.52,-16.37
13556,-9.12,2.66,-3.07,-0.49,-0.26,0.09,-66.71,-4.52,-16.37
13567,-9.12,2.66,-3.07,-0.49,-0.26,0.09,-66.71,-4.52,-16.37
13578,-9.18,3.92,-3.30,-0.66,-0.10,0.04,-66.71,-4.52,-16.37
13589,-9.18,3.92,-3.30,-0.66,-0.10,0.04,-66.71,-4.52,-16.37
13600,-8.69,3.60,-3.07,-0.56,0.12,-0.18,-66.71,-4.52,-16.37
13611,-8.44,2.90,-4.59,-0.24,0.33,-0.20,-66.71,-4.52,-16.37
13622,-8.44,2.90,-4.59,-0.24,0.33,-0.20,-66.71,-4.52,-16.37
13633,-8.65,4.48,-3.75,-0.41,0.24,-0.07,-66.71,-4.52,-16.37
13645,-8.65,4.48,-3.75,-0.41,0.24,-0.07,-66.71,-4.52,-16.37
13655,-8.76,4.57,-3.90,-0.21,0.22,-0.12,-66.71,-4.52,-16.37
13666,-8.76,4.57,-3.90,-0.21,0.22,-0.12,-66.71,-4.52,-16.37
13677,-8.82,3.29,-3.98,0.06,0.14,-0.18,-69.97,-2.07,-19.86
13688,-8.82,3.29,-3.98,0.06,0.14,-0.18,-69.97,-2.07,-19.86
13699,-8.79,3.09,-3.94,0.07,0.06,-0.13,-69.97,-2.07,-19.86
13710,-8.79,3.09,-3.94,0.07,0.06,-0.13,-69.97,-2.07,-19.86
13721,-9.22,2.30,-3.53,-0.03,-0.00,-0.07,-69.97,-2.07,-19.86
13732,-9.12,2.83,-3.83,-0.33,-0.08,0.03,-69.97,-2.07,-19.86
13743,-9.12,2.83,-3.83,-0.33,-0.08,0.03,-69.97,-2.07,-19.86
13754,-8.69,3.41,-3.43,-0.49,-0.13,0.07,-69.97,-2.07,-19.86
13765,-8.69,3.41,-3.43,-0.49,-0.13,0.07,-69.97,-2.07,-19.86
13776,-8.30,3.91,-4.55,-0.24,-0.05,0.13,-69.97,-2.07,-19.86
13787,-8.30,3.91,-4.55,-0.24,-0.05,0.13,-69.97,-2.07,-19.86
13798,-8.30,4.08,-4.82,-0.00,-0.12,0.22,-69.04,-2.68,-19.23
13809,-8.30,4.08,-4.82,-0.00,-0.12,0.22,-69.04,-2.68,-19.23
13820,-8.66,3.35,-3.33,0.11,-0.24,0.26,-69.04,-2.68,-19.23
13831,-8.92,3.34,-3.64,-0.08,-0.30,0.28,-69.04,-2.68,-19.23
13842,-8.92,3.34,-3.64,-0.08,-0.30,0.28,-69.04,-2.68,-19.23
13853,-9.31,3.31,-2.67,-0.27,-0.35,0.25,-69.04,-2.68,-19.23
13864,-9.31,3.31,-2.67,-0.27,-0.35,0.25,-69.04,-2.68,-19.23
13875,-9.56,3.85,-2.74,-0.47,-0.30,0.16,-69.04,-2.68,-19.23
13886,-9.56,3.85,-2.74,-0.47,-0.30,0.16,-69.04,-2.68,-19.23
13898,-10.22,3.14,-0.97,-0.42,-0.20,0.02,-69.04,-2.68,-19.23
13908,-10.22,3.14,-0.97,-0.42,-0.20,0.02,-69.04,-2.68,-19.23
13919,-12.63,0.68,0.78,-0.09,0.29,0.12,-70.20,-0.68,-18.11
13930,-12.63,0.68,0.78,-0.09,0.29,0.12,-70.20,-0.68,-18.11
13941,-9.52,0.54,-0.34,0.06,1.31,0.71,-70.20,-0.68,-18.11
13952,-7.47,2.14,-3.78,0.49,1.86,0.99,-70.20,-0.68,-18.11
13963,-7.47,2.14,-3.78,0.49,1.86,0.99,-70.20,-0.68,-18.11
13974,-6.42,7.04,-6.18,0.45,1.68,0.83,-70.20,-0.68,-18.11
13985,-6.42,7.04,-6.18,0.45,1.68,0.83,-70.20,-0.68,-18.11
13996,-4.59,9.61,-7.25,1.13,1.24,0.22,-70.20,-0.68,-18.11
14007,-4.59,9.61,-7.25,1.13,1.24,0.22,-70.20,-0.68,-18.11
14018,-3.58,4.70,-7.23,2.79,0.75,-0.10,-70.20,-0.68,-18.11
14029,-3.58,4.70,-7.23,2.79,0.75,-0.10,-70.20,-0.68,-18.11
14040,-8.85,6.02,-8.25,2.30,0.25,0.44,-65.31,-3.91,-23.04
14051,-8.85,6.02,-8.25,2.30,0.25,0.44,-65.31,-3.91,-23.04
14062,-7.77,8.37,-6.02,1.63,-0.38,-0.04,-65.31,-3.91,-23.04
14073,-8.37,3.52,-5.46,2.18,-0.57,-1.18,-65.31,-3.91,-23.04
14084,-8.37,3.52,-5.46,2.18,-0.57,-1.18,-65.31,-3.91,-23.04
14095,-8.40,-1.20,-5.19,1.70,-0.31,-1.35,-65.31,-3.91,-23.04
14106,-8.40,-1.20,-5.19,1.70,-0.31,-1.35,-65.31,-3.91,-23.04
14117,-9.64,-3.14,-4.23,0.28,-0.26,-0.90,-65.31,-3.91,-23.04
14129,-9.64,-3.14,-4.23,0.28,-0.26,-0.90,-65.31,-3.91,-23.04
14139,-9.51,-0.37,-3.86,-1.09,-0.16,-0.14,-65.31,-3.91,-23.04
14150,-9.51,-0.37,-3.86,-1.09,-0.16,-0.14,-65.31,-3.91,-23.04
14161,-8.77,5.27,-4.93,-1.68,0.10,0.30,-65.31,-3.91,-23.04
14172,-6.95,6.79,-5.56,-0.92,0.30,-0.09,-67.64,-4.83,-22.08
14183,-6.95,6.79,-5.56,-0.92,0.30,-0.09,-67.64,-4.83,-22.08
14194,-7.04,3.51,-5.97,0.12,0.22,-0.53,-67.64,-4.83,-22.08
14205,-7.04,3.51,-5.97,0.12,0.22,-0.53,-67.64,-4.83,-22.08
14216,-9.11,1.57,-4.86,0.45,-0.12,-0.54,-67.64,-4.83,-22.08
14227,-9.11,1.57,-4.86,0.45,-0.12,-0.54,-67.64,-4.83,-22.08
14238,-10.10,1.16,-3.09,0.25,-0.13,-0.33,-67.64,-4.83,-22.08
14249,-10.10,1.16,-3.09,0.25,-0.13,-0.33,-67.64,-4.83,-22.08
14260,-8.59,2.12,-4.60,-0.06,0.27,-0.13,-67.64,-4.83,-22.08
14271,-8.59,2.12,-4.60,-0.06,0.27,-0.13,-67.64,-4.83,-22.08
14282,-7.35,3.55,-6.64,-0.10,0.39,-0.08,-67.64,-4.83,-22.08
14293,-7.81,3.12,-6.29,0.12,0.11,-0.16,-66.71,-6.67,-22.40
14304,-7.81,3.12,-6.29,0.12,0.11,-0.16,-66.71,-6.67,-22.40
14315,-8.65,2.32,-5.09,0.23,-0.08,-0.16,-66.71,-6.67,-22.40
14326,-8.65,2.32,-5.09,0.23,-0.08,-0.16,-66.71,-6.67,-22.40
14337,-9.33,1.59,-4.19,0.14,-0.12,-0.15,-66.71,-6.67,-22.40
14348,-9.33,1.59,-4.19,0.14,-0.12,-0.15,-66.71,-6.67,-22.40
14359,-8.42,2.03,-4.99,-0.08,-0.01,-0.08,-66.71,-6.67,-22.40
14370,-8.42,2.03,-4.99,-0.08,-0.01,-0.08,-66.71,-6.67,-22.40
14381,-7.85,3.42,-6.42,-0.02,-0.04,0.02,-66.71,-6.67,-22.40
14392,-8.33,3.12,-5.79,0.29,-0.28,-0.05,-66.71,-6.67,-22.40
14403,-8.33,3.12,-5.79,0.29,-0.28,-0.05,-66.71,-6.67,-22.40
14414,-9.71,1.87,-4.26,0.51,-0.42,-0.17,-65.08,-9.89,-20.34
14425,-9.71,1.87,-4.26,0.51,-0.42,-0.17,-65.08,-9.89,-20.34
14436,-9.23,0.18,-4.23,0.36,-0.32,-0.17,-65.08,-9.89,-20.34
14447,-9.23,0.18,-4.23,0.36,-0.32,-0.17,-65.08,-9.89,-20.34
14458,-8.87,0.43,-4.58,-0.42,-0.25,-0.01,-65.08,-9.89,-20.34
14469,-8.87,0.43,-4.58,-0.42,-0.25,-0.01,-65.08,-9.89,-20.34
14480,-8.73,3.34,-4.58,-1.29,-0.16,0.11,-65.08,-9.89,-20.34
14491,-8.73,3.34,-4.58,-1.29,-0.16,0.11,-65.08,-9.89,-20.34
14502,-8.59,4.22,-4.17,-1.11,0.07,-0.17,-65.08,-9.89,-20.34
14513,-8.63,3.17,-5.42,-0.27,0.34,-0.44,-65.08,-9.89,-20.34
14524,-8.63,3.17,-5.42,-0.27,0.34,-0.44,-65.08,-9.89,-20.34
14535,-8.22,3.02,-4.92,0.07,0.32,-0.43,-65.08,-9.89,-20.34
14546,-8.22,3.02,-4.92,0.07,0.32,-0.43,-65.08,-9.89,-20.34
14557,-8.32,2.80,-5.16,0.08,0.26,-0.28,-63.45,-8.51,-21.13
14568,-8.32,2.80,-5.16,0.08,0.26,-0.28,-63.45,-8.51,-21.13
14579,-8.63,1.87,-5.06,0.29,0.19,-0.12,-63.45,-8.51,-21.13
14590,-8.63,1.87,-5.06,0.29,0.19,-0.12,-63.45,-8.51,-21.13
14601,-8.12,2.31,-5.99,0.31,0.07,0.10,-63.45,-8.51,-21.13
14612,-8.48,2.76,-5.22,0.32,-0.17,0.23,-63.45,-8.51,-21.13
14623,-8.48,2.76,-5.22,0.32,-0.17,0.23,-63.45,-8.51,-21.13
14634,-8.82,2.06,-4.89,0.43,-0.24,0.25,-63.45,-8.51,-21.13
14645,-8.82,2.06,-4.89,0.43,-0.24,0.25,-63.45,-8.51,-21.13
14656,-8.72,1.77,-5.32,0.50,-0.26,0.41,-63.45,-8.51,-21.13
14667,-8.72,1.77,-5.32,0.50,-0.26,0.41,-63.45,-8.51,-21.13
14678,-8.89,1.52,-5.11,0.50,-0.42,0.63,-68.57,-7.90,-21.13
14689,-8.89,1.52,-5.11,0.50,-0.42,0.63,-68.57,-7.90,-21.13
14700,-9.13,1.87,-4.48,-0.05,-0.54,0.63,-68.57,-7.90,-21.13
14711,-9.13,1.87,-4.48,-0.05,-0.54,0.63,-68.57,-7.90,-21.13
14722,-8.90,1.78,-4.21,-0.72,-0.49,0.45,-68.57,-7.90,-21.13
14733,-9.24,2.58,-4.93,-1.06,-0.35,0.33,-68.57,-7.90,-21.13
14744,-9.24,2.58,-4.93,-1.06,-0.35,0.33,-68.57,-7.90,-21.13
14756,-8.33,4.13,-3.77,-1.18,-0.24,0.14,-68.57,-7.90,-21.13
14766,-8.33,4.13,-3.77,-1.18,-0.24,0.14,-68.57,-7.90,-21.13
14777,-8.59,5.21,-4.68,-0.60,0.14,-0.13,-68.57,-7.90,-21.13
14788,-8.59,5.21,-4.68,-0.60,0.14,-0.13,-68.57,-7.90,-21.13
14799,-8.25,3.75,-4.90,0.15,0.34,-0.36,-67.87,-5.90,-21.61
14810,-8.25,3.75,-4.90,0.15,0.34,-0.36,-67.87,-5.90,-21.61
14821,-8.22,3.55,-4.84,0.50,0.32,-0.29,-67.87,-5.90,-21.61
14832,-8.85,3.61,-5.15,0.93,0.22,-0.17,-67.87,-5.90,-21.61
14843,-8.85,3.61,-5.15,0.93,0.22,-0.17,-67.87,-5.90,-21.61
14854,-8.46,2.27,-5.15,1.17,0.11,-0.08,-67.87,-5.90,-21.61
14865,-8.46,2.27,-5.15,1.17,0.11,-0.08,-67.87,-5.90,-21.61
14876,-8.66,1.48,-5.20,0.98,-0.10,0.11,-67.87,-5.90,-21.61
14887,-8.66,1.48,-5.20,0.98,-0.10,0.11,-67.87,-5.90,-21.61
14898,-9.39,0.49,-4.81,0.32,-0.33,0.27,-67.87,-5.90,-21.61
14909,-9.39,0.49,-4.81,0.32,-0.33,0.27,-67.87,-5.90,-21.61
14920,-9.42,0.58,-4.07,-0.50,-0.43,0.35,-67.87,-5.90,-21.61
14931,-9.42,0.58,-4.07,-0.50,-0.43,0.35,-67.87,-5.90,-21.61
14942,-8.74,1.38,-4.04,-1.21,-0.49,0.40,-67.41,-7.13,-18.75
14953,-8.76,4.81,-3.37,-1.39,-0.35,0.34,-67.41,-7.13,-18.75
14964,-8.76,4.81,-3.37,-1.39,-0.35,0.34,-67.41,-7.13,-18.75
14975,-8.40,4.94,-4.49,-0.62,0.09,-0.08,-67.41,-7.13,-18.75
14986,-8.40,4.94,-4.49,-0.62,0.09,-0.08,-67.41,-7.13,-18.75
14997,-8.38,3.92,-5.13,0.20,0.31,-0.35,-67.41,-7.13,-18.75
15009,-8.38,3.92,-5.13,0.20,0.31,-0.35,-67.41,-7.13,-18.75
15019,-8.55,3.42,-4.79,0.34,0.22,-0.30,-67.41,-7.13,-18.75
15030,-8.55,3.42,-4.79,0.34,0.22,-0.30,-67.41,-7.13,-18.75
15041,-8.65,3.49,-4.34,0.30,0.04,-0.20,-67.41,-7.13,-18.75
15052,-8.65,3.49,-4.34,0.30,0.04,-0.20,-67.41,-7.13,-18.75
15063,-9.03,3.04,-4.76,0.45,-0.04,-0.19,-64.62,-6.82,-18.75
15074,-8.90,0.87,-4.81,0.29,-0.23,-0.11,-64.62,-6.82,-18.75
15085,-8.90,0.87,-4.81,0.29,-0.23,-0.11,-64.62,-6.82,-18.75
15096,-8.83,0.81,-4.24,-0.29,-0.55,0.28,-64.62,-6.82,-18.75
15107,-8.83,0.81,-4.24,-0.29,-0.55,0.28,-64.62,-6.82,-18.75
15118,-8.36,2.53,-3.93,-0.77,-0.71,0.64,-64.62,-6.82,-18.75
15129,-8.36,2.53,-3.93,-0.77,-0.71,0.64,-64.62,-6.82,-18.75
15140,-8.52,5.56,-4.15,-0.68,-0.54,0.65,-64.62,-6.82,-18.75
15151,-8.52,5.56,-4.15,-0.68,-0.54,0.65,-64.62,-6.82,-18.75
15162,-8.86,5.52,-4.46,-0.10,-0.20,0.18,-64.62,-6.82,-18.75
15173,-8.20,2.60,-3.75,0.27,0.07,-0.23,-67.18,-4.22,-18.59
15184,-8.20,2.60,-3.75,0.27,0.07,-0.23,-67.18,-4.22,-18.59
15195,-8.87,2.13,-4.04,0.32,0.29,-0.14,-67.18,-4.22,-18.59
15206,-8.87,2.13,-4.04,0.32,0.29,-0.14,-67.18,-4.22,-18.59
15217,-9.56,3.66,-1.98,-0.35,0.39,-0.11,-67.18,-4.22,-18.59
15228,-9.56,3.66,-1.98,-0.35,0.39,-0.11,-67.18,-4.22,-18.59
15239,-9.90,4.46,-3.65,-0.50,0.67,-0.40,-67.18,-4.22,-18.59
15250,-9.90,4.46,-3.65,-0.50,0.67,-0.40,-67.18,-4.22,-18.59
15261,-9.42,1.37,-3.84,0.48,0.66,-0.60,-67.18,-4.22,-18.59
15272,-9.42,1.37,-3.84,0.48,0.66,-0.60,-67.18,-4.22,-18.59
15283,-10.72,-1.24,-3.56,0.53,0.52,-0.35,-67.18,-4.22,-18.59
15294,-8.46,0.28,-3.88,-0.47,0.46,0.35,-66.94,-6.52,-19.70
15305,-8.46,0.28,-3.88,-0.47,0.46,0.35,-66.94,-6.52,-19.70
15316,-7.68,4.05,-4.59,-1.09,0.02,0.38,-66.94,-6.52,-19.70
15327,-7.68,4.05,-4.59,-1.09,0.02,0.38,-66.94,-6.52,-19.70
15338,-8.62,3.68,-3.06,-0.64,-0.20,0.01,-66.94,-6.52,-19.70
15349,-8.62,3.68,-3.06,-0.64,-0.20,0.01,-66.94,-6.52,-19.70
15360,-8.01,4.44,-5.74,-0.58,0.09,-0.02,-66.94,-6.52,-19.70
15371,-8.01,4.44,-5.74,-0.58,0.09,-0.02,-66.94,-6.52,-19.70
15382,-6.57,5.64,-6.90,-0.47,0.15,0.02,-66.94,-6.52,-19.70
15393,-6.74,5.55,-6.83,0.01,0.06,-0.05,-66.94,-6.52,-19.70
15404,-6.74,5.55,-6.83,0.01,0.06,-0.05,-66.94,-6.52,-19.70
15415,-7.99,4.92,-6.45,0.41,-0.10,-0.19,-66.94,-6.52,-19.70
15426,-7.99,4.92,-6.45,0.41,-0.10,-0.19,-66.94,-6.52,-19.70
15437,-9.63,1.40,-2.85,0.67,-0.35,-0.48,-66.01,-4.06,-18.75
15448,-9.63,1.40,-2.85,0.67,-0.35,-0.48,-66.01,-4.06,-18.75
15459,-10.07,-0.16,-2.43,0.33,-0.15,-0.35,-66.01,-4.06,-18.75
15470,-10.07,-0.16,-2.43,0.33,-0.15,-0.35,-66.01,-4.06,-18.75
15481,-9.42,1.77,-3.31,-0.34,0.04,0.03,-66.01,-4.06,-18.75
15492,-9.42,1.77,-3.31,-0.34,0.04,0.03,-66.01,-4.06,-18.75
15503,-8.39,4.65,-4.83,-0.58,0.09,0.13,-66.01,-4.06,-18.75
15514,-9.12,4.56,-5.04,-0.23,0.01,-0.15,-66.01,-4.06,-18.75
15525,-9.12,4.56,-5.04,-0.23,0.01,-0.15,-66.01,-4.06,-18.75
15536,-8.45,3.72,-5.30,0.10,0.04,-0.25,-66.01,-4.06,-18.75
15547,-8.45,3.72,-5.30,0.10,0.04,-0.25,-66.01,-4.06,-18.75
15558,-8.21,2.58,-4.22,0.45,-0.02,-0.21,-66.94,-4.68,-20.02
15569,-8.21,2.58,-4.22,0.45,-0.02,-0.21,-66.94,-4.68,-20.02
15580,-8.55,2.54,-4.78,0.70,0.01,-0.00,-66.94,-4.68,-20.02
15591,-8.55,2.54,-4.78,0.70,0.01,-0.00,-66.94,-4.68,-20.02
15602,-8.84,3.06,-4.10,0.89,-0.02,0.20,-66.94,-4.68,-20.02
15613,-9.10,3.50,-4.69,0.90,-0.07,0.24,-66.94,-4.68,-20.02
15624,-9.10,3.50,-4.69,0.90,-0.07,0.24,-66.94,-4.68,-20.02
15635,-9.28,1.43,-4.38,0.78,-0.24,0.21,-66.94,-4.68,-20.02
15646,-9.28,1.43,-4.38,0.78,-0.24,0.21,-66.94,-4.68,-20.02
15657,-9.42,-0.25,-3.38,-0.09,-0.39,0.27,-66.94,-4.68,-20.02
15668,-9.42,-0.25,-3.38,-0.09,-0.39,0.27,-66.94,-4.68,-20.02
15679,-9.23,1.37,-3.06,-1.16,-0.35,0.41,-67.87,-4.37,-20.97
15690,-9.23,1.37,-3.06,-1.16,-0.35,0.41,-67.87,-4.37,-20.97
15701,-8.57,5.51,-4.01,-1.44,-0.09,0.34,-67.87,-4.37,-20.97
15712,-8.57,5.51,-4.01,-1.44,-0.09,0.34,-67.87,-4.37,-20.97
15723,-7.87,6.62,-5.34,-0.45,0.24,-0.03,-67.87,-4.37,-20.97
15734,-7.79,4.63,-5.46,0.56,0.25,-0.30,-67.87,-4.37,-20.97
15745,-7.79,4.63,-5.46,0.56,0.25,-0.30,-67.87,-4.37,-20.97
15756,-8.66,2.96,-4.18,0.98,0.04,-0.29,-67.87,-4.37,-20.97
15767,-8.66,2.96,-4.18,0.98,0.04,-0.29,-67.87,-4.37,-20.97
15778,-9.25,1.87,-3.67,0.87,-0.05,-0.12,-67.87,-4.37,-20.97
15789,-9.25,1.87,-3.67,0.87,-0.05,-0.12,-67.87,-4.37,-20.97
15800,-9.12,0.90,-4.21,0.27,-0.14,-0.04,-67.87,-4.37,-20.97
15811,-9.12,0.90,-4.21,0.27,-0.14,-0.04,-67.87,-4.37,-20.97
15822,-9.14,0.23,-3.95,-0.49,-0.30,0.16,-66.71,-4.83,-18.59
15833,-8.94,1.78,-3.49,-1.24,-0.38,0.36,-66.71,-4.83,-18.59
15844,-8.94,1.78,-3.49,-1.24,-0.38,0.36,-66.71,-4.83,-18.59
15855,-8.61,4.12,-3.29,-1.65,-0.22,0.33,-66.71,-4.83,-18.59
15866,-8.61,4.12,-3.29,-1.65,-0.22,0.33,-66.71,-4.83,-18.59
15877,-8.52,6.74,-3.85,-1.22,0.11,0.08,-66.71,-4.83,-18.59
15888,-8.52,6.74,-3.85,-1.22,0.11,0.08,-66.71,-4.83,-18.59
15899,-8.20,4.49,-4.71,0.04,0.39,-0.30,-66.71,-4.83,-18.59
15910,-8.20,4.49,-4.71,0.04,0.39,-0.30,-66.71,-4.83,-18.59
15921,-8.37,3.78,-4.20,0.35,0.45,-0.37,-66.71,-4.83,-18.59
15932,-8.37,3.78,-4.20,0.35,0.45,-0.37,-66.71,-4.83,-18.59
15943,-8.28,3.38,-4.93,0.70,0.43,-0.28,-69.27,-2.22,-20.34
15954,-8.94,3.11,-4.79,0.86,0.20,-0.12,-69.27,-2.22,-20.34
15965,-8.94,3.11,-4.79,0.86,0.20,-0.12,-69.27,-2.22,-20.34
15976,-9.19,2.48,-3.98,0.72,-0.03,-0.02,-69.27,-2.22,-20.34
15987,-9.19,2.48,-3.98,0.72,-0.03,-0.02,-69.27,-2.22,-20.34
15998,-9.12,1.41,-4.27,0.26,-0.18,0.04,-69.27,-2.22,-20.34
16009,-9.12,1.41,-4.27,0.26,-0.18,0.04,-69.27,-2.22,-20.34
16020,-8.89,0.97,-4.42,-0.48,-0.34,0.20,-69.27,-2.22,-20.34
16036,-8.89,0.97,-4.42,-0.48,-0.34,0.20,-69.27,-2.22,-20.34
16042,-9.27,2.22,-3.62,-1.04,-0.48,0.37,-69.27,-2.22,-20.34
16053,-9.27,2.22,-3.62,-1.04,-0.48,0.37,-69.27,-2.22,-20.34
16064,-8.75,3.62,-3.34,-1.27,-0.40,0.31,-69.50,-0.53,-19.23
16075,-9.18,5.08,-2.82,-1.33,-0.11,0.09,-69.50,-0.53,-19.23
16086,-9.18,5.08,-2.82,-1.33,-0.11,0.09,-69.50,-0.53,-19.23
16097,-8.77,4.24,-3.49,-0.76,0.28,-0.31,-69.50,-0.53,-19.23
16108,-8.77,4.24,-3.49,-0.76,0.28,-0.31,-69.50,-0.53,-19.23
16119,-8.29,3.85,-4.20,0.06,0.51,-0.48,-69.50,-0.53,-19.23
16130,-8.29,3.85,-4.20,0.06,0.51,-0.48,-69.50,-0.53,-19.23
16141,-8.39,4.08,-3.87,0.41,0.49,-0.46,-69.50,-0.53,-19.23
16152,-8.39,4.08,-3.87,0.41,0.49,-0.46,-69.50,-0.53,-19.23
16163,-8.52,3.57,-4.87,0.55,0.36,-0.37,-69.50,-0.53,-19.23
16174,-8.38,3.52,-4.21,0.55,0.11,-0.21,-69.50,-0.53,-19.23
16185,-8.38,3.52,-4.21,0.55,0.11,-0.21,-69.50,-0.53,-19.23
16196,-8.27,1.87,-5.38,0.64,-0.05,0.02,-65.31,-5.75,-19.54
16207,-8.27,1.87,-5.38,0.64,-0.05,0.02,-65.31,-5.75,-19.54
16218,-9.00,2.21,-4.63,0.14,-0.42,0.39,-65.31,-5.75,-19.54
16229,-9.00,2.21,-4.63,0.14,-0.42,0.39,-65.31,-5.75,-19.54
16240,-8.99,2.39,-3.81,-0.29,-0.62,0.57,-65.31,-5.75,-19.54
16251,-8.99,2.39,-3.81,-0.29,-0.62,0.57,-65.31,-5.75,-19.54
16262,-9.19,2.58,-3.45,-0.48,-0.63,0.57,-65.31,-5.75,-19.54
16273,-9.19,2.58,-3.45,-0.48,-0.63,0.57,-65.31,-5.75,-19.54
16284,-9.35,2.87,-3.06,-0.79,-0.56,0.43,-65.31,-5.75,-19.54
16295,-9.25,4.24,-2.84,-0.99,-0.32,0.27,-65.31,-5.75,-19.54
16306,-9.25,4.24,-2.84,-0.99,-0.32,0.27,-65.31,-5.75,-19.54
16317,-9.61,4.19,-2.00,-0.72,0.09,0.04,-70.20,-1.91,-18.11
16328,-9.61,4.19,-2.00,-0.72,0.09,0.04,-70.20,-1.91,-18.11
16339,-9.60,3.65,-2.32,-0.18,0.67,-0.14,-70.20,-1.91,-18.11
16350,-9.60,3.65,-2.32,-0.18,0.67,-0.14,-70.20,-1.91,-18.11
16362,-7.56,3.98,-5.46,-0.17,1.12,-0.00,-70.20,-1.91,-18.11
16372,-7.56,3.98,-5.46,-0.17,1.12,-0.00,-70.20,-1.91,-18.11
16383,-6.57,5.56,-5.87,-0.14,0.77,0.02,-70.20,-1.91,-18.11
16394,-7.51,5.90,-5.94,0.48,0.29,-0.18,-70.20,-1.91,-18.11
16405,-7.51,5.90,-5.94,0.48,0.29,-0.18,-70.20,-1.91,-18.11
16416,-10.62,4.13,-4.39,0.88,-0.13,-0.52,-70.20,-1.91,-18.11
16427,-10.62,4.13,-4.39,0.88,-0.13,-0.52,-70.20,-1.91,-18.11
16438,-9.63,0.18,-3.27,0.53,-0.19,-0.50,-67.64,-2.07,-21.13
16454,-9.63,0.18,-3.27,0.53,-0.19,-0.50,-67.64,-2.07,-21.13
16460,-9.47,2.47,-3.22,-0.38,-0.19,-0.06,-67.64,-2.07,-21.13
16471,-9.47,2.47,-3.22,-0.38,-0.19,-0.06,-67.64,-2.07,-21.13
16482,-8.95,3.83,-3.61,-0.68,-0.21,-0.05,-67.64,-2.07,-21.13
16493,-8.95,3.83,-3.61,-0.68,-0.21,-0.05,-67.64,-2.07,-21.13
16504,-9.00,3.66,-3.13,-0.61,-0.19,-0.20,-67.64,-2.07,-21.13
16515,-9.38,2.19,-2.30,-0.34,0.01,-0.23,-67.64,-2.07,-21.13
16526,-9.38,2.19,-2.30,-0.34,0.01,-0.23,-67.64,-2.07,-21.13
16537,-9.86,0.89,-2.64,0.05,0.42,0.14,-67.64,-2.07,-21.13
16548,-9.86,0.89,-2.64,0.05,0.42,0.14,-67.64,-2.07,-21.13
16559,-7.70,3.80,-5.00,-0.16,0.75,0.74,-69.73,-0.99,-21.29
16570,-7.70,3.80,-5.00,-0.16,0.75,0.74,-69.73,-0.99,-21.29
16581,-6.87,6.80,-5.67,-0.00,0.61,0.68,-69.73,-0.99,-21.29
16593,-6.87,6.80,-5.67,-0.00,0.61,0.68,-69.73,-0.99,-21.29
16603,-7.74,6.34,-5.54,0.76,0.34,0.20,-69.73,-0.99,-21.29
16614,-8.27,3.14,-4.36,1.06,0.04,-0.25,-69.73,-0.99,-21.29
16625,-8.27,3.14,-4.36,1.06,0.04,-0.25,-69.73,-0.99,-21.29
16636,-8.57,2.52,-4.44,0.72,-0.08,-0.26,-69.73,-0.99,-21.29
16647,-8.57,2.52,-4.44,0.72,-0.08,-0.26,-69.73,-0.99,-21.29
16658,-9.29,2.43,-3.66,0.43,-0.20,-0.22,-69.73,-0.99,-21.29
16669,-9.29,2.43,-3.66,0.43,-0.20,-0.22,-69.73,-0.99,-21.29
16680,-9.69,2.09,-3.04,0.22,-0.16,-0.18,-69.73,-0.99,-21.29
16691,-9.69,2.09,-3.04,0.22,-0.16,-0.18,-69.73,-0.99,-21.29
16702,-8.78,3.17,-4.39,-0.02,-0.01,0.03,-68.34,-2.83,-21.61
16713,-8.78,3.17,-4.39,-0.02,-0.01,0.03,-68.34,-2.83,-21.61
16724,-8.84,3.52,-4.14,-0.05,-0.03,0.10,-68.34,-2.83,-21.61
16735,-8.46,3.57,-4.32,0.02,0.02,0.10,-68.34,-2.83,-21.61
16746,-8.46,3.57,-4.32,0.02,0.02,0.10,-68.34,-2.83,-21.61
16757,-8.42,3.54,-4.45,0.08,0.02,0.02,-68.34,-2.83,-21.61
16768,-8.42,3.54,-4.45,0.08,0.02,0.02,-68.34,-2.83,-21.61
16779,-8.45,3.81,-4.64,0.07,0.01,-0.04,-68.34,-2.83,-21.61
16790,-8.45,3.81,-4.64,0.07,0.01,-0.04,-68.34,-2.83,-21.61
16801,-8.58,3.33,-4.10,0.11,-0.00,-0.11,-68.34,-2.83,-21.61
16812,-8.58,3.33,-4.10,0.11,-0.00,-0.11,-68.34,-2.83,-21.61
16823,-8.66,3.12,-4.11,0.17,0.04,-0.09,-65.78,-2.99,-21.45
16834,-8.46,3.38,-4.39,0.16,0.07,-0.05,-65.78,-2.99,-21.45
16845,-8.46,3.38,-4.39,0.16,0.07,-0.05,-65.78,-2.99,-21.45
16856,-8.36,3.84,-4.50,0.23,0.06,-0.08,-65.78,-2.99,-21.45
16867,-8.36,3.84,-4.50,0.23,0.06,-0.08,-65.78,-2.99,-21.45
16878,-8.64,3.29,-4.69,0.42,0.01,-0.20,-65.78,-2.99,-21.45
16889,-8.64,3.29,-4.69,0.42,0.01,-0.20,-65.78,-2.99,-21.45
16900,-9.18,1.83,-3.79,0.42,-0.07,-0.17,-65.78,-2.99,-21.45
16911,-9.18,1.83,-3.79,0.42,-0.07,-0.17,-65.78,-2.99,-21.45
16922,-8.99,2.54,-3.94,0.00,-0.07,0.02,-65.78,-2.99,-21.45
16933,-8.99,2.54,-3.94,0.00,-0.07,0.02,-65.78,-2.99,-21.45
16944,-8.86,3.93,-4.38,-0.15,-0.08,0.04,-65.08,-4.68,-20.97
16955,-8.98,3.23,-4.46,-0.09,-0.06,-0.12,-65.08,-4.68,-20.97
16966,-8.98,3.23,-4.46,-0.09,-0.06,-0.12,-65.08,-4.68,-20.97
16977,-8.95,2.59,-4.13,-0.10,-0.01,-0.22,-65.08,-4.68,-20.97
16988,-8.95,2.59,-4.13,-0.10,-0.01,-0.22,-65.08,-4.68,-20.97
16999,-8.91,2.65,-4.22,-0.14,0.01,-0.19,-65.08,-4.68,-20.97
17010,-8.91,2.65,-4.22,-0.14,0.01,-0.19,-65.08,-4.68,-20.97
17021,-8.48,3.27,-4.02,-0.18,0.02,-0.15,-65.08,-4.68,-20.97
17032,-8.48,3.27,-4.02,-0.18,0.02,-0.15,-65.08,-4.68,-20.97
17043,-8.27,3.97,-4.89,-0.12,0.03,-0.09,-65.08,-4.68,-20.97
17054,-8.27,3.97,-4.89,-0.12,0.03,-0.09,-65.08,-4.68,-20.97
17065,-8.65,3.33,-4.39,0.16,-0.03,-0.05,-65.08,-4.68,-20.97
17076,-8.49,1.82,-4.50,0.35,-0.04,0.03,-67.87,-4.37,-20.97
17087,-8.49,1.82,-4.50,0.35,-0.04,0.03,-67.87,-4.37,-20.97
17098,-8.80,2.10,-4.31,0.11,-0.12,0.34,-67.87,-4.37,-20.97
17109,-8.80,2.10,-4.31,0.11,-0.12,0.34,-67.87,-4.37,-20.97
17120,-9.65,3.93,-3.13,-0.22,-0.18,0.48,-67.87,-4.37,-20.97
17131,-9.65,3.93,-3.13,-0.22,-0.18,0.48,-67.87,-4.37,-20.97
17142,-10.46,3.47,-3.24,-0.04,0.04,0.32,-67.87,-4.37,-20.97
17153,-10.46,3.47,-3.24,-0.04,0.04,0.32,-67.87,-4.37,-20.97
17164,-10.47,1.40,-1.81,0.01,0.36,0.28,-67.87,-4.37,-20.97
17175,-9.24,3.20,-3.77,-0.40,0.69,0.38,-67.87,-4.37,-20.97
17186,-9.24,3.20,-3.77,-0.40,0.69,0.38,-67.87,-4.37,-20.97
17197,-7.81,3.43,-3.81,-0.47,0.55,0.09,-65.78,-2.37,-22.08
17208,-7.81,3.43,-3.81,-0.47,0.55,0.09,-65.78,-2.37,-22.08
17219,-7.58,3.24,-5.18,-0.35,0.36,-0.12,-65.78,-2.37,-22.08
17230,-7.58,3.24,-5.18,-0.35,0.36,-0.12,-65.78,-2.37,-22.08
17242,-7.37,4.36,-6.26,-0.26,0.22,0.01,-65.78,-2.37,-22.08
17252,-7.37,4.36,-6.26,-0.26,0.22,0.01,-65.78,-2.37,-22.08
17263,-6.70,6.50,-7.01,-0.15,0.14,0.15,-65.78,-2.37,-22.08
17274,-6.70,6.50,-7.01,-0.15,0.14,0.15,-65.78,-2.37,-22.08
17285,-6.18,6.70,-6.99,0.34,0.09,0.06,-65.78,-2.37,-22.08
17296,-7.01,4.25,-5.97,0.77,-0.13,-0.22,-65.78,-2.37,-22.08
17307,-7.01,4.25,-5.97,0.77,-0.13,-0.22,-65.78,-2.37,-22.08
17318,-8.68,2.26,-4.58,0.70,-0.36,-0.28,-65.08,-5.29,-21.92
17329,-8.68,2.26,-4.58,0.70,-0.36,-0.28,-65.08,-5.29,-21.92
17340,-9.97,1.99,-3.30,0.44,-0.36,-0.10,-65.08,-5.29,-21.92
17351,-9.97,1.99,-3.30,0.44,-0.36,-0.10,-65.08,-5.29,-21.92
17362,-9.70,1.77,-2.86,0.24,-0.18,0.02,-65.08,-5.29,-21.92
17373,-9.70,1.77,-2.86,0.24,-0.18,0.02,-65.08,-5.29,-21.92
17384,-9.53,2.70,-3.79,0.11,-0.04,0.08,-65.08,-5.29,-21.92
17395,-8.75,2.66,-3.36,0.14,0.03,0.06,-65.08,-5.29,-21.92
17406,-8.75,2.66,-3.36,0.14,0.03,0.06,-65.08,-5.29,-21.92
17417,-8.32,3.50,-5.26,-0.00,0.13,0.07,-65.08,-5.29,-21.92
17428,-8.32,3.50,-5.26,-0.00,0.13,0.07,-65.08,-5.29,-21.92
17439,-8.48,3.35,-4.72,-0.12,-0.03,-0.02,-65.08,-5.29,-21.92
17450,-8.48,3.35,-4.72,-0.12,-0.03,-0.02,-65.08,-5.29,-21.92
17461,-8.94,2.96,-4.51,-0.29,-0.13,-0.09,-67.41,-3.75,-22.24
17472,-8.94,2.96,-4.51,-0.29,-0.13,-0.09,-67.41,-3.75,-22.24
17483,-9.09,2.86,-4.02,-0.38,-0.15,-0.03,-67.41,-3.75,-22.24
17494,-9.09,2.86,-4.02,-0.38,-0.15,-0.03,-67.41,-3.75,-22.24
17505,-8.58,3.23,-3.95,-0.40,-0.08,0.09,-67.41,-3.75,-22.24
17516,-8.35,3.89,-4.58,-0.34,-0.00,0.09,-67.41,-3.75,-22.24
17527,-8.35,3.89,-4.58,-0.34,-0.00,0.09,-67.41,-3.75,-22.24
17538,-8.24,4.12,-4.60,-0.17,0.01,0.02,-67.41,-3.75,-22.24
17549,-8.24,4.12,-4.60,-0.17,0.01,0.02,-67.41,-3.75,-22.24
17560,-8.16,4.10,-4.85,0.01,0.01,-0.07,-67.41,-3.75,-22.24
17571,-8.16,4.10,-4.85,0.01,0.01,-0.07,-67.41,-3.75,-22.24
17582,-8.46,3.58,-4.42,0.22,-0.04,-0.15,-66.94,-1.91,-23.51
17593,-8.46,3.58,-4.42,0.22,-0.04,-0.15,-66.94,-1.91,-23.51
17604,-8.59,3.47,-4.33,0.37,-0.06,-0.15,-66.94,-1.91,-23.51
17615,-8.29,3.55,-4.69,0.55,-0.04,-0.10,-66.94,-1.91,-23.51
17626,-8.29,3.55,-4.69,0.55,-0.04,-0.10,-66.94,-1.91,-23.51
17637,-9.38,2.35,-3.63,0.66,-0.10,-0.07,-66.94,-1.91,-23.51
17648,-9.38,2.35,-3.63,0.66,-0.10,-0.07,-66.94,-1.91,-23.51
17659,-9.06,2.70,-4.40,0.27,-0.11,-0.01,-66.94,-1.91,-23.51
17670,-9.06,2.70,-4.40,0.27,-0.11,-0.01,-66.94,-1.91,-23.51
17681,-8.93,2.19,-4.08,0.01,-0.22,0.00,-66.94,-1.91,-23.51
17692,-8.93,2.19,-4.08,0.01,-0.22,0.00,-66.94,-1.91,-23.51
17703,-9.10,1.78,-4.24,-0.53,-0.29,0.04,-65.55,-4.37,-20.02
17714,-9.10,1.78,-4.24,-0.53,-0.29,0.04,-65.55,-4.37,-20.02
17725,-8.55,3.05,-4.02,-1.01,-0.28,0.14,-65.55,-4.37,-20.02
17736,-8.69,5.62,-3.89,-0.98,-0.14,0.13,-65.55,-4.37,-20.02
17747,-8.69,5.62,-3.89,-0.98,-0.14,0.13,-65.55,-4.37,-20.02
17758,-8.44,5.02,-4.04,-0.14,0.15,-0.13,-65.55,-4.37,-20.02
17769,-8.44,5.02,-4.04,-0.14,0.15,-0.13,-65.55,-4.37,-20.02
17780,-8.20,4.31,-4.59,0.54,0.31,-0.26,-65.55,-4.37,-20.02
17791,-8.20,4.31,-4.59,0.54,0.31,-0.26,-65.55,-4.37,-20.02
17802,-8.42,3.98,-4.42,1.01,0.35,-0.26,-65.55,-4.37,-20.02
17813,-8.42,3.98,-4.42,1.01,0.35,-0.26,-65.55,-4.37,-20.02
17824,-8.23,2.54,-4.99,1.34,0.27,-0.17,-65.55,-4.37,-20.02
17835,-9.00,2.28,-3.91,1.13,0.01,0.01,-69.04,-4.37,-20.02
17847,-9.00,2.28,-3.91,1.13,0.01,0.01,-69.04,-2.37,-21.13
17857,-9.34,2.44,-4.28,0.64,-0.09,0.08,-69.04,-2.37,-21.13
17868,-9.34,2.44,-4.28,0.64,-0.09,0.08,-69.04,-2.37,-21.13
17879,-8.89,1.13,-4.87,0.12,-0.16,0.03,-69.04,-2.37,-21.13
17890,-8.89,1.13,-4.87,0.12,-0.16,0.03,-69.04,-2.37,-21.13
17901,-8.83,1.07,-5.36,-0.63,-0.35,0.19,-69.04,-2.37,-21.13
17912,-8.83,1.07,-5.36,-0.63,-0.35,0.19,-69.04,-2.37,-21.13
17923,-8.76,2.34,-3.85,-1.24,-0.58,0.38,-69.04,-2.37,-21.13
17934,-8.76,2.34,-3.85,-1.24,-0.58,0.38,-69.04,-2.37,-21.13
17945,-8.85,5.03,-2.80,-1.35,-0.49,0.39,-69.04,-2.37,-21.13
17956,-8.90,4.98,-2.56,-0.57,-0.03,0.10,-66.71,-2.37,-20.18
17967,-8.90,4.98,-2.56,-0.57,-0.03,0.10,-66.71,-2.37,-20.18
17978,-8.84,4.37,-3.92,0.12,0.44,-0.11,-66.71,-2.37,-20.18
17989,-8.84,4.37,-3.92,0.12,0.44,-0.11,-66.71,-2.37,-20.18
18000,-8.66,2.38,-3.31,0.31,0.66,-0.16,-66.71,-2.37,-20.18
18011,-8.66,2.38,-3.31,0.31,0.66,-0.16,-66.71,-2.37,-20.18
18022,-8.10,3.22,-5.83,-0.03,0.76,0.06,-66.71,-2.37,-20.18
18033,-8.10,3.22,-5.83,-0.03,0.76,0.06,-66.71,-2.37,-20.18
18044,-7.99,4.25,-5.05,-0.23,0.42,0.08,-66.71,-2.37,-20.18
18055,-7.99,4.25,-5.05,-0.23,0.42,0.08,-66.71,-2.37,-20.18
18066,-8.25,4.21,-4.87,-0.18,0.26,-0.07,-66.71,-2.37,-20.18
18077,-8.59,3.39,-4.59,-0.14,0.18,-0.19,-65.31,-2.37,-21.13
18088,-8.59,3.39,-4.59,-0.14,0.18,-0.19,-65.31,-2.37,-21.13
18099,-8.63,3.17,-4.32,0.03,0.12,-0.17,-65.31,-2.37,-21.13
18110,-8.63,3.17,-4.32,0.03,0.12,-0.17,-65.31,-2.37,-21.13
18121,-8.15,3.09,-4.68,0.14,0.05,-0.10,-65.31,-2.37,-21.13
18132,-8.15,3.09,-4.68,0.14,0.05,-0.10,-65.31,-2.37,-21.13
18143,-8.14,3.88,-5.06,0.14,-0.05,-0.06,-65.31,-2.37,-21.13
18154,-8.14,3.88,-5.06,0.14,-0.05,-0.06,-65.31,-2.37,-21.13
18165,-9.40,4.11,-4.81,0.22,-0.17,-0.19,-65.31,-2.37,-21.13
18176,-9.54,1.89,-4.20,0.18,-0.13,-0.29,-65.31,-2.37,-21.13
18187,-9.54,1.89,-4.20,0.18,-0.13,-0.29,-65.31,-2.37,-21.13
18198,-9.08,2.62,-3.29,-0.25,-0.04,-0.14,-66.48,-2.22,-21.29
18209,-9.08,2.62,-3.29,-0.25,-0.04,-0.14,-66.48,-2.22,-21.29
18220,-8.94,4.48,-4.25,-0.50,0.07,-0.15,-66.48,-2.22,-21.29
18231,-8.94,4.48,-4.25,-0.50,0.07,-0.15,-66.48,-2.22,-21.29
18242,-8.84,3.24,-4.34,-0.18,0.14,-0.28,-66.48,-2.22,-21.29
18253,-8.84,3.24,-4.34,-0.18,0.14,-0.28,-66.48,-2.22,-21.29
18264,-8.10,1.84,-4.27,0.18,0.17,-0.14,-66.48,-2.22,-21.29
18275,-8.10,1.84,-4.27,0.18,0.17,-0.14,-66.48,-2.22,-21.29
18286,-9.63,1.07,-3.65,0.29,0.14,0.24,-66.48,-2.22,-21.29
18297,-8.77,2.62,-4.47,-0.03,0.22,0.76,-66.48,-2.22,-21.29
18308,-8.77,2.62,-4.47,-0.03,0.22,0.76,-66.48,-2.22,-21.29
18319,-6.67,5.12,-5.43,-0.30,0.11,0.85,-66.48,-2.22,-21.29
18330,-6.67,5.12,-5.43,-0.30,0.11,0.85,-66.48,-2.22,-21.29
18341,-7.65,5.76,-5.32,-0.13,-0.14,0.44,-69.04,-1.45,-23.67
18352,-7.65,5.76,-5.32,-0.13,-0.14,0.44,-69.04,-1.45,-23.67
18363,-8.13,4.29,-5.16,0.28,-0.26,0.08,-69.04,-1.45,-23.67
18374,-8.13,4.29,-5.16,0.28,-0.26,0.08,-69.04,-1.45,-23.67
18385,-8.63,2.92,-4.51,0.36,-0.39,-0.00,-69.04,-1.45,-23.67
18396,-9.16,2.97,-3.32,0.14,-0.43,0.09,-69.04,-1.45,-23.67
18408,-9.16,2.97,-3.32,0.14,-0.43,0.09,-69.04,-1.45,-23.67
18418,-8.44,3.68,-3.59,-0.03,-0.19,0.08,-69.04,-1.45,-23.67
18429,-8.44,3.68,-3.59,-0.03,-0.19,0.08,-69.04,-1.45,-23.67
18440,-8.06,3.71,-5.12,0.07,-0.07,-0.03,-69.04,-1.45,-23.67
18451,-8.06,3.71,-5.12,0.07,-0.07,-0.03,-69.04,-1.45,-23.67
18462,-8.50,4.52,-5.20,0.22,-0.28,-0.03,-67.87,-1.61,-20.65
18473,-8.50,4.52,-5.20,0.22,-0.28,-0.03,-67.87,-1.61,-20.65
18484,-9.00,3.92,-3.59,0.45,-0.46,-0.18,-67.87,-1.61,-20.65
18495,-9.00,3.92,-3.59,0.45,-0.46,-0.18,-67.87,-1.61,-20.65
18506,-9.78,1.40,-2.77,0.41,-0.32,-0.39,-67.87,-1.61,-20.65
18517,-9.04,1.53,-4.07,-0.23,-0.05,-0.25,-67.87,-1.61,-20.65
18528,-9.04,1.53,-4.07,-0.23,-0.05,-0.25,-67.87,-1.61,-20.65
18539,-8.86,4.47,-4.49,-0.61,0.07,-0.05,-67.87,-1.61,-20.65
18550,-8.86,4.47,-4.49,-0.61,0.07,-0.05,-67.87,-1.61,-20.65
18561,-8.46,4.55,-4.04,-0.01,0.19,-0.13,-67.87,-1.61,-20.65
18572,-8.46,4.55,-4.04,-0.01,0.19,-0.13,-67.87,-1.61,-20.65
18583,-8.61,4.02,-4.19,0.58,0.21,-0.20,-67.18,-4.22,-22.08
18594,-8.61,4.02,-4.19,0.58,0.21,-0.20,-67.18,-4.22,-22.08
18605,-8.92,3.48,-3.61,0.71,0.09,-0.18,-67.18,-4.22,-22.08
18616,-8.71,2.49,-4.81,0.61,0.00,-0.14,-67.18,-4.22,-22.08
18627,-8.71,2.49,-4.81,0.61,0.00,-0.14,-67.18,-4.22,-22.08
18639,-8.57,1.78,-4.60,0.22,-0.23,0.00,-67.18,-4.22,-22.08
18649,-8.57,1.78,-4.60,0.22,-0.23,0.00,-67.18,-4.22,-22.08
18660,-8.66,2.63,-4.47,-0.11,-0.34,0.20,-67.18,-4.22,-22.08
18671,-8.66,2.63,-4.47,-0.11,-0.34,0.20,-67.18,-4.22,-22.08
18682,-8.83,3.44,-4.16,-0.25,-0.38,0.26,-67.18,-4.22,-22.08
18693,-8.83,3.44,-4.16,-0.25,-0.38,0.26,-67.18,-4.22,-22.08
18704,-8.32,3.98,-4.47,-0.24,-0.38,0.25,-67.18,-4.22,-22.08
18715,-8.32,3.98,-4.47,-0.24,-0.38,0.25,-67.18,-4.22,-22.08
18726,-8.64,4.21,-3.88,-0.07,-0.31,0.17,-67.64,-3.91,-19.23
18737,-8.51,3.08,-3.63,-0.06,-0.15,0.02,-67.64,-3.91,-19.23
18748,-8.51,3.08,-3.63,-0.06,-0.15,0.02,-67.64,-3.91,-19.23
18759,-8.89,3.19,-3.25,-0.19,0.05,0.02,-67.64,-3.91,-19.23
18770,-8.89,3.19,-3.25,-0.19,0.05,0.02,-67.64,-3.91,-19.23
18781,-9.48,3.02,-3.20,-0.23,0.22,-0.02,-67.64,-3.91,-19.23
18792,-9.48,3.02,-3.20,-0.23,0.22,-0.02,-67.64,-3.91,-19.23
18803,-9.18,3.35,-2.66,-0.30,0.30,-0.07,-67.64,-3.91,-19.23
18814,-9.18,3.35,-2.66,-0.30,0.30,-0.07,-67.64,-3.91,-19.23
18825,-9.93,3.19,-3.99,-0.28,0.35,-0.12,-67.64,-3.91,-19.23
18836,-9.80,0.79,-2.75,-0.27,0.29,-0.04,-65.78,-3.91,-19.23
18847,-9.80,0.79,-2.75,-0.27,0.29,-0.04,-65.78,-3.60,-20.81
18858,-7.54,2.79,-5.28,-0.84,0.20,0.32,-65.78,-3.60,-20.81
18869,-7.54,2.79,-5.28,-0.84,0.20,0.32,-65.78,-3.60,-20.81
18880,-5.95,6.01,-6.52,-0.91,-0.24,0.24,-65.78,-3.60,-20.81
18892,-5.95,6.01,-6.52,-0.91,-0.24,0.24,-65.78,-3.60,-20.81
18902,-9.06,7.02,-7.00,-0.26,-0.76,-0.18,-65.78,-3.60,-20.81
18913,-9.06,7.02,-7.00,-0.26,-0.76,-0.18,-65.78,-3.60,-20.81
18924,-9.22,4.51,-4.22,0.08,-0.90,-0.23,-65.78,-3.60,-20.81
18935,-9.22,4.51,-4.22,0.08,-0.90,-0.23,-65.78,-3.60,-20.81
18946,-9.16,1.01,-0.69,0.15,-0.76,-0.07,-65.78,-3.60,-20.81
18957,-8.76,1.07,-1.29,0.22,-0.27,0.34,-70.66,-0.99,-19.07
18968,-8.76,1.07,-1.29,0.22,-0.27,0.34,-70.66,-0.99,-19.07
18979,-9.14,4.14,-2.68,0.29,0.13,0.71,-70.66,-0.99,-19.07
18990,-9.14,4.14,-2.68,0.29,0.13,0.71,-70.66,-0.99,-19.07
19001,-9.26,4.79,-2.10,0.61,0.43,0.64,-70.66,-0.99,-19.07
19012,-9.26,4.79,-2.10,0.61,0.43,0.64,-70.66,-0.99,-19.07
19023,-11.02,0.62,-0.25,0.78,0.90,0.60,-70.66,-0.99,-19.07
19034,-11.02,0.62,-0.25,0.78,0.90,0.60,-70.66,-0.99,-19.07
19045,-10.21,1.60,-3.13,0.29,1.54,1.09,-70.66,-0.99,-19.07
19056,-10.21,1.60,-3.13,0.29,1.54,1.09,-70.66,-0.99,-19.07
19067,-8.72,4.77,-4.25,0.10,1.78,1.36,-70.66,-0.99,-19.07
19078,-6.19,6.65,-5.92,0.57,1.61,0.93,-70.66,-0.99,-19.07
19089,-6.19,6.65,-5.92,0.57,1.61,0.93,-70.66,-0.99,-19.07
19100,-5.11,9.72,-9.92,1.18,0.78,-0.26,-66.25,1.31,-23.99
19111,-5.11,9.72,-9.92,1.18,0.78,-0.26,-66.25,1.31,-23.99
19122,-4.49,6.42,-8.29,1.90,-0.70,-1.66,-66.25,1.31,-23.99
19133,-4.49,6.42,-8.29,1.90,-0.70,-1.66,-66.25,1.31,-23.99
19144,-9.03,1.57,-2.62,1.70,-1.47,-1.96,-66.25,1.31,-23.99
19155,-9.03,1.57,-2.62,1.70,-1.47,-1.96,-66.25,1.31,-23.99
19166,-7.75,1.57,-3.54,0.81,-0.41,-0.75,-66.25,1.31,-23.99
19177,-7.35,4.50,-8.61,0.12,0.20,-0.11,-66.25,1.31,-23.99
19188,-7.35,4.50,-8.61,0.12,0.20,-0.11,-66.25,1.31,-23.99
19199,-9.08,1.97,-3.96,0.28,-0.27,-0.27,-66.25,1.31,-23.99
19210,-9.08,1.97,-3.96,0.28,-0.27,-0.27,-66.25,1.31,-23.99
19221,-8.85,1.00,-3.51,-0.08,-0.14,-0.21,-64.15,-4.37,-21.61
19232,-8.85,1.00,-3.51,-0.08,-0.14,-0.21,-64.15,-4.37,-21.61
19243,-9.10,2.78,-5.31,-0.52,-0.07,-0.06,-64.15,-4.37,-21.61
19254,-9.10,2.78,-5.31,-0.52,-0.07,-0.06,-64.15,-4.37,-21.61
19265,-9.50,2.78,-3.05,-0.44,-0.21,-0.05,-64.15,-4.37,-21.61
19276,-9.50,2.78,-3.05,-0.44,-0.21,-0.05,-64.15,-4.37,-21.61
19287,-8.95,2.44,-3.52,-0.18,-0.01,-0.03,-64.15,-4.37,-21.61
19298,-8.33,2.89,-5.48,-0.16,0.09,0.06,-64.15,-4.37,-21.61
19309,-8.33,2.89,-5.48,-0.16,0.09,0.06,-64.15,-4.37,-21.61
19320,-8.53,3.56,-5.20,-0.35,-0.14,-0.03,-64.15,-4.37,-21.61
19331,-8.53,3.56,-5.20,-0.35,-0.14,-0.03,-64.15,-4.37,-21.61
19342,-8.28,3.67,-4.76,-0.47,-0.22,-0.22,-66.01,-4.37,-21.29
19353,-8.28,3.67,-4.76,-0.47,-0.22,-0.22,-66.01,-4.37,-21.29
19364,-8.22,3.03,-4.68,-0.30,-0.17,-0.30,-66.01,-4.37,-21.29
19375,-8.22,3.03,-4.68,-0.30,-0.17,-0.30,-66.01,-4.37,-21.29
19386,-9.77,2.89,-4.05,-0.27,-0.17,-0.30,-66.01,-4.37,-21.29
19397,-8.52,3.56,-3.82,-0.31,-0.05,-0.22,-66.01,-4.37,-21.29
19408,-8.52,3.56,-3.82,-0.31,-0.05,-0.22,-66.01,-4.37,-21.29
19419,-8.89,4.02,-4.20,0.07,0.08,-0.22,-66.01,-4.37,-21.29
19431,-8.89,4.02,-4.20,0.07,0.08,-0.22,-66.01,-4.37,-21.29
19441,-8.17,3.33,-4.23,0.76,0.22,-0.24,-66.01,-4.37,-21.29
19452,-8.17,3.33,-4.23,0.76,0.22,-0.24,-66.01,-4.37,-21.29
19463,-8.50,2.54,-4.91,1.28,0.28,-0.13,-67.41,-4.98,-21.61
19474,-8.50,2.54,-4.91,1.28,0.28,-0.13,-67.41,-4.98,-21.61
19485,-8.77,2.30,-5.58,1.13,0.16,0.02,-67.41,-4.98,-21.61
19496,-8.77,2.30,-5.58,1.13,0.16,0.02,-67.41,-4.98,-21.61
19507,-8.84,1.75,-4.99,0.89,-0.11,0.22,-67.41,-4.98,-21.61
19518,-9.51,1.26,-3.99,0.21,-0.31,0.33,-67.41,-4.98,-21.61
19529,-9.51,1.26,-3.99,0.21,-0.31,0.33,-67.41,-4.98,-21.61
19540,-8.93,0.38,-4.62,-0.62,-0.37,0.32,-67.41,-4.98,-21.61
19551,-8.93,0.38,-4.62,-0.62,-0.37,0.32,-67.41,-4.98,-21.61
19562,-8.88,2.23,-4.03,-1.39,-0.41,0.41,-67.41,-4.98,-21.61
19573,-8.88,2.23,-4.03,-1.39,-0.41,0.41,-67.41,-4.98,-21.61
19584,-8.78,5.38,-3.18,-1.63,-0.23,0.23,-67.41,-4.98,-21.61
19595,-8.78,5.38,-3.18,-1.63,-0.23,0.23,-67.41,-4.98,-21.61
19606,-8.46,4.78,-4.08,-0.57,0.22,-0.21,-67.87,-3.45,-20.34
19617,-8.19,3.76,-5.10,0.32,0.35,-0.36,-67.87,-3.45,-20.34
19628,-8.19,3.76,-5.10,0.32,0.35,-0.36,-67.87,-3.45,-20.34
19639,-8.59,3.57,-4.43,0.49,0.20,-0.20,-67.87,-3.45,-20.34
19650,-8.59,3.57,-4.43,0.49,0.20,-0.20,-67.87,-3.45,-20.34
19661,-8.61,4.06,-4.69,0.84,0.15,-0.07,-67.87,-3.45,-20.34
19672,-8.61,4.06,-4.69,0.84,0.15,-0.07,-67.87,-3.45,-20.34
19683,-8.95,2.11,-4.72,1.09,0.02,0.00,-67.87,-3.45,-20.34
19694,-8.95,2.11,-4.72,1.09,0.02,0.00,-67.87,-3.45,-20.34
19705,-8.80,1.14,-4.97,0.71,-0.20,0.18,-67.87,-3.45,-20.34
19716,-8.80,1.14,-4.97,0.71,-0.20,0.18,-67.87,-3.45,-20.34
19727,-9.12,1.68,-3.68,-0.15,-0.36,0.30,-66.71,-5.44,-20.18
19738,-9.10,2.35,-4.35,-0.71,-0.31,0.23,-66.71,-5.44,-20.18
19749,-9.10,2.35,-4.35,-0.71,-0.31,0.23,-66.71,-5.44,-20.18
19760,-8.97,3.27,-3.40,-0.98,-0.23,0.09,-66.71,-5.44,-20.18
19771,-8.97,3.27,-3.40,-0.98,-0.23,0.09,-66.71,-5.44,-20.18
19782,-8.95,4.23,-3.73,-0.94,0.04,-0.15,-66.71,-5.44,-20.18
19793,-8.95,4.23,-3.73,-0.94,0.04,-0.15,-66.71,-5.44,-20.18
19804,-8.30,3.86,-4.68,-0.33,0.25,-0.39,-66.71,-5.44,-20.18
19815,-8.30,3.86,-4.68,-0.33,0.25,-0.39,-66.71,-5.44,-20.18
19826,-8.21,3.74,-4.73,0.13,0.22,-0.34,-66.71,-5.44,-20.18
19837,-8.66,4.21,-4.14,0.40,0.12,-0.21,-66.71,-5.44,-20.18
19848,-8.66,4.21,-4.14,0.40,0.12,-0.21,-67.41,-5.29,-20.02
19859,-8.45,2.50,-5.01,0.85,0.10,-0.19,-67.41,-5.29,-20.02
19870,-8.45,2.50,-5.01,0.85,0.10,-0.19,-67.41,-5.29,-20.02
19881,-8.91,1.51,-5.17,0.68,-0.08,0.09,-67.41,-5.29,-20.02
19892,-8.91,1.51,-5.17,0.68,-0.08,0.09,-67.41,-5.29,-20.02
19903,-9.30,1.09,-3.85,-0.09,-0.33,0.29,-67.41,-5.29,-20.02
19914,-9.30,1.09,-3.85,-0.09,-0.33,0.29,-67.41,-5.29,-20.02
19925,-9.30,0.82,-3.73,-0.86,-0.45,0.37,-67.41,-5.29,-20.02
19936,-9.30,0.82,-3.73,-0.86,-0.45,0.37,-67.41,-5.29,-20.02
19947,-8.79,3.04,-3.38,-1.49,-0.46,0.41,-67.41,-5.29,-20.02
19958,-8.66,4.88,-3.19,-1.57,-0.19,0.24,-67.41,-5.29,-20.02
19969,-8.66,4.88,-3.19,-1.57,-0.19,0.24,-67.41,-5.29,-20.02
19980,-8.65,5.79,-3.64,-0.72,0.21,-0.09,-68.11,-3.29,-20.81
19991,-8.65,5.79,-3.64,-0.72,0.21,-0.09,-68.11,-3.29,-20.81
20002,-8.24,4.01,-4.39,0.20,0.46,-0.36,-68.11,-3.29,-20.81
20013,-8.24,4.01,-4.39,0.20,0.46,-0.36,-68.11,-3.29,-20.81
20024,-8.45,3.91,-4.92,0.61,0.40,-0.30,-68.11,-3.29,-20.81
20035,-8.45,3.91,-4.92,0.61,0.40,-0.30,-68.11,-3.29,-20.81
20046,-9.25,3.49,-4.17,0.85,0.15,-0.17,-68.11,-3.29,-20.81
20057,-9.25,3.49,-4.17,0.85,0.15,-0.17,-68.11,-3.29,-20.81
20068,-8.96,1.91,-4.82,0.60,-0.00,-0.14,-68.11,-3.29,-20.81
20079,-8.90,1.09,-4.18,-0.18,-0.27,-0.01,-68.11,-3.29,-20.81
20090,-8.90,1.09,-4.18,-0.18,-0.27,-0.01,-68.11,-3.29,-20.81
20101,-8.99,1.45,-3.78,-0.98,-0.46,0.17,-66.48,-4.06,-19.38
20112,-8.99,1.45,-3.78,-0.98,-0.46,0.17,-66.48,-4.06,-19.38
20123,-8.64,2.95,-3.18,-1.26,-0.47,0.30,-66.48,-4.06,-19.38
20134,-8.64,2.95,-3.18,-1.26,-0.47,0.30,-66.48,-4.06,-19.38
20145,-8.92,4.71,-3.02,-0.91,-0.20,0.34,-66.48,-4.06,-19.38
20156,-8.92,4.71,-3.02,-0.91,-0.20,0.34,-66.48,-4.06,-19.38
20167,-8.86,4.56,-3.40,-0.29,0.14,0.18,-66.48,-4.06,-19.38
20178,-8.86,3.88,-3.81,0.13,0.30,0.02,-66.48,-4.06,-19.38
20189,-8.86,3.88,-3.81,0.13,0.30,0.02,-66.48,-4.06,-19.38
20200,-7.88,4.59,-5.36,0.11,0.25,-0.07,-66.48,-4.06,-19.38
20211,-7.88,4.59,-5.36,0.11,0.25,-0.07,-66.48,-4.06,-19.38
20222,-8.53,3.26,-4.42,0.16,-0.01,-0.19,-69.50,-2.99,-20.18
20233,-8.53,3.26,-4.42,0.16,-0.01,-0.19,-69.50,-2.99,-20.18
20244,-8.85,2.81,-3.72,-0.04,-0.13,-0.09,-69.50,-2.99,-20.18
20255,-8.85,2.81,-3.72,-0.04,-0.13,-0.09,-69.50,-2.99,-20.18
20266,-9.45,3.01,-3.86,-0.23,-0.19,-0.04,-69.50,-2.99,-20.18
20277,-9.45,3.01,-3.86,-0.23,-0.19,-0.04,-69.50,-2.99,-20.18
20288,-9.20,3.06,-3.17,-0.50,-0.23,-0.06,-69.50,-2.99,-20.18
20299,-8.78,2.73,-3.13,-0.66,-0.16,-0.07,-69.50,-2.99,-20.18
20310,-8.78,2.73,-3.13,-0.66,-0.16,-0.07,-69.50,-2.99,-20.18
20321,-8.71,3.61,-3.34,-0.50,-0.02,0.04,-69.50,-2.99,-20.18
20332,-8.71,3.61,-3.34,-0.50,-0.02,0.04,-69.50,-2.99,-20.18
20343,-8.35,5.04,-4.16,-0.11,0.16,0.07,-69.50,-2.99,-20.18
20354,-8.35,5.04,-4.16,-0.11,0.16,0.07,-69.50,-2.99,-20.18
20365,-8.35,5.13,-3.83,0.37,0.21,-0.07,-67.64,-2.37,-19.54
20376,-8.35,5.13,-3.83,0.37,0.21,-0.07,-67.64,-2.37,-19.54
20387,-8.43,3.90,-4.10,1.03,0.27,-0.17,-67.64,-2.37,-19.54
20398,-8.90,3.68,-4.19,1.31,0.19,-0.11,-67.64,-2.37,-19.54
20409,-8.90,3.68,-4.19,1.31,0.19,-0.11,-67.64,-2.37,-19.54
20420,-9.30,2.83,-3.92,0.95,-0.02,-0.10,-67.64,-2.37,-19.54
20431,-9.30,2.83,-3.92,0.95,-0.02,-0.10,-67.64,-2.37,-19.54
20442,-9.09,1.13,-4.07,0.36,-0.18,-0.06,-67.64,-2.37,-19.54
20453,-9.09,1.13,-4.07,0.36,-0.18,-0.06,-67.64,-2.37,-19.54
20464,-9.22,1.84,-3.77,-0.50,-0.37,0.18,-67.64,-2.37,-19.54
20475,-9.22,1.84,-3.77,-0.50,-0.37,0.18,-67.64,-2.37,-19.54
20486,-9.40,3.68,-3.51,-0.93,-0.47,0.29,-69.04,-2.07,-18.59
20498,-9.40,3.68,-3.51,-0.93,-0.47,0.29,-69.04,-2.07,-18.59
20508,-9.72,3.19,-2.44,-0.77,-0.39,0.15,-69.04,-2.07,-18.59
20519,-9.46,2.68,-2.07,-0.76,-0.12,0.08,-69.04,-2.07,-18.59
20530,-9.46,2.68,-2.07,-0.76,-0.12,0.08,-69.04,-2.07,-18.59
20541,-8.18,3.29,-3.31,-0.76,0.28,0.12,-69.04,-2.07,-18.59
20552,-8.18,3.29,-3.31,-0.76,0.28,0.12,-69.04,-2.07,-18.59
20563,-7.56,6.08,-5.42,-0.56,0.36,0.05,-69.04,-2.07,-18.59
20574,-7.56,6.08,-5.42,-0.56,0.36,0.05,-69.04,-2.07,-18.59
20585,-8.66,5.70,-4.41,-0.04,0.17,-0.30,-69.04,-2.07,-18.59
20596,-8.66,5.70,-4.41,-0.04,0.17,-0.30,-69.04,-2.07,-18.59
20607,-9.14,3.51,-4.14,0.35,0.10,-0.40,-67.41,-2.83,-18.75
20618,-8.72,2.55,-3.06,0.58,0.00,-0.18,-67.41,-2.83,-18.75
20629,-8.72,2.55,-3.06,0.58,0.00,-0.18,-67.41,-2.83,-18.75
20640,-8.89,3.87,-4.07,0.53,0.02,0.13,-67.41,-2.83,-18.75
20651,-8.89,3.87,-4.07,0.53,0.02,0.13,-67.41,-2.83,-18.75
20662,-9.23,3.47,-3.46,0.34,-0.16,0.15,-67.41,-2.83,-18.75
20673,-9.23,3.47,-3.46,0.34,-0.16,0.15,-67.41,-2.83,-18.75
20684,-9.27,2.61,-3.45,-0.09,-0.26,0.06,-67.41,-2.83,-18.75
20695,-9.27,2.61,-3.45,-0.09,-0.26,0.06,-67.41,-2.83,-18.75
20706,-9.46,2.31,-3.34,-0.51,-0.34,0.09,-67.41,-2.83,-18.75
20717,-9.46,2.31,-3.34,-0.51,-0.34,0.09,-67.41,-2.83,-18.75
20728,-9.84,3.70,-2.00,-0.79,-0.43,0.05,-68.34,-0.99,-18.43
20739,-10.46,2.68,-0.36,-0.47,-0.17,-0.20,-68.34,-0.99,-18.43
20750,-10.46,2.68,-0.36,-0.47,-0.17,-0.20,-68.34,-0.99,-18.43
20761,-11.07,0.33,-0.57,0.07,0.42,-0.18,-68.34,-0.99,-18.43
20772,-11.07,0.33,-0.57,0.07,0.42,-0.18,-68.34,-0.99,-18.43
20783,-8.40,2.21,-3.30,0.07,0.95,0.29,-68.34,-0.99,-18.43
20794,-8.40,2.21,-3.30,0.07,0.95,0.29,-68.34,-0.99,-18.43
20805,-6.68,5.53,-5.44,-0.14,0.81,0.34,-68.34,-0.99,-18.43
20816,-6.68,5.53,-5.44,-0.14,0.81,0.34,-68.34,-0.99,-18.43
20827,-5.88,6.81,-6.56,0.51,0.50,0.23,-68.34,-0.99,-18.43
20838,-7.57,5.58,-6.33,1.18,0.28,0.15,-68.34,-0.99,-18.43
20849,-7.57,5.58,-6.33,1.18,0.28,0.15,-68.34,-0.99,-18.43
20860,-7.51,5.27,-6.51,0.97,0.01,-0.00,-65.78,-2.07,-19.54
20871,-7.51,5.27,-6.51,0.97,0.01,-0.00,-65.78,-2.07,-19.54
20882,-8.21,2.94,-4.49,0.80,-0.31,-0.22,-65.78,-2.07,-19.54
20893,-8.21,2.94,-4.49,0.80,-0.31,-0.22,-65.78,-2.07,-19.54
20904,-11.40,0.87,-1.98,0.56,-0.45,-0.31,-65.78,-2.07,-19.54
20915,-11.40,0.87,-1.98,0.56,-0.45,-0.31,-65.78,-2.07,-19.54
20926,-9.73,1.17,-1.34,-0.03,-0.15,-0.05,-65.78,-2.07,-19.54
20937,-9.73,1.17,-1.34,-0.03,-0.15,-0.05,-65.78,-2.07,-19.54
20948,-8.78,4.78,-4.42,-0.35,0.13,0.13,-65.78,-2.07,-19.54
20959,-8.50,4.16,-4.75,-0.05,0.02,0.03,-65.78,-2.07,-19.54
20970,-8.50,4.16,-4.75,-0.05,0.02,0.03,-65.78,-2.07,-19.54
20981,-8.81,3.52,-4.72,0.06,-0.17,0.01,-67.41,-1.91,-19.07
20992,-8.81,3.52,-4.72,0.06,-0.17,0.01,-67.41,-1.91,-19.07
21003,-9.18,2.69,-3.12,-0.08,-0.28,-0.04,-67.41,-1.91,-19.07
21014,-9.18,2.69,-3.12,-0.08,-0.28,-0.04,-67.41,-1.91,-19.07
21025,-9.20,2.14,-3.44,-0.20,-0.14,-0.02,-67.41,-1.91,-19.07
21036,-9.20,2.14,-3.44,-0.20,-0.14,-0.02,-67.41,-1.91,-19.07
21047,-9.02,2.90,-3.19,-0.55,-0.03,-0.03,-67.41,-1.91,-19.07
21058,-9.02,2.90,-3.19,-0.55,-0.03,-0.03,-67.41,-1.91,-19.07
21069,-8.78,4.18,-3.91,-0.72,0.16,-0.08,-67.41,-1.91,-19.07
21080,-8.57,5.07,-3.71,-0.19,0.23,-0.18,-67.41,-1.91,-19.07
21091,-8.57,5.07,-3.71,-0.19,0.23,-0.18,-67.41,-1.91,-19.07
21102,-8.43,4.57,-4.31,0.54,0.29,-0.24,-68.11,-2.07,-19.86
21113,-8.43,4.57,-4.31,0.54,0.29,-0.24,-68.11,-2.07,-19.86
21124,-8.49,3.55,-3.48,0.78,0.15,-0.19,-68.11,-2.07,-19.86
21135,-8.49,3.55,-3.48,0.78,0.15,-0.19,-68.11,-2.07,-19.86
21146,-8.77,3.46,-4.78,0.84,0.11,-0.06,-68.11,-2.07,-19.86
21157,-8.77,3.46,-4.78,0.84,0.11,-0.06,-68.11,-2.07,-19.86
21169,-8.77,2.44,-4.26,0.70,-0.12,0.08,-68.11,-2.07,-19.86
21179,-9.18,1.57,-3.95,0.22,-0.30,0.19,-68.11,-2.07,-19.86
21190,-9.18,1.57,-3.95,0.22,-0.30,0.19,-68.11,-2.07,-19.86
21201,-9.21,1.37,-3.32,-0.44,-0.41,0.31,-68.11,-2.07,-19.86
21212,-9.21,1.37,-3.32,-0.44,-0.41,0.31,-68.11,-2.07,-19.86
21223,-9.38,2.97,-3.69,-0.92,-0.41,0.37,-68.11,-2.07,-19.86
21234,-9.38,2.97,-3.69,-0.92,-0.41,0.37,-68.11,-2.07,-19.86
21245,-8.94,3.01,-2.54,-1.04,-0.31,0.23,-69.27,-2.83,-19.70
21256,-8.94,3.01,-2.54,-1.04,-0.31,0.23,-69.27,-2.83,-19.70
21267,-8.78,6.31,-4.20,-1.16,0.03,0.13,-69.27,-2.83,-19.70
21278,-8.78,6.31,-4.20,-1.16,0.03,0.13,-69.27,-2.83,-19.70
21289,-8.64,5.22,-3.07,-0.23,0.25,-0.16,-69.27,-2.83,-19.70
21300,-8.47,4.41,-3.97,0.55,0.37,-0.34,-69.27,-2.83,-19.70
21311,-8.47,4.41,-3.97,0.55,0.37,-0.34,-69.27,-2.83,-19.70
21322,-8.67,3.88,-3.82,0.89,0.27,-0.29,-69.27,-2.83,-19.70
21333,-8.67,3.88,-3.82,0.89,0.27,-0.29,-69.27,-2.83,-19.70
21344,-8.40,3.53,-3.94,0.82,0.12,-0.20,-69.27,-2.83,-19.70
21355,-8.40,3.53,-3.94,0.82,0.12,-0.20,-69.27,-2.83,-19.70
21366,-8.68,1.93,-4.78,0.80,-0.06,0.02,-68.80,-2.83,-19.38
21377,-8.68,1.93,-4.78,0.80,-0.06,0.02,-68.80,-2.83,-19.38
21388,-9.35,2.58,-3.92,0.34,-0.35,0.29,-68.80,-2.83,-19.38
21399,-9.38,3.00,-2.66,-0.08,-0.39,0.27,-68.80,-2.83,-19.38
21410,-9.38,3.00,-2.66,-0.08,-0.39,0.27,-68.80,-2.83,-19.38
21421,-9.28,2.65,-3.74,-0.36,-0.21,0.05,-68.80,-2.83,-19.38
21432,-9.28,2.65,-3.74,-0.36,-0.21,0.05,-68.80,-2.83,-19.38
21443,-9.24,4.10,-2.72,-0.54,-0.15,-0.10,-68.80,-2.83,-19.38
21454,-9.24,4.10,-2.72,-0.54,-0.15,-0.10,-68.80,-2.83,-19.38
21465,-9.40,4.90,-3.22,-0.22,0.10,-0.33,-68.80,-2.83,-19.38
21476,-9.40,4.90,-3.22,-0.22,0.10,-0.33,-68.80,-2.83,-19.38
21487,-8.48,2.90,-3.79,0.36,0.26,-0.62,-68.57,-1.76,-18.59
21498,-8.48,2.90,-3.79,0.36,0.26,-0.62,-68.57,-1.76,-18.59
21509,-8.12,3.00,-4.74,0.24,0.16,-0.41,-68.57,-1.76,-18.59
21520,-8.73,4.35,-4.39,0.08,-0.05,-0.15,-68.57,-1.76,-18.59
21531,-8.73,4.35,-4.39,0.08,-0.05,-0.15,-68.57,-1.76,-18.59
21542,-8.33,0.10,-4.08,0.07,-0.16,-0.02,-68.57,-1.76,-18.59
21553,-8.33,0.10,-4.08,0.07,-0.16,-0.02,-68.57,-1.76,-18.59
21564,-8.55,2.21,-3.31,-0.72,-0.36,0.58,-68.57,-1.76,-18.59
21575,-8.55,2.21,-3.31,-0.72,-0.36,0.58,-68.57,-1.76,-18.59
21586,-9.75,4.84,-2.20,-1.05,-0.33,0.68,-68.57,-1.76,-18.59
21597,-9.75,4.84,-2.20,-1.05,-0.33,0.68,-68.57,-1.76,-18.59
21608,-9.08,3.31,-3.60,-0.79,0.03,0.21,-68.57,-1.76,-18.59
21619,-9.68,3.97,-2.88,-0.76,0.14,0.04,-67.64,-2.07,-17.64
21630,-9.68,3.97,-2.88,-0.76,0.14,0.04,-67.64,-2.07,-17.64
21641,-9.16,3.95,-2.63,-0.58,0.35,-0.25,-67.64,-2.07,-17.64
21652,-9.16,3.95,-2.63,-0.58,0.35,-0.25,-67.64,-2.07,-17.64
21663,-8.57,5.05,-4.42,0.06,0.47,-0.42,-67.64,-2.07,-17.64
21674,-8.57,5.05,-4.42,0.06,0.47,-0.42,-67.64,-2.07,-17.64
21685,-7.99,3.44,-4.36,0.64,0.25,-0.44,-67.64,-2.07,-17.64
21696,-7.99,3.44,-4.36,0.64,0.25,-0.44,-67.64,-2.07,-17.64
21707,-8.66,2.95,-3.82,0.68,0.02,-0.20,-67.64,-2.07,-17.64
21718,-8.66,2.95,-3.82,0.68,0.02,-0.20,-67.64,-2.07,-17.64
21729,-8.67,1.04,-4.34,0.30,-0.18,0.14,-67.64,-2.07,-17.64
21740,-9.09,2.94,-2.90,-0.38,-0.44,0.56,-68.57,-1.76,-19.86
21752,-9.09,2.94,-2.90,-0.38,-0.44,0.56,-68.57,-1.76,-19.86
21762,-9.57,3.95,-2.04,-0.55,-0.38,0.50,-68.57,-1.76,-19.86
21773,-9.57,3.95,-2.04,-0.55,-0.38,0.50,-68.57,-1.76,-19.86
21784,-8.92,4.45,-2.91,-0.57,-0.05,0.14,-68.57,-1.76,-19.86
21795,-8.92,4.45,-2.91,-0.57,-0.05,0.14,-68.57,-1.76,-19.86
21806,-8.60,5.02,-3.83,-0.27,0.22,-0.14,-68.57,-1.76,-19.86
21817,-8.60,5.02,-3.83,-0.27,0.22,-0.14,-68.57,-1.76,-19.86
21828,-8.46,4.16,-4.49,0.29,0.27,-0.27,-68.57,-1.76,-19.86
21839,-9.09,2.87,-3.41,0.35,0.04,-0.21,-68.57,-1.76,-19.86
21850,-9.09,2.87,-3.41,0.35,0.04,-0.21,-68.57,-1.76,-19.86
21861,-9.15,2.96,-3.17,0.04,-0.08,-0.08,-68.80,-2.22,-18.43
21872,-9.15,2.96,-3.17,0.04,-0.08,-0.08,-68.80,-2.22,-18.43
21883,-9.19,2.13,-3.49,-0.34,-0.15,-0.04,-68.80,-2.22,-18.43
21894,-9.19,2.13,-3.49,-0.34,-0.15,-0.04,-68.80,-2.22,-18.43
21905,-9.22,2.33,-2.78,-0.81,-0.19,0.05,-68.80,-2.22,-18.43
21916,-9.22,2.33,-2.78,-0.81,-0.19,0.05,-68.80,-2.22,-18.43
21927,-9.02,4.10,-2.69,-0.89,-0.07,0.14,-68.80,-2.22,-18.43
21938,-9.02,4.10,-2.69,-0.89,-0.07,0.14,-68.80,-2.22,-18.43
21949,-8.75,5.48,-3.35,-0.31,0.17,0.05,-68.80,-2.22,-18.43
21960,-8.28,5.36,-4.45,0.39,0.28,-0.11,-68.80,-2.22,-18.43
21971,-8.28,5.36,-4.45,0.39,0.28,-0.11,-68.80,-2.22,-18.43
21982,-8.26,4.40,-4.29,0.85,0.15,-0.16,-67.41,-1.61,-18.43
21993,-8.26,4.40,-4.29,0.85,0.15,-0.16,-67.41,-1.61,-18.43
22005,-8.89,2.80,-3.59,1.04,-0.02,-0.02,-67.41,-1.61,-18.43
22015,-8.89,2.80,-3.59,1.04,-0.02,-0.02,-67.41,-1.61,-18.43
22031,-9.35,3.04,-2.99,0.61,-0.18,0.07,-67.41,-1.61,-18.43
22037,-9.35,3.04,-2.99,0.61,-0.18,0.07,-67.41,-1.61,-18.43
22048,-9.52,2.33,-2.81,0.01,-0.23,0.03,-67.41,-1.61,-18.43
22059,-9.52,2.33,-2.81,0.01,-0.23,0.03,-67.41,-1.61,-18.43
22070,-9.27,2.23,-3.78,-0.66,-0.34,0.06,-67.41,-1.61,-18.43
22081,-9.73,2.88,-1.65,-1.20,-0.62,0.10,-67.41,-1.61,-18.43
22092,-9.73,2.88,-1.65,-1.20,-0.62,0.10,-67.41,-1.61,-18.43
22103,-10.01,3.00,0.04,-1.14,-0.46,0.04,-67.41,-1.61,-18.43
22114,-10.01,3.00,0.04,-1.14,-0.46,0.04,-67.41,-1.61,-18.43
22125,-10.93,0.88,0.41,-0.39,0.24,0.01,-67.87,-0.07,-15.89
22136,-10.93,0.88,0.41,-0.39,0.24,0.01,-67.87,-0.07,-15.89
22147,-10.09,1.68,-2.01,0.29,1.11,0.35,-67.87,-0.07,-15.89
22158,-10.09,1.68,-2.01,0.29,1.11,0.35,-67.87,-0.07,-15.89
22169,-7.49,4.09,-4.37,0.57,1.29,0.48,-67.87,-0.07,-15.89
22180,-6.70,7.26,-5.02,1.22,1.21,0.35,-67.87,-0.07,-15.89
22191,-6.70,7.26,-5.02,1.22,1.21,0.35,-67.87,-0.07,-15.89
22202,-6.18,8.84,-7.59,1.94,1.13,0.11,-67.87,-0.07,-15.89
22213,-6.18,8.84,-7.59,1.94,1.13,0.11,-67.87,-0.07,-15.89
22224,-6.40,6.26,-6.99,2.17,0.62,-0.19,-67.87,-0.07,-15.89
22235,-6.40,6.26,-6.99,2.17,0.62,-0.19,-67.87,-0.07,-15.89
22246,-6.63,4.43,-6.74,2.02,0.21,-0.29,-66.48,-2.22,-21.61
22257,-6.63,4.43,-6.74,2.02,0.21,-0.29,-66.48,-2.22,-21.61
22268,-8.33,2.06,-6.42,1.55,-0.28,-0.50,-66.48,-2.22,-21.61
22279,-8.33,2.06,-6.42,1.55,-0.28,-0.50,-66.48,-2.22,-21.61
22290,-11.32,-0.87,-2.57,0.56,-0.81,-0.59,-66.48,-2.22,-21.61
22301,-10.31,-0.87,-0.87,-0.47,-0.59,-0.22,-66.48,-2.22,-21.61
22312,-10.31,-0.87,-0.87,-0.47,-0.59,-0.22,-66.48,-2.22,-21.61
22323,-9.54,2.44,-3.50,-1.02,-0.10,0.38,-66.48,-2.22,-21.61
22334,-9.54,2.44,-3.50,-1.02,-0.10,0.38,-66.48,-2.22,-21.61
22345,-8.18,4.18,-5.10,-1.18,-0.11,0.31,-66.48,-2.22,-21.61
22356,-8.18,4.18,-5.10,-1.18,-0.11,0.31,-66.48,-2.22,-21.61
22367,-8.50,4.42,-4.49,-1.01,-0.36,0.13,-65.55,-2.22,-20.34
22378,-8.50,4.42,-4.49,-1.01,-0.36,0.13,-65.55,-2.22,-20.34
22389,-8.60,4.74,-3.09,-0.85,-0.39,-0.06,-65.55,-2.22,-20.34
22400,-9.34,3.05,-2.89,-0.41,-0.08,-0.32,-65.55,-2.22,-20.34
22411,-9.34,3.05,-2.89,-0.41,-0.08,-0.32,-65.55,-2.22,-20.34
22422,-8.45,3.72,-3.96,-0.16,0.17,-0.26,-65.55,-2.22,-20.34
22433,-8.45,3.72,-3.96,-0.16,0.17,-0.26,-65.55,-2.22,-20.34
22444,-8.43,4.45,-3.84,0.30,0.22,-0.20,-65.55,-2.22,-20.34
22455,-8.43,4.45,-3.84,0.30,0.22,-0.20,-65.55,-2.22,-20.34
22466,-8.29,3.87,-4.84,1.05,0.29,-0.20,-65.55,-2.22,-20.34
22477,-8.29,3.87,-4.84,1.05,0.29,-0.20,-65.55,-2.22,-20.34
22488,-8.72,3.17,-4.07,1.49,0.16,-0.08,-65.55,-2.22,-20.34
22499,-8.72,3.17,-4.07,1.49,0.16,-0.08,-65.55,-2.22,-20.34
22510,-9.61,2.54,-4.24,1.39,-0.03,0.02,-67.64,-4.83,-20.18
22521,-9.48,0.42,-3.75,0.85,-0.23,-0.01,-67.64,-4.83,-20.18
22532,-9.48,0.42,-3.75,0.85,-0.23,-0.01,-67.64,-4.83,-20.18
22543,-9.57,-1.04,-4.15,-0.40,-0.36,0.10,-67.64,-4.83,-20.18
22554,-9.57,-1.04,-4.15,-0.40,-0.36,0.10,-67.64,-4.83,-20.18
22566,-8.79,0.42,-3.10,-1.52,-0.55,0.37,-67.64,-4.83,-20.18
22576,-8.79,0.42,-3.10,-1.52,-0.55,0.37,-67.64,-4.83,-20.18
22587,-8.50,6.40,-3.76,-1.88,-0.38,0.55,-67.64,-4.83,-20.18
22598,-8.50,6.40,-3.76,-1.88,-0.38,0.55,-67.64,-4.83,-20.18
22609,-8.69,7.35,-3.75,-0.82,0.03,0.19,-67.64,-4.83,-20.18
22620,-8.43,4.68,-3.77,0.41,0.22,-0.22,-68.34,-1.91,-19.70
22631,-8.43,4.68,-3.77,0.41,0.22,-0.22,-68.34,-1.91,-19.70
22642,-9.15,2.77,-3.65,1.01,0.20,-0.21,-68.34,-1.91,-19.70
22653,-9.15,2.77,-3.65,1.01,0.20,-0.21,-68.34,-1.91,-19.70
22664,-9.05,2.69,-4.18,0.75,0.07,-0.06,-68.34,-1.91,-19.70
22675,-9.05,2.69,-4.18,0.75,0.07,-0.06,-68.34,-1.91,-19.70
22686,-9.15,2.55,-4.67,0.28,-0.14,-0.01,-68.34,-1.91,-19.70
22697,-9.15,2.55,-4.67,0.28,-0.14,-0.01,-68.34,-1.91,-19.70
22708,-8.81,1.67,-3.45,-0.22,-0.45,0.11,-68.34,-1.91,-19.70
22719,-8.81,1.67,-3.45,-0.22,-0.45,0.11,-68.34,-1.91,-19.70
