time,ax,ay,az,gx,gy,gz,mx,my,mz
401,-0.64,6.50,-7.89,0.01,0.00,0.00,-49.44,17.36,-23.25
411,-0.64,6.50,-7.89,0.01,0.00,0.00,-49.44,17.36,-23.25
422,-0.48,6.36,-8.12,0.01,0.00,0.01,-49.44,17.36,-23.25
433,-0.48,6.36,-8.12,0.01,0.00,0.01,-49.44,17.36,-23.25
445,-0.62,6.51,-7.94,-0.03,-0.00,-0.02,-49.44,17.36,-23.25
455,-0.62,6.51,-7.94,-0.03,-0.00,-0.02,-49.44,17.36,-23.25
466,-0.59,6.34,-8.08,0.14,0.07,0.06,-48.03,17.66,-22.60
477,-0.59,6.34,-8.08,0.14,0.07,0.06,-48.03,17.66,-22.60
488,-0.27,6.25,-8.26,0.19,0.13,0.11,-48.03,17.66,-22.60
499,-0.57,6.45,-7.98,-0.12,-0.10,-0.05,-48.03,17.66,-22.60
510,-0.57,6.45,-7.98,-0.12,-0.10,-0.05,-48.03,17.66,-22.60
521,-0.52,6.36,-8.06,0.02,-0.00,0.02,-48.03,17.66,-22.60
532,-0.52,6.36,-8.06,0.02,-0.00,0.02,-48.03,17.66,-22.60
543,-0.40,6.34,-8.11,0.07,0.04,0.05,-48.03,17.66,-22.60
554,-0.40,6.34,-8.11,0.07,0.04,0.05,-48.03,17.66,-22.60
656,-0.48,6.37,-8.06,0.02,0.00,0.02,-49.21,17.51,-21.78
666,-0.51,6.39,-8.07,-0.01,-0.02,0.01,-49.21,17.51,-21.78
677,-0.51,6.39,-8.07,-0.01,-0.02,0.01,-49.21,17.51,-21.78
688,-0.46,6.35,-8.10,0.01,0.00,0.02,-49.21,17.51,-21.78
699,-0.47,6.37,-8.08,-0.00,-0.01,0.01,-47.09,16.46,-22.27
710,-0.47,6.37,-8.08,-0.00,-0.01,0.01,-47.09,16.46,-22.27
721,-0.49,6.39,-8.08,0.00,-0.01,0.01,-47.09,16.46,-22.27
732,-0.49,6.39,-8.08,0.00,-0.01,0.01,-47.09,16.46,-22.27
743,-0.51,6.40,-8.06,0.00,-0.01,0.01,-47.09,16.46,-22.27
754,-0.51,6.40,-8.06,0.00,-0.01,0.01,-47.09,16.46,-22.27
765,-0.47,6.39,-8.06,0.00,-0.01,0.01,-47.09,16.46,-22.27
776,-0.47,6.39,-8.06,0.00,-0.01,0.01,-47.09,16.46,-22.27
787,-0.48,6.38,-8.07,0.00,-0.01,0.01,-47.09,16.46,-22.27
798,-0.48,6.38,-8.07,0.00,-0.01,0.01,-47.09,16.46,-22.27
809,-0.49,6.38,-8.06,-0.00,-0.01,0.01,-47.09,16.46,-22.27
820,-0.50,6.39,-8.07,0.00,-0.01,0.01,-47.09,16.46,-22.27
831,-0.50,6.39,-8.07,0.00,-0.01,0.01,-47.09,16.46,-22.27
842,-0.48,6.38,-8.10,0.00,-0.01,0.01,-49.21,16.02,-22.76
945,-0.47,6.39,-8.04,-0.00,-0.01,0.01,-49.21,16.02,-22.76
955,-0.47,6.39,-8.04,-0.00,-0.01,0.01,-49.21,16.02,-22.76
966,-0.47,6.36,-8.07,0.00,-0.01,0.01,-48.97,16.46,-22.93
977,-0.47,6.36,-8.07,0.00,-0.01,0.01,-48.97,16.46,-22.93
988,-0.46,6.35,-8.11,0.00,-0.01,0.01,-48.97,16.46,-22.93
999,-0.50,6.37,-8.05,-0.00,-0.01,0.01,-48.97,16.46,-22.93
1010,-0.50,6.37,-8.05,-0.00,-0.01,0.01,-48.97,16.46,-22.93
1021,-0.50,6.40,-8.04,-0.00,-0.01,0.01,-48.97,16.46,-22.93
1032,-0.50,6.40,-8.04,-0.00,-0.01,0.01,-48.97,16.46,-22.93
1043,-0.48,6.40,-8.04,0.00,-0.01,0.01,-48.97,16.46,-22.93
1054,-0.48,6.40,-8.04,0.00,-0.01,0.01,-48.97,16.46,-22.93
1065,-0.45,6.36,-8.08,0.00,-0.01,0.01,-48.97,16.46,-22.93
1076,-0.45,6.36,-8.08,0.00,-0.01,0.01,-48.97,16.46,-22.93
1176,-0.47,6.35,-8.11,0.00,-0.01,0.01,-50.15,17.21,-23.09
1186,-0.46,6.34,-8.08,0.00,-0.01,0.01,-50.15,17.21,-23.09
1197,-0.46,6.34,-8.08,0.00,-0.01,0.01,-50.15,17.21,-23.09
1208,-0.48,6.36,-8.07,-0.00,-0.01,0.01,-50.15,17.21,-23.09
1219,-0.49,6.40,-8.05,-0.00,-0.01,0.01,-48.27,16.32,-21.78
1230,-0.49,6.40,-8.05,-0.00,-0.01,0.01,-48.27,16.32,-21.78
1241,-0.47,6.38,-8.08,0.00,-0.01,0.01,-48.27,16.32,-21.78
1252,-0.47,6.38,-8.08,0.00,-0.01,0.01,-48.27,16.32,-21.78
1263,-0.47,6.37,-8.09,0.00,-0.01,0.01,-48.27,16.32,-21.78
1274,-0.47,6.37,-8.09,0.00,-0.01,0.01,-48.27,16.32,-21.78
1285,-0.47,6.37,-8.09,0.00,-0.01,0.01,-48.27,16.32,-21.78
1296,-0.47,6.37,-8.09,0.00,-0.01,0.01,-48.27,16.32,-21.78
1307,-0.50,6.35,-8.06,-0.00,-0.01,0.01,-48.27,16.32,-21.78
1318,-0.50,6.35,-8.06,-0.00,-0.01,0.01,-48.27,16.32,-21.78
1329,-0.47,6.39,-8.05,0.00,-0.01,0.01,-48.27,16.32,-21.78
1340,-0.46,6.39,-8.11,0.00,-0.01,0.01,-49.44,16.76,-22.60
1351,-0.46,6.39,-8.11,0.00,-0.01,0.01,-49.44,16.76,-22.60
1451,-0.47,6.38,-8.07,0.00,-0.01,0.01,-49.44,16.76,-22.60
1461,-0.47,6.35,-8.09,0.00,-0.01,0.01,-49.21,16.32,-23.09
1472,-0.47,6.35,-8.09,0.00,-0.01,0.01,-49.21,16.32,-23.09
1483,-0.48,6.37,-8.09,0.00,-0.01,0.01,-49.21,16.32,-23.09
1494,-0.48,6.37,-8.09,0.00,-0.01,0.01,-49.21,16.32,-23.09
1505,-0.48,6.37,-8.10,-0.00,-0.01,0.01,-49.21,16.32,-23.09
1516,-0.48,6.37,-8.10,-0.00,-0.01,0.01,-49.21,16.32,-23.09
1527,-0.48,6.38,-8.06,-0.00,-0.01,0.01,-49.21,16.32,-23.09
1538,-0.48,6.38,-8.06,-0.00,-0.01,0.01,-49.21,16.32,-23.09
1549,-0.46,6.40,-8.07,0.00,-0.01,0.01,-49.21,16.32,-23.09
1560,-0.48,6.37,-8.08,-0.00,-0.01,0.01,-49.21,16.32,-23.09
1571,-0.48,6.37,-8.08,-0.00,-0.01,0.01,-49.21,16.32,-23.09
1582,-0.49,6.36,-8.10,0.00,-0.01,0.01,-49.21,16.32,-23.09
1684,-0.48,6.35,-8.09,-0.00,-0.01,0.01,-47.56,16.17,-23.25
1694,-0.48,6.35,-8.09,-0.00,-0.01,0.01,-47.56,16.17,-23.25
1705,-0.47,6.37,-8.05,0.00,-0.01,0.01,-47.56,16.17,-23.25
1716,-0.47,6.37,-8.05,0.00,-0.01,0.01,-47.56,16.17,-23.25
1727,-0.47,6.38,-8.08,-0.00,-0.01,0.01,-49.68,16.91,-21.46
1738,-0.47,6.38,-8.08,-0.00,-0.01,0.01,-49.68,16.91,-21.46
1749,-0.47,6.40,-8.07,0.00,-0.01,0.01,-49.68,16.91,-21.46
1760,-0.48,6.37,-8.11,0.00,-0.01,0.01,-49.68,16.91,-21.46
1771,-0.48,6.37,-8.11,0.00,-0.01,0.01,-49.68,16.91,-21.46
1782,-0.48,6.37,-8.07,0.00,-0.01,0.01,-49.68,16.91,-21.46
1793,-0.48,6.37,-8.07,0.00,-0.01,0.01,-49.68,16.91,-21.46
1804,-0.47,6.38,-8.07,-0.00,-0.01,0.01,-49.68,16.91,-21.46
1815,-0.47,6.38,-8.07,-0.00,-0.01,0.01,-49.68,16.91,-21.46
1826,-0.44,6.38,-8.09,-0.00,-0.01,0.01,-49.68,16.91,-21.46
1837,-0.44,6.38,-8.09,-0.00,-0.01,0.01,-49.68,16.91,-21.46
1848,-0.47,6.38,-8.08,0.00,-0.01,0.01,-48.03,16.76,-22.27
1859,-0.47,6.38,-8.08,0.00,-0.01,0.01,-48.03,16.76,-22.27
1960,-0.47,6.36,-8.07,-0.00,-0.01,0.01,-49.91,16.17,-22.27
1971,-0.47,6.36,-8.07,-0.00,-0.01,0.01,-49.91,16.17,-22.27
1982,-0.49,6.36,-8.08,-0.00,-0.01,0.01,-49.91,16.17,-22.27
1993,-0.49,6.36,-8.08,-0.00,-0.01,0.01,-49.91,16.17,-22.27
2004,-0.46,6.38,-8.08,-0.00,-0.01,0.01,-49.91,16.17,-22.27
2015,-0.46,6.38,-8.08,-0.00,-0.01,0.01,-49.91,16.17,-22.27
2026,-0.46,6.38,-8.08,-0.00,-0.01,0.01,-49.91,16.17,-22.27
2037,-0.46,6.38,-8.08,-0.00,-0.01,0.01,-49.91,16.17,-22.27
2048,-0.47,6.38,-8.09,0.00,-0.01,0.01,-49.91,16.17,-22.27
2059,-0.47,6.38,-8.09,0.00,-0.01,0.01,-49.91,16.17,-22.27
2070,-0.47,6.38,-8.09,-0.00,-0.01,0.01,-49.91,16.17,-22.27
2081,-0.46,6.36,-8.09,-0.00,-0.01,0.01,-49.91,16.17,-22.27
2092,-0.46,6.36,-8.09,-0.00,-0.01,0.01,-49.91,16.17,-22.27
2193,-0.49,6.36,-8.09,-0.00,-0.01,0.01,-49.91,16.17,-22.60
2203,-0.48,6.38,-8.08,-0.00,-0.01,0.01,-49.91,16.17,-22.60
2214,-0.48,6.38,-8.08,-0.00,-0.01,0.01,-49.91,16.17,-22.60
2225,-0.46,6.38,-8.08,0.00,-0.01,0.01,-48.97,17.36,-21.95
2236,-0.46,6.38,-8.08,0.00,-0.01,0.01,-48.97,17.36,-21.95
2247,-0.47,6.37,-8.10,0.00,-0.01,0.01,-48.97,17.36,-21.95
2258,-0.47,6.37,-8.10,0.00,-0.01,0.01,-48.97,17.36,-21.95
2269,-0.48,6.37,-8.10,0.00,-0.01,0.01,-48.97,17.36,-21.95
2280,-0.48,6.37,-8.07,-0.00,-0.01,0.01,-48.97,17.36,-21.95
2291,-0.48,6.37,-8.07,-0.00,-0.01,0.01,-48.97,17.36,-21.95
2302,-0.48,6.39,-8.06,0.00,-0.01,0.01,-48.97,17.36,-21.95
2313,-0.48,6.39,-8.06,0.00,-0.01,0.01,-48.97,17.36,-21.95
2324,-0.47,6.38,-8.08,-0.00,-0.01,0.01,-48.97,17.36,-21.95
2335,-0.47,6.38,-8.08,-0.00,-0.01,0.01,-48.97,17.36,-21.95
2346,-0.47,6.36,-8.07,0.00,-0.01,0.01,-49.68,16.61,-22.11
2357,-0.47,6.36,-8.07,0.00,-0.01,0.01,-49.68,16.61,-22.11
2368,-0.48,6.34,-8.10,0.00,-0.01,0.01,-49.68,16.61,-22.11
2482,-0.48,6.34,-8.10,0.00,-0.01,0.01,-49.68,16.61,-22.11
2483,-0.48,6.36,-8.10,0.00,-0.01,0.01,-49.21,16.61,-21.46
2494,-0.48,6.36,-8.10,0.00,-0.01,0.01,-49.21,16.61,-21.46
2505,-0.46,6.36,-8.08,-0.00,-0.01,0.01,-49.21,16.61,-21.46
2516,-0.46,6.36,-8.08,-0.00,-0.01,0.01,-49.21,16.61,-21.46
2527,-0.46,6.37,-8.07,-0.00,-0.01,0.01,-49.21,16.61,-21.46
2538,-0.46,6.37,-8.07,-0.00,-0.01,0.01,-49.21,16.61,-21.46
2549,-0.48,6.36,-8.10,-0.00,-0.01,0.01,-49.21,16.61,-21.46
2560,-0.49,6.38,-8.08,-0.00,-0.01,0.01,-49.21,16.61,-21.46
2571,-0.49,6.38,-8.08,-0.00,-0.01,0.01,-49.21,16.61,-21.46
2582,-0.47,6.38,-8.07,-0.00,-0.01,0.01,-49.21,16.61,-21.46
2593,-0.47,6.38,-8.07,-0.00,-0.01,0.01,-49.21,16.61,-21.46
2604,-0.48,6.38,-8.08,0.00,-0.01,0.01,-48.27,15.72,-22.11
2743,-0.48,6.36,-8.07,0.00,-0.01,0.01,-48.74,16.32,-22.44
2753,-0.48,6.36,-8.07,0.00,-0.01,0.01,-48.74,16.32,-22.44
2764,-0.47,6.36,-8.06,0.00,-0.01,0.01,-48.74,16.32,-22.44
2775,-0.47,6.36,-8.06,0.00,-0.01,0.01,-48.74,16.32,-22.44
2786,-0.47,6.36,-8.09,0.00,-0.01,0.01,-48.74,16.32,-22.44
2797,-0.47,6.36,-8.09,0.00,-0.01,0.01,-48.74,16.32,-22.44
2808,-0.48,6.38,-8.08,0.00,-0.01,0.01,-48.74,16.32,-22.44
2819,-0.48,6.38,-8.08,0.00,-0.01,0.01,-48.74,16.32,-22.44
2830,-0.48,6.38,-8.07,-0.00,-0.01,0.01,-48.74,16.32,-22.44
2841,-0.49,6.37,-8.10,-0.00,-0.01,0.01,-48.74,16.32,-22.44
2852,-0.49,6.37,-8.10,-0.00,-0.01,0.01,-48.74,16.32,-22.44
2863,-0.47,6.36,-8.10,-0.00,-0.01,0.01,-47.56,16.76,-22.93
2874,-0.47,6.36,-8.10,-0.00,-0.01,0.01,-47.56,16.76,-22.93
2885,-0.46,6.35,-8.06,-0.00,-0.01,0.01,-47.56,16.76,-22.93
2896,-0.46,6.35,-8.06,-0.00,-0.01,0.01,-47.56,16.76,-22.93
2907,-0.48,6.37,-8.09,-0.00,-0.01,0.01,-47.56,16.76,-22.93
2918,-0.48,6.37,-8.09,-0.00,-0.01,0.01,-47.56,16.76,-22.93
2929,-0.47,6.37,-8.08,-0.00,-0.01,0.01,-47.56,16.76,-22.93
3032,-0.46,6.38,-8.10,0.00,-0.01,0.01,-46.38,16.91,-22.44
3042,-0.48,6.36,-8.10,-0.00,-0.01,0.01,-46.38,16.91,-22.44
3053,-0.48,6.36,-8.10,-0.00,-0.01,0.01,-46.38,16.91,-22.44
3064,-0.48,6.37,-8.06,-0.00,-0.01,0.01,-46.38,16.91,-22.44
3075,-0.48,6.37,-8.06,-0.00,-0.01,0.01,-46.38,16.91,-22.44
3086,-0.47,6.37,-8.06,-0.00,-0.01,0.01,-46.38,16.91,-22.44
3097,-0.47,6.37,-8.06,-0.00,-0.01,0.01,-46.38,16.91,-22.44
3108,-0.48,6.36,-8.09,-0.00,-0.01,0.01,-48.03,16.46,-22.27
3119,-0.48,6.36,-8.09,-0.00,-0.01,0.01,-48.03,16.46,-22.27
3130,-0.48,6.37,-8.10,-0.00,-0.01,0.01,-48.03,16.46,-22.27
3141,-0.47,6.36,-8.07,-0.00,-0.01,0.01,-48.03,16.46,-22.27
3152,-0.47,6.36,-8.07,-0.00,-0.01,0.01,-48.03,16.46,-22.27
3253,-0.48,6.37,-8.10,0.00,-0.01,0.01,-48.03,16.76,-22.60
3264,-0.47,6.36,-8.06,-0.00,-0.01,0.01,-48.03,16.76,-22.60
3275,-0.47,6.36,-8.06,-0.00,-0.01,0.01,-48.03,16.76,-22.60
3286,-0.47,6.38,-8.07,-0.00,-0.01,0.01,-48.03,16.76,-22.60
3297,-0.47,6.38,-8.07,-0.00,-0.01,0.01,-48.03,16.76,-22.60
3308,-0.47,6.38,-8.09,-0.00,-0.01,0.01,-48.03,16.76,-22.60
3319,-0.47,6.38,-8.09,-0.00,-0.01,0.01,-48.03,16.76,-22.60
3330,-0.46,6.38,-8.09,-0.00,-0.01,0.01,-48.03,16.76,-22.60
3341,-0.47,6.36,-8.08,-0.00,-0.01,0.01,-48.03,16.76,-22.60
3352,-0.47,6.36,-8.08,-0.00,-0.01,0.01,-48.03,16.76,-22.60
3363,-0.47,6.36,-8.10,-0.00,-0.01,0.01,-47.80,17.21,-22.11
3374,-0.47,6.36,-8.10,-0.00,-0.01,0.01,-47.80,17.21,-22.11
3385,-0.47,6.38,-8.06,0.00,-0.01,0.01,-47.80,17.21,-22.11
3396,-0.47,6.38,-8.06,0.00,-0.01,0.01,-47.80,17.21,-22.11
3407,-0.46,6.37,-8.07,-0.00,-0.01,0.01,-47.80,17.21,-22.11
3418,-0.46,6.37,-8.07,-0.00,-0.01,0.01,-47.80,17.21,-22.11
3429,-0.46,6.35,-8.09,-0.00,-0.01,0.01,-47.80,17.21,-22.11
3541,-0.46,6.35,-8.09,-0.00,-0.01,0.01,-47.80,17.21,-22.11
3543,-0.47,6.36,-8.07,-0.00,-0.01,0.01,-49.21,16.32,-22.11
3553,-0.47,6.36,-8.07,-0.00,-0.01,0.01,-49.21,16.32,-22.11
3564,-0.46,6.35,-8.06,-0.00,-0.01,0.01,-49.21,16.32,-22.11
3575,-0.46,6.35,-8.06,-0.00,-0.01,0.01,-49.21,16.32,-22.11
3586,-0.47,6.36,-8.10,-0.00,-0.01,0.01,-49.21,16.32,-22.11
3597,-0.47,6.36,-8.10,-0.00,-0.01,0.01,-49.21,16.32,-22.11
3608,-0.46,6.38,-8.08,-0.00,-0.01,0.01,-46.62,15.87,-20.97
3619,-0.46,6.38,-8.08,-0.00,-0.01,0.01,-46.62,15.87,-20.97
3630,-0.48,6.37,-8.09,-0.00,-0.01,0.01,-46.62,15.87,-20.97
3641,-0.46,6.36,-8.06,0.00,-0.01,0.01,-46.62,15.87,-20.97
3652,-0.46,6.36,-8.06,0.00,-0.01,0.01,-46.62,15.87,-20.97
3663,-0.47,6.37,-8.10,0.00,-0.01,0.01,-46.62,15.87,-20.97
3764,-0.47,6.36,-8.09,-0.00,-0.01,0.01,-48.50,15.57,-23.25
3774,-0.47,6.36,-8.09,-0.00,-0.01,0.01,-48.50,15.57,-23.25
3785,-0.47,6.37,-8.07,-0.00,-0.01,0.01,-48.50,15.57,-23.25
3796,-0.47,6.37,-8.07,-0.00,-0.01,0.01,-48.50,15.57,-23.25
3807,-0.47,6.38,-8.08,-0.00,-0.01,0.01,-48.50,15.57,-23.25
3818,-0.47,6.38,-8.08,-0.00,-0.01,0.01,-48.50,15.57,-23.25
3829,-0.47,6.37,-8.09,-0.00,-0.01,0.01,-48.50,15.57,-23.25
3840,-0.47,6.37,-8.09,-0.00,-0.01,0.01,-48.50,15.57,-23.25
3851,-0.41,6.33,-8.10,-0.00,-0.01,0.01,-48.50,15.57,-23.25
3862,-0.53,6.16,-8.29,-0.53,-0.31,-0.15,-49.21,17.21,-24.07
3873,-0.53,6.16,-8.29,-0.53,-0.31,-0.15,-49.21,17.21,-24.07
3884,-1.37,6.81,-7.59,-1.37,-1.26,0.53,-49.21,17.21,-24.07
3895,-1.37,6.81,-7.59,-1.37,-1.26,0.53,-49.21,17.21,-24.07
3906,-0.65,6.74,-7.67,-0.03,-1.27,1.34,-49.21,17.21,-24.07
3917,-0.65,6.74,-7.67,-0.03,-1.27,1.34,-49.21,17.21,-24.07
3928,-0.79,7.90,-7.67,0.36,-0.51,0.73,-49.21,17.21,-24.07
3939,-0.79,7.90,-7.67,0.36,-0.51,0.73,-49.21,17.21,-24.07
4040,-0.78,-1.80,-9.50,4.68,1.09,-1.70,-47.80,10.36,-26.02
4051,-0.15,-3.67,-11.26,3.27,1.04,-0.73,-47.80,10.36,-26.02
4062,0.88,-0.89,-13.77,3.36,1.07,0.58,-47.80,10.36,-26.02
4073,0.88,-0.89,-13.77,3.36,1.07,0.58,-47.80,10.36,-26.02
4084,0.48,-0.48,-16.63,4.42,0.87,0.96,-47.80,10.36,-26.02
4095,0.48,-0.48,-16.63,4.42,0.87,0.96,-47.80,10.36,-26.02
4106,-1.09,-0.21,-20.03,4.89,0.07,0.47,-47.80,10.36,-26.02
4117,-1.09,-0.21,-20.03,4.89,0.07,0.47,-47.80,10.36,-26.02
4128,-0.17,0.43,-19.33,6.46,-1.36,0.05,-42.85,-10.02,-31.07
4139,-0.17,0.43,-19.33,6.46,-1.36,0.05,-42.85,-10.02,-31.07
4150,2.57,-0.57,-15.43,7.86,-3.09,0.12,-42.85,-10.02,-31.07
4161,2.57,-0.57,-15.43,7.86,-3.09,0.12,-42.85,-10.02,-31.07
4172,0.41,-4.08,-10.29,8.52,-4.47,0.66,-42.85,-10.02,-31.07
4277,-3.73,-7.12,1.26,3.09,-5.60,-1.46,-65.45,-27.28,-6.63
4287,-2.84,-12.04,1.84,3.39,-4.47,-1.12,-65.45,-27.28,-6.63
4298,-2.84,-12.04,1.84,3.39,-4.47,-1.12,-65.45,-27.28,-6.63
4309,-1.86,-8.11,0.53,2.55,-3.85,0.35,-65.45,-27.28,-6.63
4320,-1.86,-8.11,0.53,2.55,-3.85,0.35,-65.45,-27.28,-6.63
4331,-3.16,-6.46,-0.91,1.57,-3.50,0.83,-65.45,-27.28,-6.63
4342,-4.44,-6.70,-3.44,2.33,-3.26,0.80,-65.45,-27.28,-6.63
4353,-4.44,-6.70,-3.44,2.33,-3.26,0.80,-65.45,-27.28,-6.63
4364,-3.06,-5.29,-3.44,3.46,-3.97,1.19,-65.68,-28.03,19.92
4375,-3.06,-5.29,-3.44,3.46,-3.97,1.19,-65.68,-28.03,19.92
4386,-1.53,-5.39,-0.17,5.39,-4.70,1.71,-65.68,-28.03,19.92
4397,-1.53,-5.39,-0.17,5.39,-4.70,1.71,-65.68,-28.03,19.92
4408,-4.64,-4.21,2.97,6.55,-4.73,2.23,-65.68,-28.03,19.92
4546,-7.57,-2.93,8.60,-1.21,0.61,1.09,-56.74,-15.83,40.12
4557,-7.57,-2.93,8.60,-1.21,0.61,1.09,-56.74,-15.83,40.12
4568,-5.58,-4.28,4.39,-3.58,1.67,0.66,-56.74,-15.83,40.12
4579,-5.58,-4.28,4.39,-3.58,1.67,0.66,-56.74,-15.83,40.12
4590,-5.36,-6.54,3.79,-3.05,2.19,0.95,-56.74,-15.83,40.12
4601,-5.36,-6.54,3.79,-3.05,2.19,0.95,-56.74,-15.83,40.12
4612,-5.16,-4.22,-0.11,-3.93,1.97,1.47,-56.74,-15.83,40.12
4623,-7.22,-3.82,-1.62,-3.17,1.10,1.53,-63.57,-18.95,34.09
4634,-7.22,-3.82,-1.62,-3.17,1.10,1.53,-63.57,-18.95,34.09
4645,-8.26,-3.41,-0.72,-2.01,0.06,1.10,-63.57,-18.95,34.09
4656,-8.26,-3.41,-0.72,-2.01,0.06,1.10,-63.57,-18.95,34.09
4667,-8.34,-5.81,2.52,-0.58,-0.55,0.74,-63.57,-18.95,34.09
4678,-8.34,-5.81,2.52,-0.58,-0.55,0.74,-63.57,-18.95,34.09
4689,-9.65,-6.15,2.83,-0.17,-0.52,0.78,-63.57,-18.95,34.09
4700,-9.65,-6.15,2.83,-0.17,-0.52,0.78,-63.57,-18.95,34.09
4711,-7.19,-2.59,0.38,0.25,-0.27,0.98,-63.57,-18.95,34.09
4722,-7.88,-4.65,-1.80,1.73,-0.56,0.43,-63.57,-18.95,34.09
4820,-8.21,-1.10,10.13,4.42,-3.42,2.25,-62.15,-14.49,35.40
4831,-10.16,3.49,12.29,2.26,-2.14,1.39,-62.15,-14.49,35.40
4842,-10.16,3.49,12.29,2.26,-2.14,1.39,-62.15,-14.49,35.40
4853,-10.96,-0.21,11.31,4.31,-0.45,0.13,-62.15,-14.49,35.40
4864,-7.96,-0.93,7.26,4.74,0.04,0.28,-62.15,-14.49,35.40
4875,-7.96,-0.93,7.26,4.74,0.04,0.28,-62.15,-14.49,35.40
4886,-9.74,-1.04,6.76,3.01,-0.18,0.59,-48.03,6.05,40.28
4897,-9.74,-1.04,6.76,3.01,-0.18,0.59,-48.03,6.05,40.28
4908,-4.37,0.73,6.65,-2.03,-0.46,0.45,-48.03,6.05,40.28
4919,-4.37,0.73,6.65,-2.03,-0.46,0.45,-48.03,6.05,40.28
4930,-6.46,3.16,7.12,-3.09,-0.59,0.18,-48.03,6.05,40.28
4941,-6.46,3.16,7.12,-3.09,-0.59,0.18,-48.03,6.05,40.28
4952,-7.60,-1.98,13.35,2.21,0.19,-0.18,-48.03,6.05,40.28
5053,-7.99,-4.69,13.57,-6.19,1.39,-0.26,-52.97,7.09,40.45
5064,-7.41,-4.98,8.20,-13.11,1.53,0.49,-52.97,7.09,40.45
5075,-7.41,-4.98,8.20,-13.11,1.53,0.49,-52.97,7.09,40.45
5086,-4.90,-2.49,-3.09,-15.83,1.23,1.57,-52.97,7.09,40.45
5097,-4.90,-2.49,-3.09,-15.83,1.23,1.57,-52.97,7.09,40.45
5108,-5.07,-0.01,-4.99,-13.15,-0.85,2.26,-52.97,7.09,40.45
5119,-5.07,-0.01,-4.99,-13.15,-0.85,2.26,-52.97,7.09,40.45
5130,-8.19,-0.34,-0.13,-8.99,-2.76,1.67,-58.62,-26.24,31.32
5141,-8.19,-0.34,-0.13,-8.99,-2.76,1.67,-58.62,-26.24,31.32
5152,-8.58,-1.74,4.28,-7.75,-3.25,0.16,-58.62,-26.24,31.32
5163,-8.28,-3.94,4.94,-7.06,-2.52,-1.21,-58.62,-26.24,31.32
5174,-8.28,-3.94,4.94,-7.06,-2.52,-1.21,-58.62,-26.24,31.32
5185,-9.15,-14.91,7.22,-6.90,-0.83,-1.70,-58.62,-26.24,31.32
5196,-9.15,-14.91,7.22,-6.90,-0.83,-1.70,-58.62,-26.24,31.32
5207,-6.96,-14.47,2.84,-8.45,0.86,-0.09,-58.62,-26.24,31.32
5218,-6.96,-14.47,2.84,-8.45,0.86,-0.09,-58.62,-26.24,31.32
5229,-6.54,-2.38,-0.64,-8.34,1.00,1.85,-58.62,-26.24,31.32
5333,-7.53,-9.79,0.06,0.62,-0.16,-0.13,-56.74,-36.06,4.93
5343,-7.68,-7.36,-0.26,-2.71,0.03,0.59,-56.74,-36.06,4.93
5354,-7.68,-7.36,-0.26,-2.71,0.03,0.59,-56.74,-36.06,4.93
5365,-7.96,-3.27,-3.83,-4.12,0.42,1.04,-56.74,-36.06,4.93
5376,-7.96,-3.27,-3.83,-4.12,0.42,1.04,-56.74,-36.06,4.93
5387,-9.01,-1.74,-4.32,-3.36,0.43,0.76,-56.98,-34.43,-0.44
5398,-9.01,-1.74,-4.32,-3.36,0.43,0.76,-56.98,-34.43,-0.44
5409,-7.94,-1.76,-5.12,-2.57,0.31,0.06,-56.98,-34.43,-0.44
5420,-7.94,-1.76,-5.12,-2.57,0.31,0.06,-56.98,-34.43,-0.44
5431,-6.99,-5.04,-5.12,-0.91,0.37,-0.26,-56.98,-34.43,-0.44
5442,-6.99,-5.04,-5.12,-0.91,0.37,-0.26,-56.98,-34.43,-0.44
5453,-6.21,-5.55,-5.58,-0.04,0.32,0.18,-56.98,-34.43,-0.44
5464,-8.07,-2.98,-5.37,0.94,0.24,0.62,-56.98,-34.43,-0.44
5565,-7.25,-5.25,-0.44,3.25,-0.73,-1.05,-57.92,-35.62,-1.75
5576,-7.25,-5.25,-0.44,3.25,-0.73,-1.05,-57.92,-35.62,-1.75
5587,-8.16,-7.20,-2.21,0.98,-0.79,-1.44,-57.92,-35.62,-1.75
5598,-8.16,-7.20,-2.21,0.98,-0.79,-1.44,-57.92,-35.62,-1.75
5609,-7.68,-10.13,-2.09,0.48,-0.55,-0.94,-57.92,-35.62,-1.75
5620,-7.68,-10.13,-2.09,0.48,-0.55,-0.94,-57.92,-35.62,-1.75
5631,-8.42,-8.63,-1.56,0.36,-0.09,0.38,-53.21,-39.48,9.00
5642,-8.42,-8.63,-1.56,0.36,-0.09,0.38,-53.21,-39.48,9.00
5653,-6.60,-7.82,2.66,-0.52,0.22,1.09,-53.21,-39.48,9.00
5664,-7.69,-7.50,0.56,-4.69,0.28,0.97,-53.21,-39.48,9.00
5675,-7.69,-7.50,0.56,-4.69,0.28,0.97,-53.21,-39.48,9.00
5686,-7.88,-8.46,-2.61,-7.80,0.41,1.19,-53.21,-39.48,9.00
5697,-7.88,-8.46,-2.61,-7.80,0.41,1.19,-53.21,-39.48,9.00
5708,-6.17,-5.00,-3.34,-9.82,0.09,1.90,-53.21,-39.48,9.00
5719,-6.17,-5.00,-3.34,-9.82,0.09,1.90,-53.21,-39.48,9.00
5730,-6.34,-1.27,0.69,-13.66,0.10,2.79,-53.21,-39.48,9.00
5741,-6.34,-1.27,0.69,-13.66,0.10,2.79,-53.21,-39.48,9.00
5843,-6.47,0.94,-2.61,6.29,1.13,-2.89,-64.04,-15.97,-22.27
5853,-5.92,-5.40,-8.61,5.47,1.24,-2.91,-64.04,-15.97,-22.27
5864,-7.68,-8.46,-6.46,4.52,0.25,-1.80,-64.04,-15.97,-22.27
5875,-7.68,-8.46,-6.46,4.52,0.25,-1.80,-64.04,-15.97,-22.27
5886,-7.97,-5.83,-4.53,0.85,-0.34,-0.48,-60.98,-25.94,-17.87
5897,-7.97,-5.83,-4.53,0.85,-0.34,-0.48,-60.98,-25.94,-17.87
5908,-8.28,-0.47,-6.07,-1.50,-0.13,0.28,-60.98,-25.94,-17.87
5919,-8.28,-0.47,-6.07,-1.50,-0.13,0.28,-60.98,-25.94,-17.87
5930,-7.43,1.60,-6.41,-0.76,-0.12,0.09,-60.98,-25.94,-17.87
5941,-7.43,1.60,-6.41,-0.76,-0.12,0.09,-60.98,-25.94,-17.87
5952,-7.72,-1.08,-6.04,1.33,-0.06,-0.41,-60.98,-25.94,-17.87
5963,-7.72,-1.08,-6.04,1.33,-0.06,-0.41,-60.98,-25.94,-17.87
5974,-8.14,-3.45,-7.55,1.85,-0.01,-0.37,-60.98,-25.94,-17.87
6076,-8.52,-0.24,-5.28,3.38,-0.05,-0.36,-60.27,-27.88,-16.08
6086,-8.95,-1.82,-4.98,4.20,-0.04,-0.91,-60.27,-27.88,-16.08
6097,-8.95,-1.82,-4.98,4.20,-0.04,-0.91,-60.27,-27.88,-16.08
6108,-7.63,-1.65,-4.59,6.30,0.08,-1.25,-60.27,-27.88,-16.08
6119,-7.63,-1.65,-4.59,6.30,0.08,-1.25,-60.27,-27.88,-16.08
6130,-7.39,-8.85,1.17,6.80,-0.11,-1.38,-60.27,-27.88,-16.08
6141,-7.39,-8.85,1.17,6.80,-0.11,-1.38,-60.27,-27.88,-16.08
6152,-6.11,-12.05,-2.33,1.17,-0.34,-0.90,-55.33,-35.47,-0.61
6163,-6.11,-12.05,-2.33,1.17,-0.34,-0.90,-55.33,-35.47,-0.61
6174,-6.89,-9.80,-1.38,-1.19,-0.29,0.41,-55.33,-35.47,-0.61
6185,-8.21,-4.96,-3.85,-2.98,-0.05,1.27,-55.33,-35.47,-0.61
6196,-8.21,-4.96,-3.85,-2.98,-0.05,1.27,-55.33,-35.47,-0.61
6207,-10.18,-1.36,-4.72,-1.84,-0.01,1.24,-55.33,-35.47,-0.61
6218,-10.18,-1.36,-4.72,-1.84,-0.01,1.24,-55.33,-35.47,-0.61
6229,-8.99,-0.25,-4.38,-0.58,-0.14,0.60,-55.33,-35.47,-0.61
6240,-8.99,-0.25,-4.38,-0.58,-0.14,0.60,-55.33,-35.47,-0.61
6251,-8.04,-2.57,-3.96,-0.79,-0.18,-0.02,-55.33,-35.47,-0.61
6354,-8.39,-4.68,-4.05,0.30,-0.08,-0.08,-58.39,-32.94,-4.35
6364,-7.75,-4.96,-3.97,0.05,-0.04,-0.00,-58.39,-32.94,-4.35
6375,-7.75,-4.96,-3.97,0.05,-0.04,-0.00,-58.39,-32.94,-4.35
6386,-7.82,-4.48,-4.51,-0.18,-0.02,0.24,-60.98,-34.57,-4.84
6397,-7.82,-4.48,-4.51,-0.18,-0.02,0.24,-60.98,-34.57,-4.84
6408,-8.21,-3.71,-4.38,-0.21,-0.11,0.39,-60.98,-34.57,-4.84
6419,-8.21,-3.71,-4.38,-0.21,-0.11,0.39,-60.98,-34.57,-4.84
6430,-8.86,-3.50,-3.86,-0.17,-0.12,0.35,-60.98,-34.57,-4.84
6441,-8.86,-3.50,-3.86,-0.17,-0.12,0.35,-60.98,-34.57,-4.84
6452,-8.59,-3.37,-4.07,-0.20,-0.03,0.18,-60.98,-34.57,-4.84
6463,-8.59,-3.37,-4.07,-0.20,-0.03,0.18,-60.98,-34.57,-4.84
6474,-7.88,-3.67,-4.01,-0.17,-0.04,0.02,-60.98,-34.57,-4.84
6613,-8.54,-4.10,-4.25,-0.02,-0.05,0.02,-61.21,-32.34,-4.68
6624,-8.69,-3.77,-4.01,-0.04,-0.04,0.10,-61.21,-32.34,-4.68
6635,-8.69,-3.77,-4.01,-0.04,-0.04,0.10,-61.21,-32.34,-4.68
6646,-8.66,-3.65,-4.38,-0.04,0.03,0.11,-60.27,-32.64,-6.31
6657,-8.66,-3.65,-4.38,-0.04,0.03,0.11,-60.27,-32.64,-6.31
6668,-8.49,-3.43,-4.38,0.02,0.02,0.11,-60.27,-32.64,-6.31
6679,-8.49,-3.43,-4.38,0.02,0.02,0.11,-60.27,-32.64,-6.31
6690,-8.32,-3.49,-4.11,0.08,-0.04,0.04,-60.27,-32.64,-6.31
6701,-8.32,-3.49,-4.11,0.08,-0.04,0.04,-60.27,-32.64,-6.31
6712,-8.40,-3.73,-4.15,0.13,0.00,-0.03,-60.27,-32.64,-6.31
6723,-8.40,-3.73,-4.15,0.13,0.00,-0.03,-60.27,-32.64,-6.31
6734,-8.34,-3.98,-4.15,0.13,0.04,-0.03,-60.27,-32.64,-6.31
6745,-8.20,-4.02,-4.34,0.06,0.07,0.05,-60.27,-32.64,-6.31
6756,-8.20,-4.02,-4.34,0.06,0.07,0.05,-60.27,-32.64,-6.31
6767,-8.24,-3.52,-4.26,0.03,0.02,0.08,-60.74,-32.34,-4.35
6778,-8.24,-3.52,-4.26,0.03,0.02,0.08,-60.74,-32.34,-4.35
6789,-8.19,-3.84,-4.36,0.06,-0.08,0.01,-60.74,-32.34,-4.35
6890,-8.59,-3.65,-4.07,-0.01,-0.03,-0.04,-59.33,-32.34,-5.01
6900,-8.59,-3.65,-4.07,-0.01,-0.03,-0.04,-59.33,-32.34,-5.01
6911,-8.46,-4.25,-3.88,-0.04,-0.04,-0.10,-59.33,-32.34,-5.01
6922,-8.46,-4.25,-3.88,-0.04,-0.04,-0.10,-59.33,-32.34,-5.01
6933,-8.83,-3.83,-3.97,-0.18,-0.01,-0.07,-59.33,-32.34,-5.01
6944,-8.83,-3.83,-3.97,-0.18,-0.01,-0.07,-59.33,-32.34,-5.01
6955,-8.83,-3.55,-4.23,-0.32,0.01,-0.17,-59.33,-32.34,-5.01
6966,-8.75,-3.64,-4.78,-0.36,-0.00,-0.33,-59.33,-32.34,-5.01
6977,-8.75,-3.64,-4.78,-0.36,-0.00,-0.33,-59.33,-32.34,-5.01
6988,-8.47,-3.72,-5.14,-0.29,-0.09,-0.42,-59.33,-32.34,-5.01
6999,-8.47,-3.72,-5.14,-0.29,-0.09,-0.42,-59.33,-32.34,-5.01
7010,-8.06,-3.69,-4.86,-0.19,-0.17,-0.40,-59.33,-32.34,-5.01
7021,-8.06,-3.69,-4.86,-0.19,-0.17,-0.40,-59.33,-32.34,-5.01
7124,-8.71,-4.46,-2.49,-0.04,-0.18,0.37,-56.98,-33.53,-5.66
7134,-9.31,-3.71,-4.28,-0.19,-0.04,0.43,-56.98,-33.53,-5.66
7145,-8.97,-3.12,-4.58,-0.19,-0.03,0.26,-58.15,-33.38,-5.82
7156,-8.97,-3.12,-4.58,-0.19,-0.03,0.26,-58.15,-33.38,-5.82
7167,-8.03,-3.64,-4.43,-0.13,-0.06,0.03,-58.15,-33.38,-5.82
7178,-8.03,-3.64,-4.43,-0.13,-0.06,0.03,-58.15,-33.38,-5.82
7189,-7.59,-3.79,-4.46,-0.11,-0.14,-0.04,-58.15,-33.38,-5.82
7200,-7.59,-3.79,-4.46,-0.11,-0.14,-0.04,-58.15,-33.38,-5.82
7211,-7.60,-3.43,-4.26,-0.05,-0.18,-0.05,-58.15,-33.38,-5.82
7222,-7.60,-3.43,-4.26,-0.05,-0.18,-0.05,-58.15,-33.38,-5.82
7233,-7.47,-3.56,-4.22,-0.17,-0.13,-0.18,-58.15,-33.38,-5.82
7244,-7.47,-3.56,-4.22,-0.17,-0.13,-0.18,-58.15,-33.38,-5.82
7255,-7.80,-3.87,-5.27,-0.25,-0.10,-0.18,-58.15,-33.38,-5.82
7266,-11.04,-3.58,-3.42,-0.27,-0.28,0.01,-59.80,-32.94,-5.98
7277,-11.04,-3.58,-3.42,-0.27,-0.28,0.01,-59.80,-32.94,-5.98
7288,-9.05,-4.24,-3.37,-0.59,-0.10,-0.04,-59.80,-32.94,-5.98
7389,-7.51,-2.11,-6.31,0.08,-0.12,-0.66,-59.80,-32.94,-5.98
7399,-7.51,-2.11,-6.31,0.08,-0.12,-0.66,-59.80,-32.94,-5.98
7410,-7.47,-1.20,-5.48,0.58,0.25,-0.53,-57.68,-31.60,-8.43
7421,-7.47,-1.20,-5.48,0.58,0.25,-0.53,-57.68,-31.60,-8.43
7432,-9.62,-2.04,-6.31,0.16,0.35,-0.45,-57.68,-31.60,-8.43
7443,-9.62,-2.04,-6.31,0.16,0.35,-0.45,-57.68,-31.60,-8.43
7454,-10.10,-6.09,-4.83,-0.07,0.10,0.00,-57.68,-31.60,-8.43
7465,-10.35,-7.41,-2.86,-1.03,-0.21,1.06,-57.68,-31.60,-8.43
7476,-10.35,-7.41,-2.86,-1.03,-0.21,1.06,-57.68,-31.60,-8.43
7487,-6.83,-5.70,-2.10,-1.45,-0.16,2.10,-57.68,-31.60,-8.43
7498,-6.83,-5.70,-2.10,-1.45,-0.16,2.10,-57.68,-31.60,-8.43
7509,-8.31,1.19,-4.08,-1.15,-0.32,1.76,-57.68,-31.60,-8.43
7520,-8.31,1.19,-4.08,-1.15,-0.32,1.76,-57.68,-31.60,-8.43
7622,-8.32,-7.11,-3.38,0.93,-0.58,0.10,-64.98,-28.18,-10.22
7632,-8.46,-4.22,-1.56,0.60,-0.62,0.86,-64.98,-28.18,-10.22
7643,-8.46,-4.22,-1.56,0.60,-0.62,0.86,-64.98,-28.18,-10.22
7654,-8.48,-1.28,-1.86,0.05,-0.38,0.71,-64.98,-28.18,-7.94
7665,-13.73,0.20,0.79,-0.79,-0.09,-0.26,-64.98,-28.18,-7.94
7676,-13.73,0.20,0.79,-0.79,-0.09,-0.26,-64.98,-28.18,-7.94
7687,-12.57,-0.27,-2.15,-1.63,1.32,-1.45,-64.98,-28.18,-7.94
7698,-12.57,-0.27,-2.15,-1.63,1.32,-1.45,-64.98,-28.18,-7.94
7709,-2.70,-1.86,-10.05,-1.32,2.32,-2.29,-64.98,-28.18,-7.94
7720,-2.70,-1.86,-10.05,-1.32,2.32,-2.29,-64.98,-28.18,-7.94
7731,-3.67,-4.52,-7.69,-0.08,0.52,-1.46,-64.98,-28.18,-7.94
7742,-3.67,-4.52,-7.69,-0.08,0.52,-1.46,-64.98,-28.18,-7.94
7758,-5.72,-3.99,-5.75,0.17,-0.50,-0.35,-64.98,-28.18,-7.94
7764,-5.72,-3.99,-5.75,0.17,-0.50,-0.35,-64.98,-28.18,-7.94
7775,-6.24,-4.30,-6.79,0.12,-0.30,0.37,-58.15,-31.00,-11.68
7786,-7.60,-1.80,-6.73,0.45,-0.35,0.69,-58.15,-31.00,-11.68
7797,-7.60,-1.80,-6.73,0.45,-0.35,0.69,-58.15,-31.00,-11.68
7904,-6.43,-4.83,-4.74,0.93,-0.43,-0.73,-58.15,-31.00,-11.68
7915,-9.23,-4.78,-5.20,0.59,-0.81,-0.32,-57.21,-32.49,-9.08
7926,-10.00,-2.85,-5.88,-0.07,-0.43,0.09,-57.21,-32.49,-9.08
7937,-10.00,-2.85,-5.88,-0.07,-0.43,0.09,-57.21,-32.49,-9.08
7948,-9.50,-3.17,-2.71,-0.50,-0.13,0.09,-57.21,-32.49,-9.08
7959,-9.50,-3.17,-2.71,-0.50,-0.13,0.09,-57.21,-32.49,-9.08
7970,-9.18,-6.67,-3.87,-0.95,0.03,0.43,-57.21,-32.49,-9.08
7981,-9.18,-6.67,-3.87,-0.95,0.03,0.43,-57.21,-32.49,-9.08
8095,-7.09,-2.74,-5.90,0.59,-0.42,0.23,-61.45,-28.03,-12.34
8105,-7.09,-2.74,-5.90,0.59,-0.42,0.23,-61.45,-28.03,-12.34
8116,-8.68,-3.83,-5.35,0.74,-0.41,0.27,-61.45,-28.03,-12.34
8127,-9.37,-4.91,-2.67,0.63,-0.24,0.15,-61.45,-28.03,-12.34
8138,-9.37,-4.91,-2.67,0.63,-0.24,0.15,-61.45,-28.03,-12.34
8149,-7.50,-3.51,-5.25,-0.03,0.21,0.04,-60.27,-29.07,-11.52
8160,-7.50,-3.51,-5.25,-0.03,0.21,0.04,-60.27,-29.07,-11.52
8171,-8.02,-2.22,-5.13,-0.02,0.07,0.09,-60.27,-29.07,-11.52
8182,-8.02,-2.22,-5.13,-0.02,0.07,0.09,-60.27,-29.07,-11.52
8193,-8.36,-2.14,-5.31,0.19,-0.06,0.00,-60.27,-29.07,-11.52
8204,-8.36,-2.14,-5.31,0.19,-0.06,0.00,-60.27,-29.07,-11.52
8215,-8.27,-2.61,-4.87,0.29,-0.13,-0.07,-60.27,-29.07,-11.52
8226,-8.11,-2.10,-5.49,0.33,-0.15,-0.06,-60.27,-29.07,-11.52
8360,-8.71,-0.29,-4.28,-0.53,-0.32,-0.39,-58.62,-31.30,-11.03
8371,-6.69,-3.12,-4.63,0.02,0.12,-0.69,-58.62,-31.30,-11.03
8382,-6.69,-3.12,-4.63,0.02,0.12,-0.69,-58.62,-31.30,-11.03
8393,-9.44,0.07,-6.30,0.04,0.35,-0.37,-58.62,-31.30,-11.03
8404,-9.44,0.07,-6.30,0.04,0.35,-0.37,-58.62,-31.30,-11.03
8415,-9.38,-4.23,-5.21,0.40,0.35,-0.19,-59.80,-29.66,-12.17
8426,-9.12,-4.39,-3.97,-0.28,0.06,0.34,-59.80,-29.66,-12.17
8437,-9.12,-4.39,-3.97,-0.28,0.06,0.34,-59.80,-29.66,-12.17
8448,-8.65,-5.80,-3.33,-0.62,-0.17,0.57,-59.80,-29.66,-12.17
8459,-8.65,-5.80,-3.33,-0.62,-0.17,0.57,-59.80,-29.66,-12.17
8470,-8.38,-4.33,-3.26,-0.82,-0.31,0.68,-59.80,-29.66,-12.17
8481,-8.38,-4.33,-3.26,-0.82,-0.31,0.68,-59.80,-29.66,-12.17
8492,-8.57,0.25,-4.07,-1.04,-0.37,0.48,-59.80,-29.66,-12.17
8503,-8.57,0.25,-4.07,-1.04,-0.37,0.48,-59.80,-29.66,-12.17
8514,-8.92,-0.76,-3.58,-0.68,-0.22,-0.32,-59.80,-29.66,-12.17
8525,-8.92,-0.76,-3.58,-0.68,-0.22,-0.32,-59.80,-29.66,-12.17
8627,-8.81,-1.58,-4.68,0.01,0.05,0.20,-61.92,-27.73,-12.01
8637,-8.81,-1.58,-4.68,0.01,0.05,0.20,-61.92,-27.73,-12.01
8648,-8.63,-1.58,-5.33,0.08,0.08,0.06,-61.92,-27.73,-12.01
8659,-8.63,-1.58,-5.33,0.08,0.08,0.06,-61.92,-27.73,-12.01
8670,-8.19,-2.11,-4.65,0.09,0.09,0.02,-61.92,-28.03,-12.99
8681,-8.19,-2.11,-4.65,0.09,0.09,0.02,-61.92,-28.03,-12.99
8692,-8.85,-2.31,-5.34,-0.02,0.19,0.08,-61.92,-28.03,-12.99
8703,-8.85,-2.31,-5.34,-0.02,0.19,0.08,-61.92,-28.03,-12.99
8714,-9.25,-4.00,-4.38,-0.26,0.06,0.29,-61.92,-28.03,-12.99
8725,-9.25,-4.00,-4.38,-0.26,0.06,0.29,-61.92,-28.03,-12.99
8736,-9.05,-3.48,-4.31,-0.76,-0.05,0.69,-61.92,-28.03,-12.99
8747,-8.87,-1.57,-4.54,-0.84,-0.16,0.60,-61.92,-28.03,-12.99
8758,-8.87,-1.57,-4.54,-0.84,-0.16,0.60,-61.92,-28.03,-12.99
8860,-9.34,-3.22,-4.22,0.12,0.02,-0.20,-64.74,-25.94,-14.29
8870,-9.02,-4.78,-4.94,-0.33,-0.03,0.22,-64.74,-25.94,-14.29
8881,-9.02,-4.78,-4.94,-0.33,-0.03,0.22,-64.74,-25.94,-14.29
8892,-8.72,-2.29,-4.28,-0.63,-0.19,0.66,-64.74,-25.94,-14.29
8903,-8.72,-2.29,-4.28,-0.63,-0.19,0.66,-64.74,-25.94,-14.29
8914,-9.08,-1.25,-5.03,-0.47,-0.17,0.51,-62.39,-25.65,-14.94
8925,-9.08,-1.25,-5.03,-0.47,-0.17,0.51,-62.39,-25.65,-14.94
8936,-8.19,0.28,-5.26,-0.35,-0.18,0.07,-62.39,-25.65,-14.94
8947,-8.32,-0.97,-4.97,-0.25,-0.16,-0.44,-62.39,-25.65,-14.94
8958,-8.32,-0.97,-4.97,-0.25,-0.16,-0.44,-62.39,-25.65,-14.94
8969,-8.53,-1.38,-4.92,0.10,0.07,-0.52,-62.39,-25.65,-14.94
8980,-8.53,-1.38,-4.92,0.10,0.07,-0.52,-62.39,-25.65,-14.94
8991,-8.89,-2.08,-5.41,0.33,0.17,-0.35,-62.39,-25.65,-14.94
9002,-8.89,-2.08,-5.41,0.33,0.17,-0.35,-62.39,-25.65,-14.94
9013,-9.26,-3.02,-4.67,0.07,0.05,-0.01,-62.39,-25.65,-14.94
9024,-9.26,-3.02,-4.67,0.07,0.05,-0.01,-62.39,-25.65,-14.94
9035,-8.61,-4.26,-4.77,-0.30,-0.05,0.35,-60.51,-26.84,-14.29
9137,-8.27,-1.18,-5.18,-0.17,0.14,-0.35,-60.51,-26.84,-14.29
9147,-9.16,-0.59,-6.16,-0.02,0.21,-0.22,-60.51,-26.84,-14.29
9158,-9.16,-0.59,-6.16,-0.02,0.21,-0.22,-60.51,-26.84,-14.29
9169,-9.09,-2.48,-5.08,0.02,-0.02,-0.07,-60.98,-25.94,-14.94
9180,-9.09,-2.48,-5.08,0.02,-0.02,-0.07,-60.98,-25.94,-14.94
9191,-8.91,-4.52,-5.06,-0.07,-0.17,0.23,-60.98,-25.94,-14.94
9202,-8.91,-4.52,-5.06,-0.07,-0.17,0.23,-60.98,-25.94,-14.94
9213,-9.28,-2.00,-3.83,-0.11,-0.38,0.65,-60.98,-25.94,-14.94
9224,-9.28,-2.00,-3.83,-0.11,-0.38,0.65,-60.98,-25.94,-14.94
9235,-9.42,-0.18,-2.95,-0.17,-0.29,0.48,-60.98,-25.94,-14.94
9246,-9.42,-0.18,-2.95,-0.17,-0.29,0.48,-60.98,-25.94,-14.94
9257,-14.16,-0.41,-0.54,-0.61,0.10,-0.36,-60.98,-25.94,-14.94
9359,-1.24,-3.46,-6.91,-0.19,-0.16,-0.34,-58.86,-23.71,-18.04
9369,-2.65,-5.74,-5.98,-0.01,-0.47,0.98,-58.86,-23.71,-18.04
9380,-2.65,-5.74,-5.98,-0.01,-0.47,0.98,-58.86,-23.71,-18.04
9391,-12.48,-0.84,-8.80,-0.09,-0.39,2.18,-58.86,-23.71,-18.04
9402,-12.48,-0.84,-8.80,-0.09,-0.39,2.18,-58.86,-23.71,-18.04
9413,-9.87,0.38,-4.97,0.65,-0.09,1.63,-59.56,-23.86,-18.53
9424,-9.87,0.38,-4.97,0.65,-0.09,1.63,-59.56,-23.86,-18.53
9435,-7.79,-3.67,-4.67,1.05,0.73,1.04,-59.56,-23.86,-18.53
9446,-7.79,-3.67,-4.67,1.05,0.73,1.04,-59.56,-23.86,-18.53
9457,-7.32,-3.39,-7.75,0.31,0.94,1.37,-59.56,-23.86,-18.53
9468,-7.64,-0.11,-6.87,0.14,0.46,1.94,-59.56,-23.86,-18.53
9479,-7.64,-0.11,-6.87,0.14,0.46,1.94,-59.56,-23.86,-18.53
9490,-9.38,4.15,-7.42,0.44,0.02,1.77,-59.56,-23.86,-18.53
9501,-9.38,4.15,-7.42,0.44,0.02,1.77,-59.56,-23.86,-18.53
9512,-9.28,4.74,-6.12,1.09,-0.27,0.86,-59.56,-23.86,-18.53
9523,-9.28,4.74,-6.12,1.09,-0.27,0.86,-59.56,-23.86,-18.53
9534,-8.86,1.79,-5.24,1.84,-0.02,0.00,-59.56,-23.86,-18.53
9637,-7.39,1.60,-7.25,0.57,-0.58,-0.97,-63.57,-23.12,-16.73
9648,-7.52,-4.29,-3.86,1.33,-0.70,-1.41,-63.57,-23.12,-16.73
9659,-7.52,-4.29,-3.86,1.33,-0.70,-1.41,-63.57,-23.12,-16.73
9670,-7.03,-4.51,-6.10,0.85,-0.26,-0.73,-59.80,-26.99,-15.76
9681,-7.03,-4.51,-6.10,0.85,-0.26,-0.73,-59.80,-26.99,-15.76
9692,-8.09,-2.19,-3.95,0.59,-0.52,-0.16,-59.80,-26.99,-15.76
9703,-8.09,-2.19,-3.95,0.59,-0.52,-0.16,-59.80,-26.99,-15.76
9714,-8.90,-1.06,-5.36,0.45,-0.53,-0.24,-59.80,-26.99,-15.76
9725,-8.90,-1.06,-5.36,0.45,-0.53,-0.24,-59.80,-26.99,-15.76
9736,-9.33,-2.43,-3.60,0.70,-0.64,-0.52,-59.80,-26.99,-15.76
9747,-9.10,-5.26,-2.61,0.74,-0.19,-0.40,-59.80,-26.99,-15.76
9758,-9.10,-5.26,-2.61,0.74,-0.19,-0.40,-59.80,-26.99,-15.76
9900,-8.28,-3.30,-4.87,0.38,-0.15,-0.09,-58.39,-28.18,-13.48
9910,-8.47,-3.40,-4.91,0.33,-0.15,-0.03,-58.39,-28.18,-13.48
9921,-8.47,-3.40,-4.91,0.33,-0.15,-0.03,-58.39,-28.18,-13.48
9932,-8.44,-2.97,-4.81,0.24,-0.06,0.15,-61.68,-28.77,-13.48
9943,-8.44,-2.97,-4.81,0.24,-0.06,0.15,-61.68,-28.77,-13.48
9954,-8.39,-2.19,-5.04,0.07,0.03,0.19,-61.68,-28.77,-13.48
9965,-8.39,-2.19,-5.04,0.07,0.03,0.19,-61.68,-28.77,-13.48
9976,-7.98,-2.19,-5.46,0.02,-0.01,0.04,-61.68,-28.77,-13.48
9987,-7.98,-2.19,-5.46,0.02,-0.01,0.04,-61.68,-28.77,-13.48
9998,-7.82,-2.84,-5.54,0.08,-0.13,0.04,-61.68,-28.77,-13.48
10009,-8.95,-2.31,-4.94,0.18,-0.18,0.21,-61.68,-28.77,-13.48
10020,-8.95,-2.31,-4.94,0.18,-0.18,0.21,-61.68,-28.77,-13.48
10031,-8.89,-2.38,-4.55,0.22,-0.07,0.11,-61.68,-28.77,-13.48
10133,-9.98,-2.80,-4.17,0.18,-0.21,-0.49,-61.45,-29.22,-12.66
10143,-9.98,-2.80,-4.17,0.18,-0.21,-0.49,-61.45,-29.22,-12.66
10154,-9.16,-4.25,-4.20,-0.17,-0.05,-0.43,-61.45,-29.22,-12.66
10165,-9.16,-4.25,-4.20,-0.17,-0.05,-0.43,-61.45,-29.22,-12.66
10176,-10.68,-3.55,-3.91,-0.79,-0.20,0.07,-60.04,-29.22,-12.99
10187,-10.68,-3.55,-3.91,-0.79,-0.20,0.07,-60.04,-29.22,-12.99
10198,-8.96,-6.29,-3.95,-1.57,-0.15,0.55,-60.04,-29.22,-12.99
10209,-7.48,-2.16,-4.98,-1.97,-0.31,1.20,-60.04,-29.22,-12.99
10220,-7.48,-2.16,-4.98,-1.97,-0.31,1.20,-60.04,-29.22,-12.99
10231,-8.14,0.15,-5.26,-1.54,-0.32,0.84,-60.04,-29.22,-12.99
10242,-8.14,0.15,-5.26,-1.54,-0.32,0.84,-60.04,-29.22,-12.99
10253,-7.64,-0.51,-5.58,-0.98,-0.17,0.09,-60.04,-29.22,-12.99
10264,-7.64,-0.51,-5.58,-0.98,-0.17,0.09,-60.04,-29.22,-12.99
10275,-7.94,-0.62,-5.08,-0.59,0.00,-0.37,-60.04,-29.22,-12.99
10286,-7.94,-0.62,-5.08,-0.59,0.00,-0.37,-60.04,-29.22,-12.99
10297,-8.63,-0.98,-6.14,-0.37,0.34,-0.42,-60.04,-29.22,-12.99
10399,-8.07,0.14,-5.77,-0.42,-0.19,-0.06,-62.39,-26.24,-14.94
10409,-8.18,-0.74,-6.23,-0.01,-0.02,-0.26,-62.39,-26.24,-14.94
10420,-8.18,-0.74,-6.23,-0.01,-0.02,-0.26,-62.39,-26.24,-14.94
10431,-7.99,0.52,-4.73,0.22,0.10,-0.14,-61.45,-25.94,-14.94
10442,-7.99,0.52,-4.73,0.22,0.10,-0.14,-61.45,-25.94,-14.94
10453,-8.96,-2.21,-6.97,0.33,0.39,-0.22,-61.45,-25.94,-14.94
10464,-8.96,-2.21,-6.97,0.33,0.39,-0.22,-61.45,-25.94,-14.94
10475,-9.04,-4.68,-3.82,0.14,-0.09,0.09,-61.45,-25.94,-14.94
10486,-9.04,-4.68,-3.82,0.14,-0.09,0.09,-61.45,-25.94,-14.94
10497,-8.78,-3.86,-4.31,-0.35,-0.29,0.41,-61.45,-25.94,-14.94
10508,-8.97,-3.23,-4.41,-0.52,-0.34,0.45,-61.45,-25.94,-14.94
10519,-8.97,-3.23,-4.41,-0.52,-0.34,0.45,-61.45,-25.94,-14.94
10621,-9.03,-2.09,-4.85,0.04,0.06,-0.19,-61.45,-25.35,-16.25
10631,-8.82,-4.62,-4.77,-0.22,-0.02,0.06,-61.45,-25.35,-16.25
10642,-8.82,-4.62,-4.77,-0.22,-0.02,0.06,-61.45,-25.35,-16.25
10653,-9.24,-1.28,-5.09,-0.55,-0.18,0.59,-61.45,-25.35,-16.25
10664,-9.24,-1.28,-5.09,-0.55,-0.18,0.59,-61.45,-25.35,-16.25
10675,-8.62,0.31,-4.68,-0.48,-0.28,0.52,-63.33,-24.75,-15.92
10686,-8.62,0.31,-4.68,-0.48,-0.28,0.52,-63.33,-24.75,-15.92
10697,-8.36,-1.96,-5.26,-0.25,-0.11,0.07,-63.33,-24.75,-15.92
10708,-8.55,-0.17,-4.71,-0.22,-0.09,-0.11,-63.33,-24.75,-15.92
10719,-8.55,-0.17,-4.71,-0.22,-0.09,-0.11,-63.33,-24.75,-15.92
10730,-8.69,-1.71,-4.39,-0.02,0.12,-0.44,-63.33,-24.75,-15.92
10741,-8.69,-1.71,-4.39,-0.02,0.12,-0.44,-63.33,-24.75,-15.92
10752,-9.03,-0.99,-5.93,0.09,0.31,-0.42,-63.33,-24.75,-15.92
10763,-9.03,-0.99,-5.93,0.09,0.31,-0.42,-63.33,-24.75,-15.92
10774,-9.07,-0.28,-5.95,0.12,0.09,-0.19,-63.33,-24.75,-15.92
10785,-9.07,-0.28,-5.95,0.12,0.09,-0.19,-63.33,-24.75,-15.92
10796,-9.04,-4.04,-5.49,-0.08,-0.13,-0.08,-63.33,-24.75,-15.92
10898,-8.19,-2.02,-5.62,-0.15,0.08,-0.48,-62.15,-25.80,-16.73
10908,-8.79,-0.12,-5.47,-0.05,0.16,-0.19,-62.15,-25.80,-16.73
10919,-8.79,-0.12,-5.47,-0.05,0.16,-0.19,-62.15,-25.80,-16.73
10930,-8.92,-1.30,-5.26,0.06,0.16,-0.16,-61.21,-25.20,-16.41
10941,-8.92,-1.30,-5.26,0.06,0.16,-0.16,-61.21,-25.20,-16.41
10952,-8.85,-2.10,-5.23,0.00,0.09,-0.05,-61.21,-25.20,-16.41
10963,-8.85,-2.10,-5.23,0.00,0.09,-0.05,-61.21,-25.20,-16.41
10974,-9.01,-2.61,-4.66,-0.10,-0.00,0.11,-61.21,-25.20,-16.41
10985,-9.01,-2.61,-4.66,-0.10,-0.00,0.11,-61.21,-25.20,-16.41
10996,-8.76,-2.04,-5.33,-0.19,-0.07,0.35,-61.21,-25.20,-16.41
11007,-8.76,-2.04,-5.33,-0.19,-0.07,0.35,-61.21,-25.20,-16.41
11018,-8.79,0.28,-5.24,-0.16,-0.23,0.36,-61.21,-25.20,-16.41
11120,-8.91,-1.83,-3.96,0.67,0.07,-0.33,-60.51,-23.86,-17.22
11131,-8.75,-2.38,-5.08,0.53,0.18,-0.27,-60.51,-23.86,-17.22
11142,-8.75,-2.38,-5.08,0.53,0.18,-0.27,-60.51,-23.86,-17.22
11153,-8.71,-2.20,-5.06,0.43,0.14,-0.12,-60.51,-23.86,-17.22
11164,-8.71,-2.20,-5.06,0.43,0.14,-0.12,-60.51,-23.86,-17.22
11175,-8.88,-1.85,-4.24,0.31,0.08,-0.04,-60.51,-23.86,-17.22
11186,-8.88,-1.85,-4.24,0.31,0.08,-0.04,-60.51,-23.86,-17.22
11197,-8.91,-3.42,-5.21,0.16,0.08,0.05,-62.15,-25.50,-15.11
11208,-8.91,-3.42,-5.21,0.16,0.08,0.05,-62.15,-25.50,-15.11
11219,-8.99,-2.86,-4.39,-0.14,-0.06,0.36,-62.15,-25.50,-15.11
11230,-8.98,-1.77,-4.10,-0.22,-0.10,0.51,-62.15,-25.50,-15.11
11241,-8.98,-1.77,-4.10,-0.22,-0.10,0.51,-62.15,-25.50,-15.11
11252,-8.76,0.00,-5.46,-0.14,-0.04,0.37,-62.15,-25.50,-15.11
11263,-8.76,0.00,-5.46,-0.14,-0.04,0.37,-62.15,-25.50,-15.11
11274,-8.55,-0.33,-3.79,-0.06,-0.17,-0.17,-62.15,-25.50,-15.11
11285,-8.55,-0.33,-3.79,-0.06,-0.17,-0.17,-62.15,-25.50,-15.11
11387,-8.99,-2.87,-3.88,-0.02,0.07,0.12,-61.68,-25.20,-15.11
11397,-9.70,-3.07,-4.83,-0.33,0.06,0.37,-61.68,-25.20,-15.11
11408,-9.70,-3.07,-4.83,-0.33,0.06,0.37,-61.68,-25.20,-15.11
11419,-9.18,-2.53,-4.83,-0.58,-0.17,0.48,-61.68,-25.20,-15.11
11430,-8.71,-1.28,-5.27,-0.65,-0.27,0.45,-61.21,-23.71,-16.41
11441,-8.71,-1.28,-5.27,-0.65,-0.27,0.45,-61.21,-23.71,-16.41
11452,-8.90,-0.30,-4.78,-0.51,-0.34,0.20,-61.21,-23.71,-16.41
11463,-8.90,-0.30,-4.78,-0.51,-0.34,0.20,-61.21,-23.71,-16.41
11474,-8.60,-0.95,-3.51,-0.23,-0.27,-0.28,-61.21,-23.71,-16.41
11485,-8.60,-0.95,-3.51,-0.23,-0.27,-0.28,-61.21,-23.71,-16.41
11496,-7.70,-1.20,-6.39,0.03,0.21,-0.41,-61.21,-23.71,-16.41
11507,-7.70,-1.20,-6.39,0.03,0.21,-0.41,-61.21,-23.71,-16.41
11621,-8.41,-0.03,-5.47,0.15,0.24,-0.23,-61.21,-23.71,-16.41
11622,-8.56,-0.95,-5.21,-0.44,-0.26,0.40,-61.45,-24.16,-16.57
11633,-8.38,-0.86,-5.44,-0.32,-0.18,0.13,-61.45,-24.16,-16.57
11644,-8.38,-0.86,-5.44,-0.32,-0.18,0.13,-61.45,-24.16,-16.57
11655,-8.85,-0.09,-4.19,-0.31,-0.22,-0.20,-61.45,-24.16,-16.57
11666,-8.85,-0.09,-4.19,-0.31,-0.22,-0.20,-61.45,-24.16,-16.57
11677,-8.03,-1.38,-5.01,-0.05,0.16,-0.44,-61.45,-24.16,-16.57
11688,-8.03,-1.38,-5.01,-0.05,0.16,-0.44,-61.45,-24.16,-16.57
11699,-8.82,-0.79,-5.61,0.16,0.26,-0.25,-61.68,-23.71,-16.73
11710,-8.92,-1.62,-4.81,0.08,0.06,-0.06,-61.68,-23.71,-16.73
11721,-8.92,-1.62,-4.81,0.08,0.06,-0.06,-61.68,-23.71,-16.73
11732,-9.16,-2.65,-5.58,-0.07,0.01,0.08,-61.68,-23.71,-16.73
11743,-9.16,-2.65,-5.58,-0.07,0.01,0.08,-61.68,-23.71,-16.73
11885,-8.87,1.88,-9.01,-0.17,0.72,-0.41,-62.39,-22.37,-16.57
11896,-11.31,-2.20,-3.48,0.89,-0.29,-0.19,-62.39,-22.37,-16.57
11907,-11.31,-2.20,-3.48,0.89,-0.29,-0.19,-62.39,-22.37,-16.57
11918,-10.07,-1.88,-3.75,0.33,-0.15,-0.07,-62.39,-22.37,-16.57
11929,-9.53,-3.37,-6.00,-0.19,-0.25,0.16,-62.39,-22.37,-16.57
11940,-9.53,-3.37,-6.00,-0.19,-0.25,0.16,-59.80,-24.90,-18.04
11951,-8.34,-1.86,-5.49,-0.42,-0.77,0.72,-59.80,-24.90,-18.04
11962,-8.34,-1.86,-5.49,-0.42,-0.77,0.72,-59.80,-24.90,-18.04
11973,-7.89,0.34,-5.17,-0.23,-0.77,0.79,-59.80,-24.90,-18.04
11984,-7.89,0.34,-5.17,-0.23,-0.77,0.79,-59.80,-24.90,-18.04
11995,-8.15,-1.26,-3.71,0.01,-0.52,0.27,-59.80,-24.90,-18.04
12006,-8.15,-1.26,-3.71,0.01,-0.52,0.27,-59.80,-24.90,-18.04
12108,-8.95,-1.18,-4.70,0.02,-0.12,-0.10,-61.21,-23.12,-17.06
12118,-9.36,-1.19,-4.13,-0.21,0.20,-0.05,-61.21,-23.12,-17.06
12129,-9.36,-1.19,-4.13,-0.21,0.20,-0.05,-61.21,-23.12,-17.06
12140,-7.76,-0.62,-5.52,-0.36,0.53,-0.13,-61.21,-23.12,-17.06
12151,-7.31,-0.75,-5.86,0.18,0.54,-0.23,-61.21,-23.12,-17.06
12162,-7.31,-0.75,-5.86,0.18,0.54,-0.23,-61.21,-23.12,-17.06
12173,-7.30,-1.55,-6.19,0.58,0.45,-0.12,-61.21,-23.12,-17.06
12184,-7.30,-1.55,-6.19,0.58,0.45,-0.12,-61.21,-23.12,-17.06
12195,-7.80,-2.13,-6.10,0.65,-0.03,-0.04,-58.15,-24.16,-18.85
12206,-7.80,-2.13,-6.10,0.65,-0.03,-0.04,-58.15,-24.16,-18.85
12217,-10.66,-1.85,-4.61,0.62,-0.52,0.08,-58.15,-24.16,-18.85
12228,-10.66,-1.85,-4.61,0.62,-0.52,0.08,-58.15,-24.16,-18.85
12239,-9.33,-2.80,-3.59,0.25,-0.45,-0.01,-58.15,-24.16,-18.85
12250,-8.81,-1.42,-5.30,-0.37,-0.11,0.11,-58.15,-24.16,-18.85
12261,-8.81,-1.42,-5.30,-0.37,-0.11,0.11,-58.15,-24.16,-18.85
12272,-10.38,0.42,-3.61,-0.31,-0.29,-0.07,-58.15,-24.16,-18.85
12376,-7.18,-3.99,-4.88,0.57,0.34,-0.09,-58.86,-24.90,-17.71
12386,-7.18,-3.99,-4.88,0.57,0.34,-0.09,-58.86,-24.90,-17.71
12397,-8.35,-3.04,-5.60,0.14,-0.03,0.15,-58.86,-24.90,-17.71
12408,-8.35,-3.04,-5.60,0.14,-0.03,0.15,-58.86,-24.90,-17.71
12419,-8.90,-1.57,-5.25,-0.25,-0.15,0.25,-58.86,-24.90,-17.71
12430,-8.80,-1.54,-5.19,-0.45,-0.08,0.18,-58.86,-24.90,-17.71
12441,-8.80,-1.54,-5.19,-0.45,-0.08,0.18,-58.86,-24.90,-17.71
12452,-7.95,-0.90,-6.24,-0.60,0.07,0.19,-58.86,-24.90,-18.36
12468,-7.95,-0.90,-6.24,-0.60,0.07,0.19,-58.86,-24.90,-18.36
12474,-8.04,-0.28,-6.13,-0.23,-0.04,0.15,-58.86,-24.90,-18.36
12485,-8.04,-0.28,-6.13,-0.23,-0.04,0.15,-58.86,-24.90,-18.36
12496,-8.37,-1.57,-5.72,0.18,-0.13,0.02,-58.86,-24.90,-18.36
12507,-8.37,-1.57,-5.72,0.18,-0.13,0.02,-58.86,-24.90,-18.36
12611,-8.55,-1.50,-5.55,-0.05,0.08,0.09,-59.33,-24.60,-18.04
12622,-8.55,-1.50,-5.55,-0.05,0.08,0.09,-59.33,-24.60,-18.04
12633,-8.56,-1.38,-5.53,-0.00,0.05,0.10,-59.33,-24.60,-18.04
12644,-8.56,-1.38,-5.53,-0.00,0.05,0.10,-59.33,-24.60,-18.04
12655,-8.30,-1.64,-5.41,0.05,0.05,0.05,-59.33,-24.60,-18.04
12666,-8.30,-1.64,-5.41,0.05,0.05,0.05,-59.33,-24.60,-18.04
12677,-8.41,-2.08,-5.24,-0.02,0.08,0.04,-59.33,-24.60,-18.04
12688,-8.41,-2.08,-5.24,-0.02,0.08,0.04,-59.33,-24.60,-18.04
12699,-8.27,-1.51,-5.64,-0.23,0.17,0.15,-62.39,-23.56,-18.53
12710,-8.13,-0.44,-6.30,-0.30,0.15,0.18,-62.39,-23.56,-18.53
12721,-8.13,-0.44,-6.30,-0.30,0.15,0.18,-62.39,-23.56,-18.53
12732,-8.27,-0.73,-6.02,-0.07,0.02,0.08,-62.39,-23.56,-18.53
12743,-8.27,-0.73,-6.02,-0.07,0.02,0.08,-62.39,-23.56,-18.53
12754,-8.39,-0.88,-5.94,0.06,0.00,0.05,-62.39,-23.56,-18.53
12765,-8.39,-0.88,-5.94,0.06,0.00,0.05,-62.39,-23.56,-18.53
12776,-8.53,-1.35,-5.62,0.20,-0.00,0.05,-62.39,-23.56,-18.53
12878,-7.73,-0.38,-6.60,-0.09,0.23,0.19,-59.09,-23.56,-19.18
12888,-7.73,-0.38,-6.60,-0.09,0.23,0.19,-59.09,-23.56,-19.18
12899,-7.68,0.35,-6.72,0.08,0.07,0.13,-59.09,-23.56,-19.18
12910,-7.89,-0.26,-6.76,0.20,-0.01,0.06,-59.09,-23.56,-19.18
12921,-7.89,-0.26,-6.76,0.20,-0.01,0.06,-59.09,-23.56,-19.18
12932,-7.96,-0.50,-6.46,0.28,-0.17,-0.00,-59.09,-23.56,-19.18
12943,-7.96,-0.50,-6.46,0.28,-0.17,-0.00,-59.09,-23.56,-19.18
12954,-8.86,-1.28,-5.36,0.46,-0.36,-0.14,-59.09,-23.86,-20.16
12965,-8.86,-1.28,-5.36,0.46,-0.36,-0.14,-59.09,-23.86,-20.16
12976,-8.21,-2.12,-5.36,0.37,-0.22,-0.15,-59.09,-23.86,-20.16
12987,-8.21,-2.12,-5.36,0.37,-0.22,-0.15,-59.09,-23.86,-20.16
12998,-8.08,-1.46,-5.70,0.26,-0.15,-0.00,-59.09,-23.86,-20.16
13100,-12.82,0.15,-5.16,1.20,-1.05,-0.21,-60.04,-25.05,-17.55
13110,-12.82,0.15,-5.16,1.20,-1.05,-0.21,-60.04,-25.05,-17.55
13121,-10.04,-3.53,-3.28,0.75,-0.75,-0.39,-60.04,-25.05,-17.55
13132,-8.65,-4.81,-2.90,0.29,-0.34,-0.26,-60.04,-25.05,-17.55
13143,-8.65,-4.81,-2.90,0.29,-0.34,-0.26,-60.04,-25.05,-17.55
13154,-11.68,-2.66,-0.42,0.38,0.08,0.28,-60.04,-25.05,-17.55
13165,-11.68,-2.66,-0.42,0.38,0.08,0.28,-60.04,-25.05,-17.55
13176,-16.64,-2.67,0.91,0.01,1.35,0.18,-60.04,-25.05,-17.55
13187,-16.64,-2.67,0.91,0.01,1.35,0.18,-60.04,-25.05,-17.55
13198,-9.43,-4.78,-5.33,-1.52,2.57,-0.25,-57.92,-25.80,-18.69
13209,-9.43,-4.78,-5.33,-1.52,2.57,-0.25,-57.92,-25.80,-18.69
13220,-6.85,-2.98,-6.53,-2.70,1.95,0.10,-57.92,-25.80,-18.69
13231,-5.44,1.34,-6.13,-2.09,0.89,0.05,-57.92,-25.80,-18.69
13242,-5.44,1.34,-6.13,-2.09,0.89,0.05,-57.92,-25.80,-18.69
13253,-5.80,-1.54,-5.01,-0.40,0.33,-0.66,-57.92,-25.80,-18.69
13264,-5.80,-1.54,-5.01,-0.40,0.33,-0.66,-57.92,-25.80,-18.69
13275,-4.92,-3.83,-5.56,-0.07,-0.04,-0.83,-57.92,-25.80,-18.69
13377,-8.07,3.14,-8.48,0.02,0.30,1.42,-58.39,-23.71,-19.99
13388,-8.07,3.14,-8.48,0.02,0.30,1.42,-58.39,-23.71,-19.99
13399,-6.31,2.53,-7.74,0.78,0.26,0.90,-58.39,-23.71,-19.99
13410,-6.31,2.53,-7.74,0.78,0.26,0.90,-58.39,-23.71,-19.99
13421,-7.28,0.85,-6.38,0.96,-0.02,0.55,-58.39,-23.71,-19.99
13432,-8.85,0.90,-6.43,0.92,0.09,0.45,-58.39,-23.71,-19.99
13443,-8.85,0.90,-6.43,0.92,0.09,0.45,-58.39,-23.71,-19.99
13454,-9.61,2.74,-7.31,0.84,0.21,0.14,-59.09,-20.88,-17.87
13465,-9.61,2.74,-7.31,0.84,0.21,0.14,-59.09,-20.88,-17.87
13476,-8.45,2.77,-6.78,1.08,0.06,-0.57,-59.09,-20.88,-17.87
13487,-8.45,2.77,-6.78,1.08,0.06,-0.57,-59.09,-20.88,-17.87
13498,-7.75,0.65,-7.64,0.21,-0.06,-1.08,-59.09,-20.88,-17.87
13509,-7.75,0.65,-7.64,0.21,-0.06,-1.08,-59.09,-20.88,-17.87
13613,-9.97,-4.18,-3.62,2.83,-0.82,-0.42,-59.09,-25.05,-16.90
13624,-9.97,-4.18,-3.62,2.83,-0.82,-0.42,-59.09,-25.05,-16.90
13635,-11.60,-4.72,-1.63,1.88,-0.48,-0.28,-59.09,-25.05,-16.90
13646,-11.60,-4.72,-1.63,1.88,-0.48,-0.28,-59.09,-25.05,-16.90
13657,-8.72,-4.15,-4.78,0.21,0.18,-0.27,-59.09,-25.05,-16.90
13668,-8.72,-4.15,-4.78,0.21,0.18,-0.27,-59.09,-25.05,-16.90
13679,-7.48,-2.09,-5.55,-0.54,-0.00,-0.09,-59.09,-25.05,-16.90
13690,-7.48,-2.09,-5.55,-0.54,-0.00,-0.09,-59.09,-25.05,-16.90
13701,-8.06,-0.73,-5.98,-0.17,-0.13,-0.04,-59.09,-25.05,-16.90
13712,-9.81,-2.72,-4.34,0.33,-0.29,-0.25,-58.62,-28.62,-14.29
13723,-9.81,-2.72,-4.34,0.33,-0.29,-0.25,-58.62,-28.62,-14.29
13734,-9.12,-3.59,-5.59,0.12,0.02,-0.28,-58.62,-28.62,-14.29
13745,-9.12,-3.59,-5.59,0.12,0.02,-0.28,-58.62,-28.62,-14.29
13756,-7.45,-3.60,-5.33,-0.12,0.05,-0.04,-58.62,-28.62,-14.29
13767,-7.45,-3.60,-5.33,-0.12,0.05,-0.04,-58.62,-28.62,-14.29
13778,-7.14,-2.31,-5.94,-0.26,-0.04,0.28,-58.62,-28.62,-14.29
13918,-8.08,-4.30,-5.42,0.52,0.09,-0.12,-59.80,-28.18,-14.45
13928,-8.08,-4.30,-5.42,0.52,0.09,-0.12,-59.80,-28.18,-14.45
13939,-8.42,-2.90,-4.92,0.41,-0.00,0.15,-59.80,-28.18,-14.45
13950,-8.42,-2.90,-4.92,0.41,-0.00,0.15,-59.80,-28.18,-14.45
13961,-8.44,-3.05,-4.57,0.42,-0.03,0.14,-60.27,-29.37,-12.82
13972,-8.42,-3.40,-4.66,0.35,0.03,0.13,-60.27,-29.37,-12.82
13983,-8.42,-3.40,-4.66,0.35,0.03,0.13,-60.27,-29.37,-12.82
13994,-8.10,-3.07,-5.11,0.17,0.02,0.12,-60.27,-29.37,-12.82
14005,-8.10,-3.07,-5.11,0.17,0.02,0.12,-60.27,-29.37,-12.82
14016,-8.20,-3.34,-4.59,0.09,-0.15,0.09,-60.27,-29.37,-12.82
14027,-8.20,-3.34,-4.59,0.09,-0.15,0.09,-60.27,-29.37,-12.82
14038,-8.73,-2.86,-4.51,0.04,-0.23,0.15,-60.27,-29.37,-12.82
14140,-8.26,-5.51,-3.80,-0.09,-0.09,-0.10,-60.74,-28.77,-11.20
14150,-8.26,-5.51,-3.80,-0.09,-0.09,-0.10,-60.74,-28.77,-11.20
14161,-8.79,-1.59,-4.51,-0.58,-0.15,-0.21,-60.74,-28.77,-11.20
14172,-7.45,-1.74,-4.67,-0.50,-0.24,-0.93,-60.74,-28.77,-11.20
14183,-7.45,-1.74,-4.67,-0.50,-0.24,-0.93,-60.74,-28.77,-11.20
14194,-10.02,-1.15,-6.26,-0.18,0.11,-1.09,-60.74,-28.77,-11.20
14205,-10.02,-1.15,-6.26,-0.18,0.11,-1.09,-60.74,-28.77,-11.20
14216,-8.61,-2.54,-5.93,0.32,0.12,-0.49,-59.56,-29.52,-12.99
14227,-8.61,-2.54,-5.93,0.32,0.12,-0.49,-59.56,-29.52,-12.99
14238,-10.07,-0.59,-5.20,-0.08,-0.08,-0.15,-59.56,-29.52,-12.99
14249,-10.07,-0.59,-5.20,-0.08,-0.08,-0.15,-59.56,-29.52,-12.99
14260,-8.86,-8.95,-4.10,-0.58,-0.23,-0.06,-59.56,-29.52,-12.99
14271,-8.86,-8.95,-4.10,-0.58,-0.23,-0.06,-59.56,-29.52,-12.99
14282,-7.39,-4.63,-4.08,-1.86,-0.43,0.99,-59.56,-29.52,-12.99
14293,-7.60,-0.30,-4.81,-1.72,-0.46,1.04,-59.56,-29.52,-12.99
14304,-7.60,-0.30,-4.81,-1.72,-0.46,1.04,-59.56,-29.52,-12.99
14408,-9.18,-5.29,-2.67,0.07,-0.29,-0.15,-60.74,-27.58,-14.78
14419,-8.46,-2.22,-4.48,-0.53,-0.12,0.03,-60.74,-27.58,-14.78
14430,-8.46,-2.22,-4.48,-0.53,-0.12,0.03,-60.74,-27.58,-14.78
14441,-7.96,0.23,-6.39,-0.37,-0.03,-0.09,-60.74,-27.58,-14.78
14452,-8.36,-0.31,-5.89,0.13,0.11,-0.32,-60.74,-27.58,-14.78
14463,-8.36,-0.31,-5.89,0.13,0.11,-0.32,-60.74,-27.58,-14.78
14474,-9.07,-0.80,-6.18,-0.19,0.18,-0.29,-60.51,-27.43,-14.29
14485,-9.07,-0.80,-6.18,-0.19,0.18,-0.29,-60.51,-27.43,-14.29
14502,-9.13,-4.05,-4.34,-0.33,-0.04,-0.17,-60.51,-27.43,-14.29
14507,-9.13,-4.05,-4.34,-0.33,-0.04,-0.17,-60.51,-27.43,-14.29
14518,-8.91,-6.00,-4.58,-0.82,-0.11,0.23,-60.51,-27.43,-14.29
14529,-8.91,-6.00,-4.58,-0.82,-0.11,0.23,-60.51,-27.43,-14.29
14540,-9.10,-2.05,-4.28,-1.21,-0.36,0.71,-60.51,-27.43,-14.29
14642,-9.16,-1.57,-6.36,0.63,0.28,-0.47,-61.68,-26.09,-16.41
14652,-9.14,-3.28,-4.53,0.06,-0.09,-0.20,-61.68,-26.09,-16.41
14663,-9.14,-3.28,-4.53,0.06,-0.09,-0.20,-61.68,-26.09,-16.41
14674,-9.48,-5.72,-3.93,-0.58,-0.16,0.20,-61.68,-26.09,-16.41
14685,-9.48,-5.72,-3.93,-0.58,-0.16,0.20,-61.68,-26.09,-16.41
14696,-8.54,-1.93,-4.74,-1.07,-0.24,0.73,-61.68,-26.09,-16.41
14707,-8.54,-1.93,-4.74,-1.07,-0.24,0.73,-61.68,-26.09,-16.41
14718,-8.38,-1.11,-4.35,-0.80,-0.28,0.57,-61.68,-24.31,-15.11
14729,-8.38,-1.11,-4.35,-0.80,-0.28,0.57,-61.68,-24.31,-15.11
14740,-8.49,-0.06,-5.43,-0.44,-0.09,0.12,-61.68,-24.31,-15.11
14751,-8.49,-0.06,-5.43,-0.44,-0.09,0.12,-61.68,-24.31,-15.11
14762,-8.74,-1.44,-4.14,-0.07,-0.06,-0.46,-61.68,-24.31,-15.11
14773,-6.98,-1.36,-6.51,0.20,0.44,-0.62,-61.68,-24.31,-15.11
14784,-6.98,-1.36,-6.51,0.20,0.44,-0.62,-61.68,-24.31,-15.11
14795,-8.49,-1.13,-6.23,0.39,0.36,-0.46,-61.68,-24.31,-15.11
14806,-8.49,-1.13,-6.23,0.39,0.36,-0.46,-61.68,-24.31,-15.11
14908,-8.46,-0.76,-5.08,-0.37,-0.03,0.32,-60.04,-26.24,-16.25
14918,-8.10,-1.36,-5.77,-0.14,0.10,-0.01,-60.04,-26.24,-16.25
14929,-8.10,-1.36,-5.77,-0.14,0.10,-0.01,-60.04,-26.24,-16.25
14940,-8.37,-0.64,-3.62,0.06,0.04,-0.28,-60.04,-26.24,-16.25
14951,-8.37,-0.64,-3.62,0.06,0.04,-0.28,-60.04,-26.24,-16.25
14962,-8.60,-2.39,-6.89,0.31,0.46,-0.68,-60.04,-26.24,-16.25
14973,-8.66,-2.25,-5.30,0.37,0.04,-0.34,-62.15,-25.50,-16.41
14984,-8.66,-2.25,-5.30,0.37,0.04,-0.34,-62.15,-25.50,-16.41
14995,-9.39,-1.06,-5.18,-0.21,-0.15,0.06,-62.15,-25.50,-16.41
15006,-9.39,-1.06,-5.18,-0.21,-0.15,0.06,-62.15,-25.50,-16.41
15017,-8.86,-1.87,-6.18,-0.43,-0.16,0.11,-62.15,-25.50,-16.41
15028,-8.86,-1.87,-6.18,-0.43,-0.16,0.11,-62.15,-25.50,-16.41
15130,-13.56,-2.52,1.86,-0.50,-0.29,-0.09,-60.74,-25.20,-15.11
15141,-11.94,-1.16,-2.57,-1.24,1.19,-0.33,-60.74,-25.20,-15.11
15152,-11.94,-1.16,-2.57,-1.24,1.19,-0.33,-60.74,-25.20,-15.11
15163,-4.36,1.10,-7.90,-1.37,1.21,-0.71,-60.74,-25.20,-15.11
15174,-4.79,-2.16,-5.82,-0.50,0.19,-0.87,-60.74,-25.20,-15.11
15185,-4.79,-2.16,-5.82,-0.50,0.19,-0.87,-60.74,-25.20,-15.11
15196,-5.69,-0.79,-9.66,-0.50,0.20,-0.13,-60.74,-25.20,-15.11
15207,-5.69,-0.79,-9.66,-0.50,0.20,-0.13,-60.74,-25.20,-15.11
15218,-5.96,0.53,-7.61,0.07,-0.03,0.47,-59.33,-23.71,-17.71
15229,-5.96,0.53,-7.61,0.07,-0.03,0.47,-59.33,-23.71,-17.71
15240,-7.19,-0.37,-7.43,0.68,-0.09,0.58,-59.33,-23.71,-17.71
15251,-7.19,-0.37,-7.43,0.68,-0.09,0.58,-59.33,-23.71,-17.71
15354,-12.46,-0.59,-3.72,0.51,-0.58,0.45,-61.92,-26.24,-17.55
15365,-12.46,-0.59,-3.72,0.51,-0.58,0.45,-61.92,-26.24,-17.55
15376,-8.42,-3.44,-3.89,0.42,-0.18,-0.07,-61.92,-26.24,-17.55
15387,-8.42,-3.44,-3.89,0.42,-0.18,-0.07,-61.92,-26.24,-17.55
15398,-8.83,-4.34,-4.78,-0.13,-0.04,-0.08,-61.92,-26.24,-17.55
15409,-8.83,-4.34,-4.78,-0.13,-0.04,-0.08,-61.92,-26.24,-17.55
15420,-9.10,0.04,-3.94,-0.68,-0.33,-0.10,-61.92,-26.24,-17.55
15431,-9.10,0.04,-3.94,-0.68,-0.33,-0.10,-61.92,-26.24,-17.55
15442,-7.68,-0.32,-5.51,-0.34,-0.09,-0.74,-61.92,-26.24,-17.55
15453,-7.39,-1.04,-5.42,0.21,0.26,-0.92,-61.92,-26.24,-17.55
15464,-7.39,-1.04,-5.42,0.21,0.26,-0.92,-61.92,-26.24,-17.55
15475,-10.52,0.62,-6.55,0.69,0.60,-0.77,-60.74,-24.90,-16.08
15486,-10.52,0.62,-6.55,0.69,0.60,-0.77,-60.74,-24.90,-16.08
15497,-9.04,-1.62,-5.78,0.79,0.36,-0.46,-60.74,-24.90,-16.08
15508,-9.04,-1.62,-5.78,0.79,0.36,-0.46,-60.74,-24.90,-16.08
15519,-9.41,-4.08,-3.67,0.24,0.14,-0.12,-60.74,-24.90,-16.08
15530,-9.41,-4.08,-3.67,0.24,0.14,-0.12,-60.74,-24.90,-16.08
15672,-8.58,-0.40,-5.47,0.18,0.33,-0.39,-61.45,-24.16,-16.57
15682,-9.27,-0.43,-6.17,-0.09,0.30,-0.19,-61.45,-24.16,-16.57
15693,-8.98,-4.56,-4.84,-0.26,-0.00,0.06,-61.45,-24.16,-16.57
15704,-8.98,-4.56,-4.84,-0.26,-0.00,0.06,-61.45,-24.16,-16.57
15715,-9.03,-2.74,-4.87,-0.63,-0.29,0.48,-61.45,-24.16,-16.57
15726,-9.03,-2.74,-4.87,-0.63,-0.29,0.48,-61.45,-24.16,-16.57
15737,-8.75,-1.02,-4.84,-0.50,-0.38,0.47,-62.15,-24.31,-19.34
15748,-8.75,-1.02,-4.84,-0.50,-0.38,0.47,-62.15,-24.31,-19.34
15759,-8.35,-0.57,-5.14,-0.26,-0.25,0.23,-62.15,-24.31,-19.34
15770,-8.35,-0.57,-5.14,-0.26,-0.25,0.23,-62.15,-24.31,-19.34
15781,-8.50,-0.50,-4.09,-0.03,-0.12,-0.12,-62.15,-24.31,-19.34
15792,-8.50,-0.50,-4.09,-0.03,-0.12,-0.12,-62.15,-24.31,-19.34
15896,-8.58,-0.40,-5.26,0.03,-0.15,0.22,-61.21,-23.71,-16.73
15906,-8.58,-0.40,-5.26,0.03,-0.15,0.22,-61.21,-23.71,-16.73
15917,-8.41,-2.49,-4.00,0.19,0.01,0.18,-61.21,-23.71,-16.73
15928,-8.41,-2.49,-4.00,0.19,0.01,0.18,-61.21,-23.71,-16.73
15939,-11.05,-2.66,-3.32,0.03,0.18,0.25,-61.21,-23.71,-16.73
15950,-11.05,-2.66,-3.32,0.03,0.18,0.25,-61.21,-23.71,-16.73
15961,-12.52,-2.14,-2.71,-0.30,0.38,-0.04,-61.21,-23.71,-16.73
15972,-12.52,-2.14,-2.71,-0.30,0.38,-0.04,-61.21,-23.71,-16.73
15983,-9.01,-2.59,-4.51,-0.79,0.70,-0.30,-59.80,-23.41,-18.04
15994,-7.72,-2.91,-2.83,-0.70,0.20,-0.48,-59.80,-23.41,-18.04
16005,-7.72,-2.91,-2.83,-0.70,0.20,-0.48,-59.80,-23.41,-18.04
16016,-6.94,-0.99,-6.17,-0.59,0.21,-0.32,-59.80,-23.41,-18.04
16117,-9.35,0.02,-5.43,1.18,0.09,0.15,-60.04,-22.97,-18.20
16128,-9.35,0.02,-5.43,1.18,0.09,0.15,-60.04,-22.97,-18.20
16139,-9.11,-3.18,-4.35,1.13,0.06,-0.17,-60.04,-22.97,-18.20
16150,-9.11,-3.18,-4.35,1.13,0.06,-0.17,-60.04,-22.97,-18.20
16161,-9.75,-3.27,-3.65,0.68,-0.01,-0.12,-60.04,-22.97,-18.20
16172,-9.75,-3.27,-3.65,0.68,-0.01,-0.12,-60.04,-22.97,-18.20
16183,-8.97,-2.81,-4.16,0.25,0.07,-0.04,-60.04,-22.97,-18.20
16194,-7.49,-1.57,-5.05,0.06,0.05,-0.03,-60.04,-22.97,-18.20
16205,-7.49,-1.57,-5.05,0.06,0.05,-0.03,-60.04,-22.97,-18.20
16216,-7.02,-0.26,-6.51,0.36,-0.08,-0.16,-60.04,-22.97,-18.20
16227,-7.02,-0.26,-6.51,0.36,-0.08,-0.16,-60.04,-22.97,-18.20
16238,-10.45,-0.67,-4.01,1.02,-0.31,-0.49,-61.45,-24.46,-16.57
16254,-10.45,-0.67,-4.01,1.02,-0.31,-0.49,-61.45,-24.46,-16.57
16260,-7.93,-1.92,-6.08,0.56,0.31,-0.65,-61.45,-24.46,-16.57
16271,-7.93,-1.92,-6.08,0.56,0.31,-0.65,-61.45,-24.46,-16.57
16282,-9.22,-2.07,-5.21,0.28,0.07,-0.23,-61.45,-24.46,-16.57
16293,-9.22,-2.07,-5.21,0.28,0.07,-0.23,-61.45,-24.46,-16.57
16408,-8.50,-0.22,-5.04,-0.08,-0.11,-0.44,-58.62,-23.56,-17.55
16418,-8.80,-0.08,-5.74,0.41,0.18,-0.42,-58.62,-23.56,-17.55
16429,-8.80,-0.08,-5.74,0.41,0.18,-0.42,-58.62,-23.56,-17.55
16440,-8.92,-0.34,-5.49,0.25,0.11,-0.25,-58.62,-23.56,-17.55
16451,-8.92,-0.34,-5.49,0.25,0.11,-0.25,-58.62,-23.56,-17.55
16462,-9.29,-3.94,-5.16,-0.18,0.02,-0.06,-58.62,-23.56,-17.55
16473,-9.29,-3.94,-5.16,-0.18,0.02,-0.06,-58.62,-23.56,-17.55
16484,-8.96,-2.83,-4.60,-0.58,-0.19,0.43,-61.68,-22.82,-17.39
16495,-9.21,-2.83,-4.80,-0.53,-0.31,0.48,-61.68,-22.82,-17.39
16506,-9.21,-2.83,-4.80,-0.53,-0.31,0.48,-61.68,-22.82,-17.39
16517,-8.97,-0.29,-4.59,-0.40,-0.36,0.39,-61.68,-22.82,-17.39
16528,-8.97,-0.29,-4.59,-0.40,-0.36,0.39,-61.68,-22.82,-17.39
16658,-9.70,-3.61,-5.41,-0.94,-0.19,0.71,-58.86,-23.41,-19.02
16669,-9.70,-3.61,-5.41,-0.94,-0.19,0.71,-58.86,-23.41,-19.02
16680,-8.66,0.57,-5.43,-1.25,-0.50,0.82,-58.86,-23.41,-19.02
16691,-8.66,0.57,-5.43,-1.25,-0.50,0.82,-58.86,-23.41,-19.02
16702,-8.35,2.12,-3.94,-0.73,-0.55,0.15,-58.86,-23.41,-19.02
16713,-8.35,2.12,-3.94,-0.73,-0.55,0.15,-58.86,-23.41,-19.02
16724,-7.67,-1.01,-5.24,-0.21,-0.01,-0.79,-58.86,-23.41,-19.02
16735,-7.10,0.50,-6.35,0.02,0.21,-0.78,-61.92,-22.08,-19.83
16746,-7.10,0.50,-6.35,0.02,0.21,-0.78,-61.92,-22.08,-19.83
16757,-8.19,1.38,-4.77,0.79,0.52,-0.83,-61.92,-22.08,-19.83
16768,-8.19,1.38,-4.77,0.79,0.52,-0.83,-61.92,-22.08,-19.83
16779,-10.22,-0.15,-7.11,1.03,0.74,-0.90,-61.92,-22.08,-19.83
16881,-8.44,1.12,-4.35,-0.62,-0.82,0.78,-62.39,-20.88,-19.50
16892,-8.44,1.12,-4.35,-0.62,-0.82,0.78,-62.39,-20.88,-19.50
16903,-8.04,-2.49,-4.84,0.06,-0.35,0.02,-62.39,-20.88,-19.50
16914,-8.56,-0.15,-4.42,-0.33,-0.24,-0.19,-62.39,-20.88,-19.50
16925,-8.56,-0.15,-4.42,-0.33,-0.24,-0.19,-62.39,-20.88,-19.50
16936,-7.82,-0.06,-4.49,-0.09,0.08,-0.48,-62.39,-20.88,-19.50
16947,-7.82,-0.06,-4.49,-0.09,0.08,-0.48,-62.39,-20.88,-19.50
16958,-8.27,0.36,-6.39,0.44,0.40,-0.40,-62.39,-20.88,-19.50
16969,-8.27,0.36,-6.39,0.44,0.40,-0.40,-62.39,-20.88,-19.50
16980,-9.45,0.62,-5.41,0.22,0.20,-0.08,-62.39,-20.88,-19.50
16991,-9.45,0.62,-5.41,0.22,0.20,-0.08,-62.39,-20.88,-19.50
17002,-9.14,-3.21,-5.38,-0.17,0.14,0.11,-60.51,-21.78,-19.18
17013,-9.14,-3.21,-5.38,-0.17,0.14,0.11,-60.51,-21.78,-19.18
17116,-8.86,-0.14,-5.69,-0.62,0.12,-0.55,-61.68,-19.84,-20.32
17126,-8.86,-0.14,-5.69,-0.62,0.12,-0.55,-61.68,-19.84,-20.32
17137,-8.87,0.41,-6.16,-0.45,0.00,-0.24,-61.68,-19.84,-20.32
17148,-8.87,0.41,-6.16,-0.45,0.00,-0.24,-61.68,-19.84,-20.32
17159,-8.90,-0.62,-5.85,-0.32,-0.17,-0.13,-61.68,-19.84,-20.32
17170,-8.90,-0.62,-5.85,-0.32,-0.17,-0.13,-61.68,-19.84,-20.32
17181,-8.73,-1.31,-4.66,-0.33,-0.32,-0.03,-61.68,-19.84,-20.32
17192,-8.73,-1.31,-4.66,-0.33,-0.32,-0.03,-61.68,-19.84,-20.32
17203,-8.52,-1.95,-4.44,-0.26,-0.20,0.14,-61.68,-19.84,-20.32
17214,-8.52,-1.95,-4.44,-0.26,-0.20,0.14,-61.68,-19.84,-20.32
17225,-8.58,-0.44,-4.36,-0.08,0.06,0.42,-61.68,-19.84,-20.32
17236,-9.97,2.77,-4.33,0.11,0.50,0.38,-61.68,-19.25,-19.34
17339,-11.17,0.55,-6.36,1.16,-0.64,0.25,-61.68,-19.25,-19.34
17349,-11.17,0.55,-6.36,1.16,-0.64,0.25,-61.68,-19.25,-19.34
17360,-9.94,-2.91,-3.33,0.86,-0.54,-0.07,-60.51,-21.48,-19.83
17371,-9.94,-2.91,-3.33,0.86,-0.54,-0.07,-60.51,-21.48,-19.83
17382,-9.38,-3.06,-4.47,-0.18,-0.09,0.02,-60.51,-21.48,-19.83
17393,-9.38,-3.06,-4.47,-0.18,-0.09,0.02,-60.51,-21.48,-19.83
17404,-9.73,0.02,-3.93,-0.88,-0.36,0.02,-60.51,-21.48,-19.83
17415,-10.02,-0.45,-3.90,-0.64,-0.19,-0.30,-60.51,-21.48,-19.83
17426,-10.02,-0.45,-3.90,-0.64,-0.19,-0.30,-60.51,-21.48,-19.83
17437,-11.81,-1.57,-3.00,-0.93,0.36,-0.27,-60.51,-21.48,-19.83
17448,-11.81,-1.57,-3.00,-0.93,0.36,-0.27,-60.51,-21.48,-19.83
17459,-4.12,0.89,-8.89,-1.28,1.03,-0.12,-60.51,-21.48,-19.83
17470,-4.12,0.89,-8.89,-1.28,1.03,-0.12,-60.51,-21.48,-19.83
17481,-5.36,1.00,-7.84,-0.20,0.26,-0.45,-60.51,-21.48,-19.83
17492,-5.36,1.00,-7.84,-0.20,0.26,-0.45,-60.51,-21.48,-19.83
17503,-6.25,0.74,-8.41,0.76,-0.22,-0.57,-58.62,-19.10,-22.76
17605,-10.73,2.87,-4.04,-0.13,0.45,0.55,-58.62,-19.10,-22.76
17615,-6.26,-1.22,-7.15,0.47,1.15,-0.25,-60.51,-19.99,-21.46
17626,-6.26,-1.22,-7.15,0.47,1.15,-0.25,-60.51,-19.99,-21.46
17637,-6.64,-2.21,-6.91,0.78,0.57,-0.19,-60.51,-19.99,-21.46
17648,-6.64,-2.21,-6.91,0.78,0.57,-0.19,-60.51,-19.99,-21.46
17659,-7.98,-2.42,-5.44,0.84,0.05,0.15,-60.51,-19.99,-21.46
17670,-7.98,-2.42,-5.44,0.84,0.05,0.15,-60.51,-19.99,-21.46
17681,-8.62,-1.19,-5.30,0.61,-0.06,0.39,-60.51,-19.99,-21.46
17692,-8.62,-1.19,-5.30,0.61,-0.06,0.39,-60.51,-19.99,-21.46
17703,-8.75,-0.59,-4.60,0.50,-0.03,0.47,-60.51,-19.99,-21.46
17714,-8.75,-0.59,-4.60,0.50,-0.03,0.47,-60.51,-19.99,-21.46
17725,-7.66,0.30,-6.25,0.33,0.18,0.37,-60.51,-19.99,-21.46
17736,-8.11,-0.30,-5.90,0.75,0.09,0.16,-60.27,-21.03,-19.67
17842,-9.30,1.49,-3.47,-0.60,-0.24,0.13,-60.27,-21.03,-19.67
17852,-9.30,1.49,-3.47,-0.60,-0.24,0.13,-60.27,-21.03,-19.67
17863,-8.53,-0.51,-5.45,-0.08,-0.06,-0.54,-60.27,-21.03,-19.67
17874,-8.53,-0.51,-5.45,-0.08,-0.06,-0.54,-60.27,-21.03,-19.67
17885,-8.48,-0.92,-6.02,-0.11,-0.04,-0.33,-60.27,-20.74,-20.32
17896,-8.97,-2.64,-6.12,-0.35,-0.16,-0.09,-60.27,-20.74,-20.32
17907,-8.97,-2.64,-6.12,-0.35,-0.16,-0.09,-60.27,-20.74,-20.32
17918,-9.23,-3.71,-4.08,-0.45,-0.22,0.25,-60.27,-20.74,-20.32
17929,-9.23,-3.71,-4.08,-0.45,-0.22,0.25,-60.27,-20.74,-20.32
17940,-14.47,0.40,-0.32,-0.78,-0.00,0.75,-60.27,-20.74,-20.32
17951,-14.47,0.40,-0.32,-0.78,-0.00,0.75,-60.27,-20.74,-20.32
17962,-13.06,-0.02,-2.92,-1.03,1.37,0.32,-60.27,-20.74,-20.32
17973,-13.06,-0.02,-2.92,-1.03,1.37,0.32,-60.27,-20.74,-20.32
17984,-8.79,-0.57,-6.01,-1.43,1.78,-0.26,-60.27,-20.74,-20.32
17995,-5.49,-0.40,-7.14,-1.44,1.12,-0.59,-60.27,-20.74,-20.32
18006,-5.49,-0.40,-7.14,-1.44,1.12,-0.59,-56.98,-18.06,-23.25
18109,-7.13,2.64,-8.39,-0.38,0.16,1.00,-56.98,-18.06,-23.25
18119,-6.48,2.44,-7.11,0.34,0.31,1.05,-58.15,-19.40,-21.13
18130,-6.48,2.44,-7.11,0.34,0.31,1.05,-58.15,-19.40,-21.13
18141,-8.03,2.22,-7.70,1.25,0.29,0.95,-58.15,-19.40,-21.13
18152,-8.03,2.22,-7.70,1.25,0.29,0.95,-58.15,-19.40,-21.13
18163,-9.29,-0.36,-6.48,1.92,0.09,0.71,-58.15,-19.40,-21.13
18174,-9.29,-0.36,-6.48,1.92,0.09,0.71,-58.15,-19.40,-21.13
18185,-8.85,-1.33,-5.24,1.57,-0.07,0.51,-58.15,-19.40,-21.13
18196,-8.55,-0.04,-6.14,0.81,-0.07,0.30,-58.15,-19.40,-21.13
18207,-8.55,-0.04,-6.14,0.81,-0.07,0.30,-58.15,-19.40,-21.13
18218,-7.84,-0.75,-6.67,0.50,0.00,0.14,-58.15,-19.40,-21.13
18229,-7.84,-0.75,-6.67,0.50,0.00,0.14,-58.15,-19.40,-21.13
18372,-8.45,-0.37,-5.83,0.05,-0.13,-0.27,-58.62,-21.18,-20.48
18382,-9.03,-0.80,-5.00,0.20,-0.29,-0.31,-59.56,-22.67,-20.16
18393,-9.03,-0.80,-5.00,0.20,-0.29,-0.31,-59.56,-22.67,-20.16
18404,-9.31,-1.15,-4.28,0.13,-0.08,-0.21,-59.56,-22.67,-20.16
18415,-9.31,-1.15,-4.28,0.13,-0.08,-0.21,-59.56,-22.67,-20.16
18426,-7.91,-1.30,-5.82,0.01,0.26,-0.15,-59.56,-22.67,-20.16
18437,-7.78,-1.31,-6.36,0.24,0.15,-0.10,-59.56,-22.67,-20.16
18448,-7.78,-1.31,-6.36,0.24,0.15,-0.10,-59.56,-22.67,-20.16
18459,-8.74,-1.65,-5.15,0.55,0.00,-0.03,-59.56,-22.67,-20.16
18470,-8.74,-1.65,-5.15,0.55,0.00,-0.03,-59.56,-22.67,-20.16
18481,-8.48,-1.99,-5.40,0.42,0.17,0.05,-59.56,-22.67,-20.16
18492,-8.48,-1.99,-5.40,0.42,0.17,0.05,-59.56,-22.67,-20.16
18503,-7.92,-1.35,-6.15,0.15,0.24,0.11,-59.33,-23.41,-19.67
18606,-8.38,-1.51,-5.46,-0.07,0.01,0.07,-59.33,-23.41,-19.67
18616,-8.26,-1.37,-5.57,-0.02,-0.06,0.01,-58.39,-24.60,-19.34
18627,-8.26,-1.37,-5.57,-0.02,-0.06,0.01,-58.39,-24.60,-19.34
18638,-8.79,-1.91,-5.40,0.14,-0.11,0.01,-58.39,-24.60,-19.34
18649,-8.79,-1.91,-5.40,0.14,-0.11,0.01,-58.39,-24.60,-19.34
18660,-8.53,-1.88,-5.78,-0.04,-0.03,0.16,-58.39,-24.60,-19.34
18671,-8.53,-1.88,-5.78,-0.04,-0.03,0.16,-58.39,-24.60,-19.34
18682,-8.26,-1.51,-6.13,-0.19,-0.15,0.26,-58.39,-24.60,-19.34
18693,-8.26,-1.51,-6.13,-0.19,-0.15,0.26,-58.39,-24.60,-19.34
18704,-8.67,-1.35,-5.20,0.02,-0.29,0.29,-58.39,-24.60,-19.34
18715,-8.67,-1.35,-5.20,0.02,-0.29,0.29,-58.39,-24.60,-19.34
18726,-8.38,-0.93,-5.18,0.08,-0.16,0.30,-58.39,-24.60,-19.34
18737,-8.48,-0.71,-5.65,0.23,-0.02,0.27,-58.39,-24.60,-19.34
18748,-8.48,-0.71,-5.65,0.23,-0.02,0.27,-58.39,-24.60,-19.34
18759,-8.37,-1.36,-5.63,0.40,-0.04,0.15,-58.39,-24.90,-18.04
18770,-8.37,-1.36,-5.63,0.40,-0.04,0.15,-58.39,-24.90,-18.04
18873,-8.35,-0.40,-5.48,-0.29,0.24,0.06,-58.39,-24.90,-18.04
18883,-9.26,-1.47,-5.58,0.16,0.09,-0.31,-57.92,-23.71,-18.69
18894,-9.26,-1.47,-5.58,0.16,0.09,-0.31,-57.92,-23.71,-18.69
18905,-8.77,-2.75,-4.85,0.08,-0.07,-0.52,-57.92,-23.71,-18.69
18916,-7.39,-2.28,-5.03,-0.29,-0.10,-0.45,-57.92,-23.71,-18.69
18927,-7.39,-2.28,-5.03,-0.29,-0.10,-0.45,-57.92,-23.71,-18.69
18938,-6.03,-1.20,-6.64,-0.57,-0.29,-0.47,-57.92,-23.71,-18.69
18949,-6.03,-1.20,-6.64,-0.57,-0.29,-0.47,-57.92,-23.71,-18.69
18960,-6.47,-0.36,-7.50,-0.14,-0.85,-0.45,-57.92,-23.71,-18.69
18971,-6.47,-0.36,-7.50,-0.14,-0.85,-0.45,-57.92,-23.71,-18.69
18982,-13.15,0.14,-2.58,0.42,-1.21,-0.12,-57.92,-23.71,-18.69
18993,-13.15,0.14,-2.58,0.42,-1.21,-0.12,-57.92,-23.71,-18.69
19100,-7.04,0.46,-5.87,-0.93,0.79,-0.63,-60.74,-25.50,-18.04
19111,-7.04,0.46,-5.87,-0.93,0.79,-0.63,-60.74,-25.50,-18.04
19122,-5.22,-0.76,-7.07,-0.10,0.80,-1.06,-60.74,-25.50,-18.04
19133,-5.22,-0.76,-7.07,-0.10,0.80,-1.06,-60.74,-25.50,-18.04
19144,-7.19,-1.67,-7.54,0.27,0.35,-0.75,-59.33,-23.12,-18.36
19155,-7.19,-1.67,-7.54,0.27,0.35,-0.75,-59.33,-23.12,-18.36
19166,-7.31,-0.21,-6.88,0.12,-0.22,-0.29,-59.33,-23.12,-18.36
19177,-8.62,-0.81,-5.42,0.36,-0.62,-0.27,-59.33,-23.12,-18.36
19188,-8.62,-0.81,-5.42,0.36,-0.62,-0.27,-59.33,-23.12,-18.36
19199,-9.76,-1.90,-3.81,0.38,-0.48,-0.35,-59.33,-23.12,-18.36
19210,-9.76,-1.90,-3.81,0.38,-0.48,-0.35,-59.33,-23.12,-18.36
19221,-8.90,-1.20,-4.86,0.28,0.16,-0.26,-59.33,-23.12,-18.36
19232,-8.90,-1.20,-4.86,0.28,0.16,-0.26,-59.33,-23.12,-18.36
19334,-8.86,-1.57,-5.00,-0.96,-0.23,0.48,-58.86,-24.01,-17.39
19344,-7.97,0.46,-5.38,-0.68,-0.22,0.15,-58.86,-24.01,-17.39
19355,-7.97,0.46,-5.38,-0.68,-0.22,0.15,-58.86,-24.01,-17.39
19366,-8.47,1.21,-4.94,0.02,-0.16,-0.40,-58.86,-24.01,-17.39
19377,-7.70,-1.86,-5.51,0.67,0.28,-0.72,-56.50,-23.71,-19.34
19388,-7.70,-1.86,-5.51,0.67,0.28,-0.72,-56.50,-23.71,-19.34
19399,-9.38,-1.28,-5.72,0.35,0.24,-0.40,-56.50,-23.71,-19.34
19410,-9.38,-1.28,-5.72,0.35,0.24,-0.40,-56.50,-23.71,-19.34
19421,-9.20,-2.49,-5.10,-0.08,-0.05,-0.12,-56.50,-23.71,-19.34
19432,-9.20,-2.49,-5.10,-0.08,-0.05,-0.12,-56.50,-23.71,-19.34
19443,-8.82,-5.24,-4.84,-0.68,-0.14,0.22,-56.50,-23.71,-19.34
19454,-8.82,-5.24,-4.84,-0.68,-0.14,0.22,-56.50,-23.71,-19.34
19465,-8.37,-1.33,-4.81,-1.27,-0.43,0.71,-56.50,-23.71,-19.34
19476,-8.37,-1.33,-4.81,-1.27,-0.43,0.71,-56.50,-23.71,-19.34
19487,-8.58,0.03,-4.85,-1.08,-0.43,0.50,-56.50,-23.71,-19.34
19498,-8.40,0.00,-5.22,-0.63,-0.20,0.04,-56.50,-23.71,-19.34
19602,-9.83,-3.10,-4.59,-0.17,-0.10,0.03,-60.51,-22.37,-20.81
19612,-9.83,-3.10,-4.59,-0.17,-0.10,0.03,-60.51,-22.37,-20.81
19623,-8.89,-1.63,-5.27,-0.55,-0.26,0.28,-60.51,-22.37,-20.81
19634,-8.89,-1.63,-5.27,-0.55,-0.26,0.28,-60.51,-22.37,-20.81
19645,-8.58,-0.05,-4.62,-0.50,-0.40,0.35,-59.33,-22.22,-20.64
19656,-8.58,-0.05,-4.62,-0.50,-0.40,0.35,-59.33,-22.22,-20.64
19667,-7.80,-1.53,-5.79,-0.27,-0.12,0.11,-59.33,-22.22,-20.64
19678,-7.82,-0.95,-6.02,-0.23,-0.01,0.08,-59.33,-22.22,-20.64
19689,-7.82,-0.95,-6.02,-0.23,-0.01,0.08,-59.33,-22.22,-20.64
19700,-7.88,0.06,-5.43,-0.12,0.12,-0.09,-59.33,-22.22,-20.64
19711,-7.88,0.06,-5.43,-0.12,0.12,-0.09,-59.33,-22.22,-20.64
19722,-8.80,-0.68,-6.24,0.12,0.35,-0.16,-59.33,-22.22,-20.64
19822,-8.27,1.64,-6.85,-0.63,-0.01,-0.08,-59.56,-21.48,-19.18
19832,-8.27,1.64,-6.85,-0.63,-0.01,-0.08,-59.56,-21.48,-19.18
19843,-7.31,2.13,-6.46,-0.11,-0.01,-0.24,-59.56,-21.48,-19.18
19854,-7.31,2.13,-6.46,-0.11,-0.01,-0.24,-59.56,-21.48,-19.18
19865,-9.23,0.44,-5.25,0.35,0.05,-0.37,-59.56,-21.48,-19.18
19876,-9.23,0.44,-5.25,0.35,0.05,-0.37,-59.56,-21.48,-19.18
19887,-8.92,-3.98,-4.05,0.37,0.15,-0.22,-59.56,-21.48,-19.18
19898,-9.40,-2.59,-5.44,-0.37,-0.02,0.37,-60.51,-21.78,-19.50
19909,-9.40,-2.59,-5.44,-0.37,-0.02,0.37,-60.51,-21.78,-19.50
19920,-8.92,-1.00,-4.76,-0.61,-0.27,0.53,-60.51,-21.78,-19.50
19931,-8.92,-1.00,-4.76,-0.61,-0.27,0.53,-60.51,-21.78,-19.50
19942,-8.63,-1.11,-6.04,-0.56,-0.24,0.36,-60.51,-21.78,-19.50
19953,-8.63,-1.11,-6.04,-0.56,-0.24,0.36,-60.51,-21.78,-19.50
19964,-9.26,0.42,-4.06,-0.62,-0.33,0.12,-60.51,-21.78,-19.50
19975,-9.26,0.42,-4.06,-0.62,-0.33,0.12,-60.51,-21.78,-19.50
19986,-9.14,-1.40,-3.41,-0.33,-0.08,-0.45,-60.51,-21.78,-19.50
19997,-8.44,0.47,-6.48,-0.23,0.49,-0.40,-60.51,-21.78,-19.50
20099,-9.66,-0.81,-4.64,0.06,-0.09,0.35,-60.51,-19.99,-21.46
20110,-9.66,-0.81,-4.64,0.06,-0.09,0.35,-60.51,-19.99,-21.46
20121,-7.87,-4.35,-5.33,0.04,-0.25,0.30,-60.51,-19.99,-21.46
20132,-7.87,-4.35,-5.33,0.04,-0.25,0.30,-60.51,-19.99,-21.46
20143,-9.10,-3.14,-4.74,-0.17,-0.50,0.43,-60.74,-19.55,-21.30
20154,-9.10,-3.14,-4.74,-0.17,-0.50,0.43,-60.74,-19.55,-21.30
20165,-9.90,1.13,-2.11,-0.57,-0.49,0.21,-60.74,-19.55,-21.30
20176,-9.90,1.13,-2.11,-0.57,-0.49,0.21,-60.74,-19.55,-21.30
20187,-13.48,-1.25,-1.10,-0.65,-0.11,-0.84,-60.74,-19.55,-21.30
20198,-13.22,-0.60,-2.09,-0.85,0.81,-1.44,-60.74,-19.55,-21.30
20209,-13.22,-0.60,-2.09,-0.85,0.81,-1.44,-60.74,-19.55,-21.30
20220,-6.61,-2.37,-4.73,-0.27,1.71,-2.10,-60.74,-19.55,-21.30
20325,-11.10,1.10,-5.47,1.11,-0.46,2.59,-55.56,-20.44,-22.93
20335,-11.10,1.10,-5.47,1.11,-0.46,2.59,-55.56,-20.44,-22.93
20346,-11.54,2.19,-5.23,0.85,-0.38,2.04,-55.56,-20.44,-22.93
20357,-11.54,2.19,-5.23,0.85,-0.38,2.04,-55.56,-20.44,-22.93
20368,-8.64,0.27,-4.32,1.02,-0.09,1.18,-55.56,-20.44,-22.93
20379,-9.25,-0.26,-5.79,0.98,0.06,0.88,-55.56,-20.44,-22.93
20390,-9.25,-0.26,-5.79,0.98,0.06,0.88,-55.56,-20.44,-22.93
20401,-9.40,2.39,-5.50,0.89,0.08,0.92,-58.15,-19.69,-21.13
20412,-9.40,2.39,-5.50,0.89,0.08,0.92,-58.15,-19.69,-21.13
20423,-9.01,2.16,-4.09,1.17,-0.06,0.19,-58.15,-19.69,-21.13
20434,-9.01,2.16,-4.09,1.17,-0.06,0.19,-58.15,-19.69,-21.13
20445,-8.32,0.16,-6.46,1.28,0.19,-0.49,-58.15,-19.69,-21.13
20456,-8.32,0.16,-6.46,1.28,0.19,-0.49,-58.15,-19.69,-21.13
20467,-8.55,-2.49,-5.76,1.23,-0.10,-0.62,-58.15,-19.69,-21.13
20478,-9.12,-1.84,-4.96,0.91,-0.19,-0.38,-58.15,-19.69,-21.13
20489,-9.12,-1.84,-4.96,0.91,-0.19,-0.38,-58.15,-19.69,-21.13
20592,-8.73,-2.96,-4.18,0.51,-0.40,-0.30,-56.50,-22.22,-19.34
20602,-9.90,-2.86,-3.62,0.26,-0.18,-0.07,-56.50,-22.22,-19.34
20613,-9.90,-2.86,-3.62,0.26,-0.18,-0.07,-56.50,-22.22,-19.34
20624,-9.02,-2.75,-3.56,-0.03,0.07,-0.03,-56.50,-22.22,-19.34
20635,-9.02,-2.75,-3.56,-0.03,0.07,-0.03,-56.50,-22.22,-19.34
20646,-8.34,-1.92,-5.33,-0.24,0.18,0.14,-60.04,-24.46,-19.50
20657,-8.34,-1.92,-5.33,-0.24,0.18,0.14,-60.04,-24.46,-19.50
20668,-8.47,-0.63,-5.79,-0.28,0.07,0.27,-60.04,-24.46,-19.50
20679,-8.34,-1.25,-5.75,0.01,-0.04,0.10,-60.04,-24.46,-19.50
20690,-8.34,-1.25,-5.75,0.01,-0.04,0.10,-60.04,-24.46,-19.50
20701,-8.20,-2.09,-5.67,0.15,-0.08,0.02,-60.04,-24.46,-19.50
20712,-8.20,-2.09,-5.67,0.15,-0.08,0.02,-60.04,-24.46,-19.50
20723,-8.67,-1.61,-5.31,0.17,-0.08,0.17,-60.04,-24.46,-19.50
20826,-7.84,-1.06,-6.14,-0.06,0.12,0.04,-60.27,-23.71,-19.02
20836,-7.84,-1.06,-6.14,-0.06,0.12,0.04,-60.27,-23.71,-19.02
20847,-8.50,-1.28,-5.57,0.17,-0.07,-0.02,-60.27,-23.71,-19.02
20858,-8.96,-1.78,-5.27,0.21,-0.07,-0.05,-60.27,-23.71,-19.02
20869,-8.96,-1.78,-5.27,0.21,-0.07,-0.05,-60.27,-23.71,-19.02
20880,-8.67,-1.54,-5.23,0.10,0.02,0.01,-60.27,-23.71,-19.02
20891,-8.67,-1.54,-5.23,0.10,0.02,0.01,-60.27,-23.71,-19.02
20902,-8.16,-1.14,-5.56,0.05,0.07,0.07,-58.62,-23.27,-19.83
20913,-8.16,-1.14,-5.56,0.05,0.07,0.07,-58.62,-23.27,-19.83
20924,-8.20,-0.93,-6.23,0.10,0.04,0.10,-58.62,-23.27,-19.83
20935,-8.20,-0.93,-6.23,0.10,0.04,0.10,-58.62,-23.27,-19.83
20946,-8.63,-1.24,-5.30,0.32,-0.10,0.05,-58.62,-23.27,-19.83
20957,-8.63,-1.24,-5.30,0.32,-0.10,0.05,-58.62,-23.27,-19.83
20968,-8.26,-1.97,-5.55,0.33,-0.10,-0.01,-58.62,-23.27,-19.83
20979,-8.33,-2.16,-5.09,0.24,-0.21,0.07,-58.62,-23.27,-19.83
20990,-8.33,-2.16,-5.09,0.24,-0.21,0.07,-58.62,-23.27,-19.83
21093,-8.73,-1.39,-3.73,-0.40,-0.20,-0.57,-60.27,-24.60,-18.04
21103,-7.45,-1.40,-6.17,-0.46,0.05,-0.79,-60.27,-24.60,-18.04
21114,-7.45,-1.40,-6.17,-0.46,0.05,-0.79,-60.27,-24.60,-18.04
21125,-8.67,0.29,-5.62,-0.11,0.30,-0.66,-60.27,-24.60,-18.04
21136,-8.67,0.29,-5.62,-0.11,0.30,-0.66,-60.27,-24.60,-18.04
21147,-9.80,0.17,-6.36,0.34,0.40,-0.59,-60.27,-24.60,-18.04
21158,-9.80,0.17,-6.36,0.34,0.40,-0.59,-60.27,-24.60,-18.04
21169,-8.85,-2.23,-4.90,0.22,0.04,-0.44,-57.68,-25.35,-19.18
21180,-9.11,-6.17,-4.13,-0.57,-0.15,-0.11,-57.68,-25.35,-19.18
21191,-9.11,-6.17,-4.13,-0.57,-0.15,-0.11,-57.68,-25.35,-19.18
21202,-9.18,-3.57,-6.34,-1.55,-0.18,0.64,-57.68,-25.35,-19.18
21213,-9.18,-3.57,-6.34,-1.55,-0.18,0.64,-57.68,-25.35,-19.18
21325,-9.14,-0.10,-4.58,-1.40,-0.51,0.80,-57.68,-25.35,-19.18
21326,-9.10,-0.97,-5.83,0.34,0.29,-0.28,-59.33,-22.52,-18.36
21337,-9.10,-0.97,-5.83,0.34,0.29,-0.28,-59.33,-22.52,-18.36
21348,-9.33,-2.83,-4.97,-0.16,0.01,-0.08,-59.33,-22.52,-18.36
21359,-8.91,-3.78,-5.75,-0.69,-0.11,0.23,-59.33,-22.52,-18.36
21370,-8.91,-3.78,-5.75,-0.69,-0.11,0.23,-59.33,-22.52,-18.36
21381,-8.98,-1.00,-5.23,-0.95,-0.38,0.53,-59.33,-22.52,-18.36
21392,-8.98,-1.00,-5.23,-0.95,-0.38,0.53,-59.33,-22.52,-18.36
21403,-8.16,-0.88,-5.26,-0.70,-0.35,0.34,-59.09,-22.37,-19.50
21414,-8.16,-0.88,-5.26,-0.70,-0.35,0.34,-59.09,-22.37,-19.50
21425,-8.63,0.10,-4.86,-0.35,-0.22,0.02,-59.09,-22.37,-19.50
21436,-8.63,0.10,-4.86,-0.35,-0.22,0.02,-59.09,-22.37,-19.50
21447,-8.04,-0.94,-5.42,0.05,-0.03,-0.36,-59.09,-22.37,-19.50
21458,-8.04,-0.94,-5.42,0.05,-0.03,-0.36,-59.09,-22.37,-19.50
21469,-8.28,-0.28,-5.05,0.46,0.20,-0.35,-59.09,-22.37,-19.50
21480,-9.01,-1.26,-6.06,0.53,0.36,-0.38,-59.09,-22.37,-19.50
21491,-9.01,-1.26,-6.06,0.53,0.36,-0.38,-59.09,-22.37,-19.50
21593,-8.23,-1.37,-5.26,-0.27,-0.22,0.19,-58.39,-22.52,-20.32
21604,-8.53,-0.73,-4.87,-0.06,-0.09,0.07,-58.39,-22.52,-20.32
21615,-8.53,-0.73,-4.87,-0.06,-0.09,0.07,-58.39,-22.52,-20.32
21626,-8.43,-0.80,-4.50,0.07,0.09,-0.17,-58.39,-22.52,-20.32
21637,-8.43,-0.80,-4.50,0.07,0.09,-0.17,-58.39,-22.52,-20.32
21648,-8.41,-1.49,-5.41,0.11,0.32,-0.26,-58.39,-22.52,-20.32
21659,-9.08,-0.74,-5.69,0.05,0.23,-0.16,-59.80,-22.22,-19.34
21670,-9.08,-0.74,-5.69,0.05,0.23,-0.16,-59.80,-22.22,-19.34
21681,-9.29,-1.89,-5.32,-0.15,-0.01,-0.08,-59.80,-22.22,-19.34
21692,-9.29,-1.89,-5.32,-0.15,-0.01,-0.08,-59.80,-22.22,-19.34
21703,-8.53,-2.93,-5.34,-0.53,-0.20,0.13,-59.80,-22.22,-19.34
21714,-8.53,-2.93,-5.34,-0.53,-0.20,0.13,-59.80,-22.22,-19.34
21817,-8.16,0.03,-5.35,0.03,0.08,-0.30,-58.86,-21.63,-19.02
21828,-8.95,-0.03,-5.79,0.10,0.29,-0.25,-58.86,-21.63,-19.02
21839,-9.08,-1.37,-5.76,0.04,0.24,-0.04,-58.86,-21.63,-19.02
21850,-9.08,-1.37,-5.76,0.04,0.24,-0.04,-58.86,-21.63,-19.02
21861,-9.17,-3.99,-4.16,-0.05,-0.06,0.13,-58.86,-21.63,-19.02
21872,-9.17,-3.99,-4.16,-0.05,-0.06,0.13,-58.86,-21.63,-19.02
21883,-9.34,-4.50,-4.77,-0.32,-0.21,0.35,-58.86,-21.63,-19.02
21894,-9.34,-4.50,-4.77,-0.32,-0.21,0.35,-58.86,-21.63,-19.02
21905,-9.40,-0.77,-3.58,-0.75,-0.43,0.58,-59.09,-20.59,-20.81
21916,-9.40,-0.77,-3.58,-0.75,-0.43,0.58,-59.09,-20.59,-20.81
21927,-13.10,1.16,-1.15,-0.91,-0.18,0.14,-59.09,-20.59,-20.81
21938,-13.10,1.16,-1.15,-0.91,-0.18,0.14,-59.09,-20.59,-20.81
21949,-8.15,4.52,-9.01,-1.48,0.86,-0.63,-59.09,-20.59,-20.81
21960,-7.18,-3.38,-3.35,-0.45,0.57,-1.52,-59.09,-20.59,-20.81
21971,-7.18,-3.38,-3.35,-0.45,0.57,-1.52,-59.09,-20.59,-20.81
21982,-4.63,-4.02,-8.13,-0.52,0.88,-0.78,-59.09,-20.59,-20.81
22127,-7.66,1.86,-6.61,-0.01,0.32,-0.09,-58.39,-19.84,-22.60
22137,-7.66,1.86,-6.61,-0.01,0.32,-0.09,-58.39,-19.84,-22.60
22148,-9.38,0.12,-5.05,0.44,0.15,-0.20,-58.39,-19.84,-22.60
22159,-9.38,0.12,-5.05,0.44,0.15,-0.20,-58.39,-19.84,-22.60
22170,-9.47,-2.69,-4.68,0.11,0.16,-0.06,-60.27,-20.44,-19.67
22181,-8.84,-3.67,-4.56,-0.82,-0.08,0.42,-60.27,-20.44,-19.67
22192,-8.84,-3.67,-4.56,-0.82,-0.08,0.42,-60.27,-20.44,-19.67
22203,-8.86,-2.89,-4.33,-1.22,-0.28,0.65,-60.27,-20.44,-19.67
22214,-8.86,-2.89,-4.33,-1.22,-0.28,0.65,-60.27,-20.44,-19.67
22225,-8.78,-1.71,-5.35,-1.14,-0.27,0.53,-60.27,-20.44,-19.67
22236,-8.78,-1.71,-5.35,-1.14,-0.27,0.53,-60.27,-20.44,-19.67
22247,-8.48,1.05,-4.14,-0.89,-0.28,0.17,-60.27,-20.44,-19.67
22258,-8.48,1.05,-4.14,-0.89,-0.28,0.17,-60.27,-20.44,-19.67
22361,-7.94,-1.46,-4.94,1.24,-1.21,1.14,-60.27,-19.25,-21.95
22371,-7.94,-1.46,-4.94,1.24,-1.21,1.14,-60.27,-19.25,-21.95
22382,-6.57,2.35,-6.21,1.53,-1.12,1.76,-60.27,-19.25,-21.95
22393,-6.57,2.35,-6.21,1.53,-1.12,1.76,-60.27,-19.25,-21.95
22404,-8.59,2.83,-3.76,1.14,-0.77,1.07,-60.27,-19.25,-21.95
22415,-8.59,2.83,-3.76,1.14,-0.77,1.07,-60.27,-19.25,-21.95
22426,-7.63,-3.49,-3.23,0.21,0.10,-0.33,-60.27,-19.25,-21.95
22437,-7.63,-3.49,-3.23,0.21,0.10,-0.33,-60.27,-19.25,-21.95
22448,-9.05,-2.95,-4.44,-0.49,0.60,-0.53,-60.27,-19.25,-21.95
22459,-9.05,-2.95,-4.44,-0.49,0.60,-0.53,-60.27,-19.25,-21.95
22470,-9.75,-1.10,-4.10,0.27,0.62,-0.73,-60.27,-19.25,-21.95
22481,-9.18,-1.33,-4.87,1.05,0.59,-1.11,-60.27,-19.25,-21.95
22588,-9.68,-4.42,-4.82,-0.59,0.14,0.00,-59.80,-21.93,-19.99
22598,-9.68,-4.42,-4.82,-0.59,0.14,0.00,-59.80,-21.93,-19.99
22609,-8.99,-0.83,-6.62,-1.50,-0.16,0.64,-59.80,-21.93,-19.99
22620,-8.83,0.81,-5.11,-1.25,-0.52,0.68,-59.80,-21.93,-19.99
22631,-8.83,0.81,-5.11,-1.25,-0.52,0.68,-59.80,-21.93,-19.99
22642,-7.83,-1.34,-6.20,-0.57,-0.26,0.14,-59.80,-21.93,-19.99
22653,-7.83,-1.34,-6.20,-0.57,-0.26,0.14,-59.80,-21.93,-19.99
22664,-8.67,-0.31,-4.85,-0.54,-0.20,-0.02,-60.04,-19.99,-19.50
22675,-8.67,-0.31,-4.85,-0.54,-0.20,-0.02,-60.04,-19.99,-19.50
22686,-8.17,-0.75,-4.27,-0.36,0.02,-0.41,-60.04,-19.99,-19.50
22697,-8.17,-0.75,-4.27,-0.36,0.02,-0.41,-60.04,-19.99,-19.50
22708,-8.42,0.10,-5.69,0.40,0.39,-0.52,-60.04,-19.99,-19.50
22815,-8.52,-0.83,-5.25,-0.75,-0.34,0.43,-58.86,-20.14,-20.32
22825,-8.32,-1.16,-5.24,-0.30,-0.25,0.18,-58.86,-20.14,-20.32
22836,-8.32,-1.16,-5.24,-0.30,-0.25,0.18,-58.86,-20.14,-20.32
22847,-8.33,0.61,-5.14,-0.20,-0.16,-0.11,-58.86,-20.14,-20.32
22858,-8.33,0.61,-5.14,-0.20,-0.16,-0.11,-58.86,-20.14,-20.32
22869,-8.10,-0.83,-4.93,0.21,0.05,-0.48,-58.86,-20.14,-20.32
22880,-8.42,-0.22,-4.68,0.68,0.37,-0.47,-58.86,-20.14,-20.32
22891,-8.42,-0.22,-4.68,0.68,0.37,-0.47,-58.86,-20.14,-20.32
22902,-10.01,-0.99,-5.10,0.60,0.41,-0.35,-58.86,-20.14,-20.32
22913,-10.01,-0.99,-5.10,0.60,0.41,-0.35,-58.86,-20.14,-20.32
22924,-9.42,-2.42,-3.83,0.00,0.05,-0.07,-59.09,-20.88,-20.81
22935,-9.42,-2.42,-3.83,0.00,0.05,-0.07,-59.09,-20.88,-20.81
22946,-9.33,-1.81,-5.77,-0.63,-0.04,0.24,-59.09,-20.88,-20.81
22957,-9.33,-1.81,-5.77,-0.63,-0.04,0.24,-59.09,-20.88,-20.81
22968,-9.68,-0.71,-5.52,-0.78,-0.33,0.34,-59.09,-20.88,-20.81
22979,-9.68,-0.71,-5.52,-0.78,-0.33,0.34,-59.09,-20.88,-20.81
22990,-8.55,-0.87,-5.59,-0.38,-0.34,0.21,-59.09,-20.88,-20.81
23092,-9.42,-1.78,-5.23,0.31,0.33,-0.30,-60.04,-18.21,-19.83
23103,-9.68,-3.24,-3.29,-0.00,-0.02,0.01,-60.04,-18.21,-19.83
23114,-9.68,-3.24,-3.29,-0.00,-0.02,0.01,-60.04,-18.21,-19.83
23125,-9.19,-1.77,-6.20,-0.55,-0.05,0.29,-60.04,-18.21,-19.83
23136,-9.19,-1.77,-6.20,-0.55,-0.05,0.29,-60.04,-18.21,-19.83
23147,-8.96,-0.33,-4.60,-0.58,-0.43,0.40,-60.04,-18.21,-19.83
23158,-8.96,-0.33,-4.60,-0.58,-0.43,0.40,-60.04,-18.21,-19.83
23169,-8.22,-1.27,-6.29,-0.25,-0.21,0.11,-57.92,-20.14,-20.97
23180,-8.22,-1.27,-6.29,-0.25,-0.21,0.11,-57.92,-20.14,-20.97
23191,-8.25,-1.50,-4.22,-0.16,-0.27,-0.05,-57.92,-20.14,-20.97
23202,-8.34,1.04,-5.14,-0.22,-0.07,-0.15,-57.92,-20.14,-20.97
23213,-8.34,1.04,-5.14,-0.22,-0.07,-0.15,-57.92,-20.14,-20.97
23315,-8.98,-1.32,-5.32,-0.52,-0.22,0.28,-58.39,-20.14,-21.62
23325,-8.66,-1.53,-4.14,-0.41,-0.32,0.28,-58.39,-20.14,-21.62
23336,-8.66,-1.53,-4.14,-0.41,-0.32,0.28,-58.39,-20.14,-21.62
23347,-8.31,-1.76,-5.73,-0.47,-0.12,0.14,-58.39,-20.14,-21.62
23358,-8.31,-1.76,-5.73,-0.47,-0.12,0.14,-58.39,-20.14,-21.62
23369,-8.81,-0.76,-4.01,-0.67,-0.11,-0.06,-58.39,-20.14,-21.62
23380,-8.81,-0.76,-4.01,-0.67,-0.11,-0.06,-58.39,-20.14,-21.62
23391,-8.36,0.84,-5.81,-0.56,0.26,-0.13,-58.39,-20.14,-21.62
23402,-8.52,1.98,-6.28,-0.12,0.40,-0.22,-58.39,-20.14,-21.62
23413,-8.52,1.98,-6.28,-0.12,0.40,-0.22,-58.39,-20.14,-21.62
23424,-9.82,-0.71,-5.88,0.23,0.12,-0.15,-60.27,-18.35,-22.27
23435,-9.82,-0.71,-5.88,0.23,0.12,-0.15,-60.27,-18.35,-22.27
23446,-9.60,-1.81,-3.68,0.02,-0.18,0.01,-60.27,-18.35,-22.27
23457,-9.60,-1.81,-3.68,0.02,-0.18,0.01,-60.27,-18.35,-22.27
23468,-8.98,-2.37,-5.63,-0.11,-0.15,0.14,-60.27,-18.35,-22.27
23479,-8.98,-2.37,-5.63,-0.11,-0.15,0.14,-60.27,-18.35,-22.27
23581,-9.87,0.11,-6.10,-0.35,0.68,-0.14,-61.21,-16.87,-20.32
23591,-9.87,0.11,-6.10,-0.35,0.68,-0.14,-61.21,-16.87,-20.32
23602,-9.43,-2.24,-4.29,-0.25,0.30,0.17,-61.21,-16.87,-20.32
23613,-9.43,-2.24,-4.29,-0.25,0.30,0.17,-61.21,-16.87,-20.32
23624,-9.47,-1.24,-5.84,-0.59,-0.04,0.48,-61.21,-16.87,-20.32
23635,-9.47,-1.24,-5.84,-0.59,-0.04,0.48,-61.21,-16.87,-20.32
23646,-8.71,-1.58,-5.43,-0.45,-0.33,0.47,-61.21,-16.87,-20.32
23657,-8.71,-1.58,-5.43,-0.45,-0.33,0.47,-61.21,-16.87,-20.32
23674,-8.31,-1.40,-5.61,-0.31,-0.31,0.40,-61.21,-16.87,-20.32
23679,-8.31,-1.40,-5.61,-0.31,-0.31,0.40,-61.21,-16.87,-20.32
23690,-8.47,0.80,-4.49,-0.30,-0.25,0.09,-60.98,-15.53,-21.78
23701,-8.36,1.18,-5.59,-0.21,-0.02,-0.42,-60.98,-15.53,-21.78
23712,-8.36,1.18,-5.59,-0.21,-0.02,-0.42,-60.98,-15.53,-21.78
23815,-8.94,-2.56,-6.15,-0.39,-0.01,0.20,-58.39,-18.65,-22.93
23825,-8.68,-0.84,-6.24,-0.71,-0.55,0.57,-58.39,-18.65,-22.93
23836,-8.68,-0.84,-6.24,-0.71,-0.55,0.57,-58.39,-18.65,-22.93
23847,-7.67,-0.90,-5.29,-0.02,-0.77,0.53,-58.39,-18.65,-22.93
23858,-7.67,-0.90,-5.29,-0.02,-0.77,0.53,-58.39,-18.65,-22.93
23869,-7.95,-0.03,-6.75,0.06,-0.58,0.27,-58.39,-18.65,-22.93
23880,-7.95,-0.03,-6.75,0.06,-0.58,0.27,-58.39,-18.65,-22.93
23891,-8.58,0.49,-3.83,-0.35,-0.59,0.01,-58.39,-18.65,-22.93
23902,-7.83,0.43,-2.11,-0.50,0.04,-0.55,-58.39,-18.65,-22.93
23913,-7.83,0.43,-2.11,-0.50,0.04,-0.55,-58.39,-18.65,-22.93
23924,-9.60,0.52,-8.34,-0.01,0.89,-0.62,-57.92,-15.97,-23.25
23935,-9.60,0.52,-8.34,-0.01,0.89,-0.62,-57.92,-15.97,-23.25
23946,-9.71,-0.77,-5.90,0.16,0.20,-0.09,-57.92,-15.97,-23.25
23957,-9.71,-0.77,-5.90,0.16,0.20,-0.09,-57.92,-15.97,-23.25
23968,-8.70,-3.55,-5.89,0.23,-0.22,0.15,-57.92,-15.97,-23.25
23979,-8.70,-3.55,-5.89,0.23,-0.22,0.15,-57.92,-15.97,-23.25
24081,-5.66,1.93,-12.47,-0.17,2.83,-2.74,-57.92,-17.16,-23.58
24092,-5.66,1.93,-12.47,-0.17,2.83,-2.74,-57.92,-17.16,-23.58
24103,-7.13,6.04,-12.21,1.68,2.11,-1.57,-57.92,-17.16,-23.58
24114,-7.13,6.04,-12.21,1.68,2.11,-1.57,-57.92,-17.16,-23.58
24125,-5.00,3.45,-12.19,2.34,1.56,-0.84,-57.92,-17.16,-23.58
24136,-5.00,3.45,-12.19,2.34,1.56,-0.84,-57.92,-17.16,-23.58
24147,-2.70,-1.67,-9.69,1.98,0.79,0.16,-57.92,-17.16,-23.58
24158,-2.70,-1.67,-9.69,1.98,0.79,0.16,-57.92,-17.16,-23.58
24169,0.01,1.81,-11.18,1.35,0.25,2.08,-57.92,-17.16,-23.58
24180,0.01,1.81,-11.18,1.35,0.25,2.08,-57.92,-17.16,-23.58
24191,-1.52,3.39,-8.93,1.71,-0.52,3.59,-45.91,-22.97,-25.69
24202,-7.53,2.63,-4.51,2.36,-0.99,4.07,-45.91,-22.97,-25.69
24314,-7.53,2.63,-4.51,2.36,-0.99,4.07,-45.91,-22.97,-25.69
24316,-11.52,-4.71,-1.59,1.60,0.00,2.01,-59.56,-23.56,-21.46
24326,-10.90,-2.90,-2.07,1.01,0.26,1.37,-59.56,-23.56,-21.46
24337,-10.90,-2.90,-2.07,1.01,0.26,1.37,-59.56,-23.56,-21.46
24348,-9.01,-2.50,-3.95,0.60,0.38,0.47,-59.56,-23.56,-21.46
24359,-9.01,-2.50,-3.95,0.60,0.38,0.47,-59.56,-23.56,-21.46
24370,-8.64,-3.87,-3.93,0.83,0.03,-0.18,-59.56,-23.56,-21.46
24381,-8.64,-3.87,-3.93,0.83,0.03,-0.18,-59.56,-23.56,-21.46
24392,-10.26,-5.20,-1.23,1.07,-0.26,-0.30,-59.56,-23.56,-21.46
24403,-10.49,-4.67,-2.90,0.27,-0.02,0.04,-59.56,-23.56,-21.46
24414,-10.49,-4.67,-2.90,0.27,-0.02,0.04,-59.56,-23.56,-21.46
24425,-9.69,-0.94,-4.64,-0.46,0.14,0.50,-59.56,-24.46,-19.50
24436,-9.69,-0.94,-4.64,-0.46,0.14,0.50,-59.56,-24.46,-19.50
24447,-9.24,2.24,-5.83,-0.35,0.05,0.36,-59.56,-24.46,-19.50
24458,-9.24,2.24,-5.83,-0.35,0.05,0.36,-59.56,-24.46,-19.50
24469,-8.82,0.81,-4.18,0.57,-0.31,-0.44,-59.56,-24.46,-19.50
24480,-8.82,0.81,-4.18,0.57,-0.31,-0.44,-59.56,-24.46,-19.50
24585,-7.70,-1.61,-5.67,0.51,0.18,-0.35,-60.98,-26.24,-18.20
24595,-7.70,-1.61,-5.67,0.51,0.18,-0.35,-60.98,-26.24,-18.20
24606,-7.18,-3.06,-6.10,0.37,0.12,-0.33,-60.98,-26.24,-18.20
24617,-7.18,-3.06,-6.10,0.37,0.12,-0.33,-60.98,-26.24,-18.20
24628,-8.33,-2.92,-5.81,0.13,-0.22,-0.16,-60.98,-26.24,-18.20
24639,-8.33,-2.92,-5.81,0.13,-0.22,-0.16,-60.98,-26.24,-18.20
24650,-9.39,-2.42,-5.05,-0.06,-0.40,-0.22,-60.98,-26.24,-18.20
24661,-9.39,-2.42,-5.05,-0.06,-0.40,-0.22,-60.98,-26.24,-18.20
24672,-8.35,-2.34,-5.40,-0.37,-0.28,-0.40,-60.98,-26.24,-18.20
24683,-7.06,-2.19,-6.37,-0.44,-0.15,-0.33,-57.92,-26.09,-19.34
24694,-7.06,-2.19,-6.37,-0.44,-0.15,-0.33,-57.92,-26.09,-19.34
24705,-7.32,-2.14,-5.69,-0.35,-0.28,-0.13,-57.92,-26.09,-19.34
24808,-7.10,-0.73,-7.36,0.13,0.13,0.35,-57.92,-26.09,-19.02
24818,-7.10,-0.73,-7.36,0.13,0.13,0.35,-57.92,-26.09,-19.02
24829,-8.84,-0.05,-5.82,0.61,-0.02,0.35,-57.92,-26.09,-19.02
24840,-8.84,-0.05,-5.82,0.61,-0.02,0.35,-57.92,-26.09,-19.02
24851,-9.03,-1.78,-5.47,0.79,-0.10,-0.09,-57.92,-26.09,-19.02
24862,-8.20,-3.25,-5.77,0.52,-0.03,-0.26,-57.92,-26.09,-19.02
24873,-8.20,-3.25,-5.77,0.52,-0.03,-0.26,-57.92,-26.09,-19.02
24884,-8.15,-3.27,-5.70,0.26,0.02,0.13,-57.92,-26.09,-19.02
24895,-8.15,-3.27,-5.70,0.26,0.02,0.13,-57.92,-26.09,-19.02
24906,-8.07,-1.46,-5.93,-0.02,0.17,0.66,-57.92,-26.09,-19.02
24917,-8.07,-1.46,-5.93,-0.02,0.17,0.66,-57.92,-26.09,-19.02
24928,-7.54,0.61,-7.10,-0.20,0.35,0.80,-57.92,-26.09,-19.02
24939,-7.54,0.61,-7.10,-0.20,0.35,0.80,-57.92,-26.09,-19.02
24950,-8.41,0.14,-6.29,0.35,0.16,0.38,-57.92,-25.80,-19.34
24961,-8.41,0.14,-6.29,0.35,0.16,0.38,-57.92,-25.80,-19.34
24972,-8.39,-1.98,-5.63,0.63,0.09,-0.09,-57.92,-25.80,-19.34
24983,-7.94,-3.20,-6.29,0.52,0.17,-0.09,-57.92,-25.80,-19.34
25086,-9.23,-2.34,-4.02,0.28,-0.46,0.23,-59.80,-25.80,-17.71
25096,-9.23,-2.34,-4.02,0.28,-0.46,0.23,-59.80,-25.80,-17.71
25107,-8.76,-1.52,-4.57,0.03,-0.25,0.26,-59.80,-25.80,-17.71
25118,-8.76,-1.52,-4.57,0.03,-0.25,0.26,-59.80,-25.80,-17.71
25129,-8.76,-1.92,-5.01,-0.11,-0.10,0.09,-59.80,-25.80,-17.71
25140,-8.76,-1.92,-5.01,-0.11,-0.10,0.09,-59.80,-25.80,-17.71
25151,-7.34,-1.59,-5.90,-0.19,-0.00,0.03,-59.80,-25.80,-17.71
25162,-7.34,-1.59,-5.90,-0.19,-0.00,0.03,-59.80,-25.80,-17.71
25173,-7.06,-0.42,-6.78,0.07,-0.04,0.02,-59.80,-25.80,-17.71
25184,-7.81,-0.41,-5.86,0.97,-0.27,-0.30,-60.51,-27.43,-16.25
25195,-7.81,-0.41,-5.86,0.97,-0.27,-0.30,-60.51,-27.43,-16.25
25206,-10.23,-3.49,-2.63,1.68,-0.26,-0.73,-60.51,-27.43,-16.25
25309,-8.64,-8.13,-7.25,-1.52,-0.89,1.00,-62.39,-28.92,-14.29
25319,-8.64,-8.13,-7.25,-1.52,-0.89,1.00,-62.39,-28.92,-14.29
25330,-5.03,-4.55,-6.28,-2.17,-1.64,2.60,-62.39,-28.92,-14.29
25341,-5.03,-4.55,-6.28,-2.17,-1.64,2.60,-62.39,-28.92,-14.29
25352,-7.42,6.11,-4.09,-1.38,-1.64,2.94,-62.39,-28.92,-14.29
25363,-7.73,3.17,-2.64,-0.46,-0.44,0.89,-62.39,-28.92,-14.29
25374,-7.73,3.17,-2.64,-0.46,-0.44,0.89,-62.39,-28.92,-14.29
25385,-7.82,0.22,-5.39,-0.25,0.84,-0.51,-62.39,-28.92,-14.29
25396,-7.82,0.22,-5.39,-0.25,0.84,-0.51,-62.39,-28.92,-14.29
25407,-8.96,-2.19,-5.99,0.03,1.01,-1.03,-62.39,-28.92,-14.29
25418,-8.96,-2.19,-5.99,0.03,1.01,-1.03,-62.39,-28.92,-14.29
25429,-9.87,-3.54,-4.60,0.59,0.53,-1.09,-62.39,-28.92,-14.29
25440,-9.87,-3.54,-4.60,0.59,0.53,-1.09,-62.39,-28.92,-14.29
25451,-9.58,-3.59,-2.55,0.63,0.01,-0.89,-62.39,-25.05,-15.59
25462,-9.58,-3.59,-2.55,0.63,0.01,-0.89,-62.39,-25.05,-15.59
25473,-8.95,-1.69,-5.59,-0.18,-0.08,-0.53,-62.39,-25.05,-15.59
25586,-8.50,2.25,-6.59,-0.61,-0.11,-0.02,-62.39,-25.05,-15.59
25588,-8.48,0.56,-4.76,-0.21,-0.22,-0.05,-60.27,-24.60,-14.78
25598,-8.48,0.56,-4.76,-0.21,-0.22,-0.05,-60.27,-24.60,-14.78
25609,-8.15,-0.06,-6.73,0.09,0.08,-0.32,-60.27,-24.60,-14.78
25620,-8.15,-0.06,-6.73,0.09,0.08,-0.32,-60.27,-24.60,-14.78
25631,-7.90,1.48,-4.68,0.36,0.15,-0.23,-60.27,-24.60,-14.78
25642,-7.90,1.48,-4.68,0.36,0.15,-0.23,-60.27,-24.60,-14.78
25653,-9.13,-1.11,-5.91,0.23,0.61,-0.38,-60.27,-24.60,-14.78
25664,-8.67,-4.23,-4.99,-0.10,0.35,-0.08,-60.27,-24.60,-14.78
25675,-8.67,-4.23,-4.99,-0.10,0.35,-0.08,-60.27,-24.60,-14.78
25686,-9.61,-3.91,-4.37,-0.70,0.06,0.45,-62.39,-24.16,-17.22
25697,-9.61,-3.91,-4.37,-0.70,0.06,0.45,-62.39,-24.16,-17.22
25708,-8.59,-3.02,-4.82,-1.33,-0.15,0.64,-62.39,-24.16,-17.22
25854,-8.98,-2.23,-5.17,-0.36,-0.23,0.38,-61.68,-22.82,-17.71
25864,-8.52,-0.84,-4.40,-0.44,-0.30,0.54,-61.68,-22.82,-17.71
25875,-8.52,-0.84,-4.40,-0.44,-0.30,0.54,-61.68,-22.82,-17.71
25886,-8.58,-0.78,-5.29,-0.28,-0.07,0.30,-61.68,-22.82,-17.71
25897,-8.58,-0.78,-5.29,-0.28,-0.07,0.30,-61.68,-22.82,-17.71
25908,-8.15,0.44,-5.20,-0.26,0.05,0.24,-61.68,-22.82,-17.71
25919,-8.15,0.44,-5.20,-0.26,0.05,0.24,-61.68,-22.82,-17.71
25930,-8.49,1.03,-4.25,0.06,0.26,-0.08,-61.68,-22.82,-17.71
26033,-8.24,-2.49,-5.46,-0.25,-0.17,0.02,-61.21,-21.63,-17.71
26043,-8.72,-0.46,-4.77,-0.06,-0.24,0.43,-61.21,-21.63,-17.71
26054,-8.72,-0.46,-4.77,-0.06,-0.24,0.43,-61.21,-21.63,-17.71
26065,-8.82,-2.87,-5.04,0.37,-0.14,0.21,-63.57,-24.31,-17.39
26076,-8.82,-2.87,-5.04,0.37,-0.14,0.21,-63.57,-24.31,-17.39
26087,-8.79,-3.60,-4.47,0.28,-0.22,0.19,-63.57,-24.31,-17.39
26098,-8.79,-3.60,-4.47,0.28,-0.22,0.19,-63.57,-24.31,-17.39
26109,-9.17,0.64,-3.35,-0.08,-0.38,0.22,-63.57,-24.31,-17.39
26120,-9.17,0.64,-3.35,-0.08,-0.38,0.22,-63.57,-24.31,-17.39
26131,-8.65,-0.26,-5.17,-0.15,-0.03,-0.13,-63.57,-24.31,-17.39
26142,-8.65,-0.26,-5.17,-0.15,-0.03,-0.13,-63.57,-24.31,-17.39
26153,-10.11,-0.64,-4.75,-0.23,0.09,0.03,-63.57,-24.31,-17.39
26164,-9.75,-0.68,-5.12,-0.56,0.41,0.29,-63.57,-24.31,-17.39
26175,-9.75,-0.68,-5.12,-0.56,0.41,0.29,-63.57,-24.31,-17.39
26186,-8.08,-1.28,-4.67,-0.72,0.41,0.15,-63.57,-24.31,-17.39
26197,-8.08,-1.28,-4.67,-0.72,0.41,0.15,-63.57,-24.31,-17.39
26302,-9.68,-0.73,-4.05,0.09,-0.13,-0.16,-61.68,-22.82,-17.71
26312,-8.86,-1.16,-4.82,0.01,0.11,-0.01,-61.68,-22.82,-17.71
26323,-8.86,-1.16,-4.82,0.01,0.11,-0.01,-61.68,-22.82,-17.71
26334,-9.24,-1.37,-4.66,-0.08,0.07,0.18,-63.33,-21.78,-18.85
26345,-9.45,-2.40,-5.09,-0.34,-0.05,0.27,-63.33,-21.78,-18.85
26356,-9.45,-2.40,-5.09,-0.34,-0.05,0.27,-63.33,-21.78,-18.85
26367,-9.17,-1.86,-4.83,-0.49,-0.25,0.40,-63.33,-21.78,-18.85
26378,-9.17,-1.86,-4.83,-0.49,-0.25,0.40,-63.33,-21.78,-18.85
26389,-8.77,-0.65,-5.27,-0.50,-0.32,0.36,-63.33,-21.78,-18.85
26400,-8.77,-0.65,-5.27,-0.50,-0.32,0.36,-63.33,-21.78,-18.85
26411,-8.83,0.25,-4.28,-0.46,-0.27,0.05,-63.33,-21.78,-18.85
26422,-8.83,0.25,-4.28,-0.46,-0.27,0.05,-63.33,-21.78,-18.85
26433,-8.17,1.54,-6.21,-0.29,-0.01,-0.32,-63.33,-21.78,-18.85
26536,-9.39,-3.58,-4.51,-0.19,-0.36,0.42,-62.15,-23.12,-19.67
26546,-9.03,-0.02,-3.71,-0.44,-0.44,0.49,-62.15,-23.12,-19.67
26557,-9.03,-0.02,-3.71,-0.44,-0.44,0.49,-62.15,-23.12,-19.67
26568,-10.53,1.28,-2.05,-0.71,-0.17,-0.17,-62.15,-23.12,-19.67
26579,-10.53,1.28,-2.05,-0.71,-0.17,-0.17,-62.15,-23.12,-19.67
26590,-13.99,-0.47,-2.24,-0.99,0.66,-0.66,-62.15,-23.12,-19.67
26601,-13.99,-0.47,-2.24,-0.99,0.66,-0.66,-62.15,-23.12,-19.67
26612,-9.90,3.16,-5.17,-1.44,1.64,-0.55,-62.15,-23.12,-19.67
26623,-9.90,3.16,-5.17,-1.44,1.64,-0.55,-62.15,-23.12,-19.67
26634,-4.92,-1.05,-8.56,-1.03,1.62,-0.98,-62.15,-23.12,-19.67
26645,-4.81,-1.88,-6.19,-0.75,0.53,-0.45,-62.15,-23.12,-19.67
26656,-4.81,-1.88,-6.19,-0.75,0.53,-0.45,-62.15,-23.12,-19.67
26758,-9.20,-1.28,-4.42,0.73,-0.32,0.14,-61.45,-19.10,-22.11
26768,-9.35,-0.39,-4.75,0.35,-0.11,0.24,-61.45,-19.10,-22.11
26779,-9.35,-0.39,-4.75,0.35,-0.11,0.24,-61.45,-19.10,-22.11
26790,-8.76,-0.04,-5.47,0.23,-0.04,0.15,-61.45,-19.10,-22.11
26801,-8.76,-0.04,-5.47,0.23,-0.04,0.15,-61.45,-19.10,-22.11
26812,-9.46,-0.45,-4.97,0.33,-0.13,0.03,-61.45,-19.10,-22.11
26823,-9.46,-0.45,-4.97,0.33,-0.13,0.03,-61.45,-19.10,-22.11
26834,-9.00,-0.75,-4.85,0.22,-0.07,0.03,-61.68,-21.93,-19.02
26845,-8.79,-0.55,-5.43,0.05,0.04,0.08,-61.68,-21.93,-19.02
26856,-8.79,-0.55,-5.43,0.05,0.04,0.08,-61.68,-21.93,-19.02
26867,-8.36,-0.50,-5.42,-0.04,0.03,0.08,-61.68,-21.93,-19.02
26878,-8.36,-0.50,-5.42,-0.04,0.03,0.08,-61.68,-21.93,-19.02
26889,-8.43,-0.16,-5.97,-0.04,0.04,0.07,-61.68,-21.93,-19.02
26900,-8.43,-0.16,-5.97,-0.04,0.04,0.07,-61.68,-21.93,-19.02
26911,-8.67,-0.57,-5.50,0.14,-0.05,-0.02,-61.68,-21.93,-19.02
26922,-8.67,-0.57,-5.50,0.14,-0.05,-0.02,-61.68,-21.93,-19.02
27024,-8.64,-0.60,-5.30,0.00,0.05,0.01,-62.39,-20.88,-19.50
27034,-8.47,-0.67,-5.50,-0.04,0.04,0.03,-62.39,-20.88,-19.50
27045,-8.72,0.09,-5.53,-0.09,0.03,0.09,-62.39,-20.88,-19.50
27056,-8.72,0.09,-5.53,-0.09,0.03,0.09,-62.39,-20.88,-19.50
27067,-8.48,-0.07,-5.81,0.01,0.05,0.00,-62.39,-20.88,-19.50
27078,-8.48,-0.07,-5.81,0.01,0.05,0.00,-62.39,-20.88,-19.50
27089,-8.58,-0.80,-5.46,0.12,0.00,-0.07,-60.74,-21.63,-20.97
27100,-8.58,-0.80,-5.46,0.12,0.00,-0.07,-60.74,-21.63,-20.97
27111,-8.55,-1.13,-5.29,0.07,0.03,-0.03,-60.74,-21.63,-20.97
27122,-8.55,-1.13,-5.29,0.07,0.03,-0.03,-60.74,-21.63,-20.97
27133,-8.44,-0.42,-5.48,-0.09,0.07,0.05,-60.74,-21.63,-20.97
27144,-8.02,0.44,-6.22,-0.10,0.07,0.04,-60.74,-21.63,-20.97
27155,-8.02,0.44,-6.22,-0.10,0.07,0.04,-60.74,-21.63,-20.97
27259,-8.84,-2.93,-3.66,-0.25,-0.55,-0.35,-62.15,-21.93,-17.39
27269,-8.94,-2.78,-2.41,-0.30,-0.21,-0.00,-62.15,-21.93,-17.39
27280,-8.94,-2.78,-2.41,-0.30,-0.21,-0.00,-62.15,-21.93,-17.39
27291,-9.59,-2.98,-1.56,-0.20,0.26,0.39,-62.15,-21.93,-17.39
27302,-9.59,-2.98,-1.56,-0.20,0.26,0.39,-62.15,-21.93,-17.39
27313,-20.53,-2.93,2.45,0.08,1.18,0.77,-62.15,-21.93,-17.39
27324,-20.53,-2.93,2.45,0.08,1.18,0.77,-62.15,-21.93,-17.39
27335,-14.15,-0.55,-1.10,-1.30,3.41,0.82,-60.27,-19.84,-21.62
27346,-8.07,0.48,-8.28,-1.53,4.49,0.37,-60.27,-19.84,-21.62
27357,-8.07,0.48,-8.28,-1.53,4.49,0.37,-60.27,-19.84,-21.62
27368,-6.75,2.49,-9.70,-1.58,3.17,-0.12,-60.27,-19.84,-21.62
27379,-6.75,2.49,-9.70,-1.58,3.17,-0.12,-60.27,-19.84,-21.62
27390,-3.77,0.53,-7.94,-0.44,2.12,-0.71,-60.27,-19.84,-21.62
27401,-3.77,0.53,-7.94,-0.44,2.12,-0.71,-60.27,-19.84,-21.62
27412,-3.36,-0.89,-7.79,0.33,1.51,-0.85,-60.27,-19.84,-21.62
27423,-3.36,-0.89,-7.79,0.33,1.51,-0.85,-60.27,-19.84,-21.62
27562,-8.64,0.84,-8.58,8.47,-0.45,-1.02,-48.27,-18.80,-29.28
27573,-11.32,2.27,-4.73,14.76,-1.08,-1.12,-48.27,-18.80,-29.28
27584,-11.32,2.27,-4.73,14.76,-1.08,-1.12,-48.27,-18.80,-29.28
27595,-9.60,-2.57,1.38,17.43,-1.48,-0.48,-46.15,-42.16,6.07
27606,-9.21,-4.93,5.15,17.43,-1.58,0.61,-46.15,-42.16,6.07
27617,-9.21,-4.93,5.15,17.43,-1.58,0.61,-46.15,-42.16,6.07
27628,-8.08,-7.54,15.81,17.02,-0.81,1.96,-46.15,-42.16,6.07
27639,-8.08,-7.54,15.81,17.02,-0.81,1.96,-46.15,-42.16,6.07
27650,-7.88,-6.38,17.33,6.70,0.81,2.18,-46.15,-42.16,6.07
27661,-7.88,-6.38,17.33,6.70,0.81,2.18,-46.15,-42.16,6.07
27672,-6.66,-4.23,14.88,-3.60,2.75,1.73,-46.15,-42.16,6.07
27683,-6.66,-4.23,14.88,-3.60,2.75,1.73,-46.15,-42.16,6.07
27694,-5.11,-2.25,18.10,-9.86,5.24,1.65,-46.15,-42.16,6.07
27814,6.23,16.49,-1.53,-7.06,-4.34,10.16,-68.04,-28.32,18.29
27824,6.23,16.49,-1.53,-7.06,-4.34,10.16,-68.04,-28.32,18.29
27835,-2.27,24.31,-2.98,-4.80,-4.23,7.46,-68.04,-28.32,18.29
27846,-5.96,21.88,3.23,-1.61,-3.78,3.94,-61.68,23.31,3.47
27857,-5.96,21.88,3.23,-1.61,-3.78,3.94,-61.68,23.31,3.47
27868,-6.59,13.85,5.80,-0.95,-2.57,1.26,-61.68,23.31,3.47
27879,-6.59,13.85,5.80,-0.95,-2.57,1.26,-61.68,23.31,3.47
27890,-4.08,7.93,1.38,-1.71,-1.08,-0.05,-61.68,23.31,3.47
27901,-4.08,7.93,1.38,-1.71,-1.08,-0.05,-61.68,23.31,3.47
27912,-2.95,7.19,-3.08,-2.32,-0.61,0.06,-61.68,23.31,3.47
27923,-2.95,7.19,-3.08,-2.32,-0.61,0.06,-61.68,23.31,3.47
27934,-3.17,8.49,-1.75,-2.03,-1.26,0.61,-61.68,23.31,3.47
27945,-2.82,8.52,2.32,-1.31,-1.82,1.03,-61.68,23.31,3.47
27956,-2.82,8.52,2.32,-1.31,-1.82,1.03,-61.68,23.31,3.47
27967,-1.99,9.47,3.66,-0.67,-1.74,1.48,-52.27,23.61,15.85
27978,-1.99,9.47,3.66,-0.67,-1.74,1.48,-52.27,23.61,15.85
27989,-1.74,12.36,3.47,-0.56,-1.27,1.23,-52.27,23.61,15.85
28116,1.00,4.95,1.17,3.00,0.27,0.53,-44.26,25.39,13.57
28126,-1.35,19.88,4.19,-0.18,-0.33,0.83,-44.26,25.39,13.57
28137,-1.35,19.88,4.19,-0.18,-0.33,0.83,-44.26,25.39,13.57
28148,0.24,13.42,0.74,-0.61,0.11,-0.33,-44.26,25.39,13.57
28164,0.24,13.42,0.74,-0.61,0.11,-0.33,-44.26,25.39,13.57
28170,1.81,6.15,-1.58,0.50,0.16,-0.61,-44.26,25.39,13.57
28181,1.81,6.15,-1.58,0.50,0.16,-0.61,-44.26,25.39,13.57
28192,0.53,7.56,1.34,0.07,-0.64,0.08,-44.26,25.39,13.57
28203,0.53,7.56,1.34,0.07,-0.64,0.08,-44.26,25.39,13.57
28214,-0.13,8.71,2.68,-0.38,-0.79,0.28,-44.97,26.14,12.75
28225,-0.13,8.71,2.68,-0.38,-0.79,0.28,-44.97,26.14,12.75
28236,-0.38,11.45,1.58,-0.23,-0.50,0.39,-44.97,26.14,12.75
28247,-0.55,12.74,1.22,0.02,-0.38,0.20,-44.97,26.14,12.75
28354,0.24,9.18,0.51,0.99,-0.51,-0.25,-43.79,25.69,12.59
28364,0.24,9.18,0.51,0.99,-0.51,-0.25,-43.79,25.69,12.59
28375,-0.25,9.14,0.57,1.24,-0.41,-0.05,-43.79,25.69,12.59
28386,-0.43,10.28,-1.25,1.71,-0.23,-0.00,-43.79,25.69,12.59
28397,-0.43,10.28,-1.25,1.71,-0.23,-0.00,-43.79,25.69,12.59
28408,-0.57,11.37,3.26,4.57,-0.11,0.06,-43.79,25.69,12.59
28419,-0.57,11.37,3.26,4.57,-0.11,0.06,-43.79,25.69,12.59
28430,-0.38,10.91,-0.38,4.81,0.32,-0.13,-43.79,25.69,12.59
28441,-0.38,10.91,-0.38,4.81,0.32,-0.13,-43.79,25.69,12.59
28452,-0.78,9.99,-1.31,6.08,0.79,-0.16,-43.79,25.69,12.59
28463,-0.78,9.99,-1.31,6.08,0.79,-0.16,-43.79,25.69,12.59
28474,-0.64,8.85,-4.10,6.20,1.00,-0.12,-46.15,27.48,-5.98
28485,-0.64,8.85,-4.10,6.20,1.00,-0.12,-46.15,27.48,-5.98
28496,0.35,7.72,-4.75,5.01,0.70,-0.11,-46.15,27.48,-5.98
28507,-0.40,7.56,-5.94,2.78,0.14,-0.23,-46.15,27.48,-5.98
28518,-0.40,7.56,-5.94,2.78,0.14,-0.23,-46.15,27.48,-5.98
28529,-0.52,8.66,-5.87,0.93,-0.10,-0.18,-46.15,27.48,-5.98
28540,-0.52,8.66,-5.87,0.93,-0.10,-0.18,-46.15,27.48,-5.98
28643,0.76,7.50,-11.67,2.21,-0.10,-0.69,-48.03,20.04,-19.67
28653,-0.14,6.58,-8.04,0.05,-0.14,-0.60,-48.03,20.04,-19.67
28664,-0.14,6.58,-8.04,0.05,-0.14,-0.60,-48.03,20.04,-19.67
28675,-0.51,6.51,-7.86,-0.29,0.03,-0.46,-48.03,20.04,-19.67
28686,-2.56,6.19,-7.95,-0.11,0.08,-0.25,-48.03,20.04,-19.67
28697,-2.56,6.19,-7.95,-0.11,0.08,-0.25,-48.03,20.04,-19.67
28708,-1.73,6.46,-8.15,0.22,0.09,0.08,-48.03,20.04,-19.67
28719,-1.73,6.46,-8.15,0.22,0.09,0.08,-48.03,20.04,-19.67
28730,0.36,6.21,-8.09,0.06,-0.08,0.16,-48.74,16.61,-23.41
28741,0.36,6.21,-8.09,0.06,-0.08,0.16,-48.74,16.61,-23.41
28752,2.08,6.15,-8.45,0.14,-0.29,0.55,-48.74,16.61,-23.41
28763,2.08,6.15,-8.45,0.14,-0.29,0.55,-48.74,16.61,-23.41
28865,-0.46,6.35,-8.09,0.01,-0.01,0.02,-48.03,16.46,-23.25
28876,-0.46,6.37,-8.08,0.00,-0.01,0.01,-48.03,16.46,-23.25
28887,-0.45,6.37,-8.06,0.00,-0.01,0.01,-48.03,16.46,-23.25
28898,-0.45,6.37,-8.06,0.00,-0.01,0.01,-48.03,16.46,-23.25
28909,-0.45,6.36,-8.08,0.00,-0.01,0.01,-48.03,16.46,-23.25
28920,-0.45,6.36,-8.08,0.00,-0.01,0.01,-48.03,16.46,-23.25
28931,-0.46,6.38,-8.08,0.00,-0.01,0.01,-48.03,16.46,-23.25
28942,-0.46,6.38,-8.08,0.00,-0.01,0.01,-48.03,16.46,-23.25
28953,-0.46,6.38,-8.08,0.00,-0.01,0.01,-48.03,16.46,-23.25
28964,-0.46,6.38,-8.08,0.00,-0.01,0.01,-48.03,16.46,-23.25
28975,-0.45,6.35,-8.11,0.00,-0.01,0.01,-48.50,16.46,-22.27
28986,-0.46,6.36,-8.08,0.00,-0.01,0.01,-48.50,16.46,-22.27
28997,-0.46,6.36,-8.08,0.00,-0.01,0.01,-48.50,16.46,-22.27
29008,-0.45,6.35,-8.06,0.00,-0.01,0.01,-48.50,16.46,-22.27
29019,-0.45,6.35,-8.06,0.00,-0.01,0.01,-48.50,16.46,-22.27
29030,-0.44,6.37,-8.05,0.00,-0.01,0.01,-48.50,16.46,-22.27
29041,-0.44,6.37,-8.05,0.00,-0.01,0.01,-48.50,16.46,-22.27
29145,-0.42,6.36,-8.09,0.01,0.02,-0.01,-48.97,16.46,-22.60
29155,-0.45,6.37,-8.07,0.00,-0.01,0.01,-48.97,16.46,-22.60
29166,-0.47,6.39,-8.04,-0.00,-0.01,0.01,-48.97,16.46,-22.60
29177,-0.47,6.39,-8.04,-0.00,-0.01,0.01,-48.97,16.46,-22.60
29188,-0.42,6.34,-8.08,0.00,-0.01,0.01,-48.97,16.46,-22.60
29199,-0.42,6.34,-8.08,0.00,-0.01,0.01,-48.97,16.46,-22.60
29210,-0.43,6.35,-8.08,-0.00,-0.01,0.01,-48.97,16.46,-22.60
29221,-0.43,6.35,-8.08,-0.00,-0.01,0.01,-48.97,16.46,-22.60
29232,-0.46,6.37,-8.08,-0.00,-0.01,0.01,-48.03,17.36,-22.60
29243,-0.46,6.37,-8.08,-0.00,-0.01,0.01,-48.03,17.36,-22.60
29254,-0.47,6.38,-8.07,-0.00,-0.01,0.01,-48.03,17.36,-22.60
29265,-0.47,6.38,-8.07,-0.00,-0.01,0.01,-48.03,17.36,-22.60
29276,-0.46,6.37,-8.06,-0.00,-0.01,0.01,-48.03,17.36,-22.60
29418,-0.45,6.35,-8.08,0.00,-0.01,0.01,-48.97,15.87,-22.93
29428,-0.46,6.38,-8.05,-0.00,-0.01,0.01,-48.97,15.87,-22.93
29439,-0.46,6.38,-8.05,-0.00,-0.01,0.01,-48.97,15.87,-22.93
29450,-0.46,6.37,-8.07,-0.00,-0.01,0.01,-48.97,15.87,-22.93
29461,-0.46,6.37,-8.07,-0.00,-0.01,0.01,-48.97,15.87,-22.93
29472,-0.43,6.36,-8.08,0.00,-0.01,0.01,-51.09,16.61,-21.78
29483,-0.43,6.36,-8.08,0.00,-0.01,0.01,-51.09,16.61,-21.78
29494,-0.44,6.35,-8.10,0.00,-0.01,0.01,-51.09,16.61,-21.78
29505,-0.44,6.35,-8.10,0.00,-0.01,0.01,-51.09,16.61,-21.78
29516,-0.45,6.35,-8.05,0.00,-0.01,0.01,-51.09,16.61,-21.78
29527,-0.46,6.37,-8.12,-0.00,-0.01,0.01,-51.09,16.61,-21.78
29538,-0.46,6.37,-8.12,-0.00,-0.01,0.01,-51.09,16.61,-21.78
29549,-0.45,6.38,-8.05,-0.00,-0.01,0.01,-51.09,16.61,-21.78
29652,-0.49,6.36,-8.04,0.00,-0.01,0.01,-49.21,16.32,-23.41
29662,-0.49,6.36,-8.04,0.00,-0.01,0.01,-49.21,16.32,-23.41
29673,-0.45,6.36,-8.09,0.00,-0.01,0.01,-49.21,16.32,-23.41
29684,-0.45,6.36,-8.09,0.00,-0.01,0.01,-49.21,16.32,-23.41
29695,-0.44,6.35,-8.08,-0.00,-0.01,0.01,-49.21,16.32,-23.41
29706,-0.44,6.35,-8.08,-0.00,-0.01,0.01,-49.21,16.32,-23.41
29717,-0.45,6.34,-8.08,-0.00,-0.01,0.01,-49.21,16.32,-23.41
29728,-0.47,6.35,-8.08,-0.00,-0.01,0.01,-49.44,17.06,-22.27
29739,-0.47,6.35,-8.08,-0.00,-0.01,0.01,-49.44,17.06,-22.27
29750,-0.46,6.38,-8.08,-0.00,-0.01,0.01,-49.44,17.06,-22.27
29761,-0.46,6.38,-8.08,-0.00,-0.01,0.01,-49.44,17.06,-22.27
29772,-0.44,6.37,-8.08,-0.00,-0.01,0.01,-49.44,17.06,-22.27
29783,-0.44,6.37,-8.08,-0.00,-0.01,0.01,-49.44,17.06,-22.27
29794,-0.45,6.35,-8.09,-0.00,-0.01,0.01,-49.44,17.06,-22.27
29805,-0.45,6.35,-8.09,-0.00,-0.01,0.01,-49.44,17.06,-22.27
29816,-0.45,6.34,-8.09,-0.00,-0.01,0.01,-49.44,17.06,-22.27
29827,-0.47,6.36,-8.10,-0.00,-0.01,0.01,-49.44,17.06,-22.27
29930,-0.48,6.38,-8.10,-0.00,-0.01,0.01,-48.74,16.32,-23.74
29940,-0.48,6.38,-8.10,-0.00,-0.01,0.01,-48.74,16.32,-23.74
29951,-0.44,6.38,-8.09,-0.00,-0.01,0.01,-48.74,16.32,-23.74
29962,-0.44,6.38,-8.09,-0.00,-0.01,0.01,-48.74,16.32,-23.74
29973,-0.43,6.36,-8.10,0.00,-0.01,0.01,-48.74,16.32,-23.74
29984,-0.43,6.36,-8.10,0.00,-0.01,0.01,-48.74,16.32,-23.74
29995,-0.45,6.36,-8.10,-0.00,-0.01,0.01,-48.74,16.91,-22.11
30006,-0.45,6.36,-8.10,-0.00,-0.01,0.01,-48.74,16.91,-22.11
30017,-0.47,6.36,-8.08,-0.00,-0.01,0.01,-48.74,16.91,-22.11
30028,-0.45,6.36,-8.07,-0.00,-0.01,0.01,-48.74,16.91,-22.11
30039,-0.45,6.36,-8.07,-0.00,-0.01,0.01,-48.74,16.91,-22.11
30050,-0.28,6.22,-8.29,-0.03,-0.03,-0.01,-48.74,16.91,-22.11
30154,-0.67,6.57,-7.84,-0.05,-0.03,-0.02,-49.68,16.32,-22.76
30164,-0.67,6.57,-7.84,-0.05,-0.03,-0.02,-49.68,16.32,-22.76
30175,-0.35,6.18,-8.23,0.14,0.08,0.01,-49.68,16.32,-22.76
30186,-0.35,6.18,-8.23,0.14,0.08,0.01,-49.68,16.32,-22.76
30197,-0.48,6.34,-8.12,0.08,0.03,0.02,-49.68,16.32,-22.76
30208,-0.45,6.34,-8.13,0.08,0.03,0.04,-49.68,16.32,-22.76
30219,-0.45,6.34,-8.13,0.08,0.03,0.04,-49.68,16.32,-22.76
30230,-0.40,6.36,-8.10,0.05,-0.00,0.03,-48.27,16.61,-22.76
30241,-0.40,6.36,-8.10,0.05,-0.00,0.03,-48.27,16.61,-22.76
30252,-0.30,7.02,-7.57,0.05,-0.10,0.15,-48.27,16.61,-22.76
30263,-0.30,7.02,-7.57,0.05,-0.10,0.15,-48.27,16.61,-22.76
30274,-0.18,6.91,-7.81,0.02,-0.14,0.18,-48.27,16.61,-22.76
30285,-0.18,6.91,-7.81,0.02,-0.14,0.18,-48.27,16.61,-22.76
30388,-0.52,6.29,-8.11,0.02,-0.01,0.00,-49.91,16.46,-22.60
30398,-0.52,6.29,-8.11,0.02,-0.01,0.00,-49.91,16.46,-22.60
30409,-0.45,6.26,-8.16,0.03,0.00,-0.01,-49.91,16.46,-22.60
30420,-0.45,6.26,-8.16,0.03,0.00,-0.01,-49.91,16.46,-22.60
30431,-0.46,6.28,-8.12,0.02,0.03,-0.00,-49.91,16.46,-22.60
30442,-0.46,6.28,-8.12,0.02,0.03,-0.00,-49.91,16.46,-22.60
30453,-0.43,6.30,-8.11,0.00,0.05,0.04,-49.91,16.46,-22.60
30464,-0.43,6.30,-8.11,0.00,0.05,0.04,-49.91,16.46,-22.60
30475,-0.35,6.31,-8.15,-0.01,0.02,0.09,-49.91,16.46,-22.60
30486,-0.35,6.31,-8.15,-0.01,0.02,0.09,-49.91,16.46,-22.60
30497,-0.41,6.31,-8.15,-0.01,-0.05,0.10,-49.44,14.68,-20.64
30508,-0.40,6.32,-8.09,-0.01,-0.08,0.10,-49.44,14.68,-20.64
30519,-0.40,6.32,-8.09,-0.01,-0.08,0.10,-49.44,14.68,-20.64
30530,-0.41,6.32,-8.11,0.00,-0.13,0.17,-49.44,14.68,-20.64
30541,-0.41,6.32,-8.11,0.00,-0.13,0.17,-49.44,14.68,-20.64
30552,-0.42,6.32,-8.10,-0.00,-0.12,0.19,-49.44,14.68,-20.64
30563,-0.42,6.32,-8.10,-0.00,-0.12,0.19,-49.44,14.68,-20.64
30666,-0.36,6.34,-8.08,0.01,-0.04,0.08,-48.50,16.76,-18.36
30676,-0.35,6.27,-8.11,0.02,-0.01,0.03,-48.50,16.76,-18.36
30687,-0.35,6.27,-8.11,0.02,-0.01,0.03,-48.50,16.76,-18.36
30698,-0.40,6.29,-8.10,0.01,0.00,0.02,-48.50,16.76,-18.36
30709,-0.41,6.32,-8.07,-0.02,0.02,0.03,-48.50,16.76,-18.36
30720,-0.41,6.32,-8.07,-0.02,0.02,0.03,-48.50,16.76,-18.36
30731,-0.35,6.36,-8.08,-0.02,0.02,0.03,-48.50,16.76,-18.36
30742,-0.35,6.36,-8.08,-0.02,0.02,0.03,-48.50,16.76,-18.36
30753,-0.36,6.36,-8.11,0.01,0.00,0.02,-49.44,16.17,-19.99
30764,-0.36,6.36,-8.11,0.01,0.00,0.02,-49.44,16.17,-19.99
30775,-0.39,6.34,-8.09,0.03,-0.00,0.03,-49.44,16.17,-19.99
30786,-0.39,6.34,-8.09,0.03,-0.00,0.03,-49.44,16.17,-19.99
30797,-0.37,6.30,-8.11,0.04,0.01,0.04,-49.44,16.17,-19.99
30897,-0.37,6.30,-8.14,0.00,0.00,0.02,-48.03,16.46,-20.64
30907,-0.37,6.30,-8.14,0.00,0.00,0.02,-48.03,16.46,-20.64
30918,-0.35,6.29,-8.14,0.02,-0.02,0.02,-48.03,16.46,-20.64
30929,-0.38,6.27,-8.11,0.05,-0.03,-0.02,-48.03,16.46,-20.64
30940,-0.38,6.27,-8.11,0.05,-0.03,-0.02,-48.03,16.46,-20.64
30951,-0.36,6.25,-8.14,0.04,-0.01,-0.01,-48.03,16.46,-20.64
30962,-0.36,6.25,-8.14,0.04,-0.01,-0.01,-48.03,16.46,-20.64
30973,-0.33,6.22,-8.15,0.04,-0.04,0.07,-48.03,16.46,-20.64
30984,-0.33,6.22,-8.15,0.04,-0.04,0.07,-48.03,16.46,-20.64
30995,-0.34,6.27,-8.20,0.06,-0.09,0.17,-49.44,16.17,-20.64
31006,-0.34,6.27,-8.20,0.06,-0.09,0.17,-49.44,16.17,-20.64
31017,-0.54,6.29,-8.17,0.06,-0.11,0.17,-49.44,16.17,-20.64
31028,-0.45,6.30,-8.13,0.04,-0.06,0.09,-49.44,16.17,-20.64
31039,-0.45,6.30,-8.13,0.04,-0.06,0.09,-49.44,16.17,-20.64
31050,-0.37,6.25,-8.16,0.02,-0.03,0.03,-49.44,16.17,-20.64
31061,-0.37,6.25,-8.16,0.02,-0.03,0.03,-49.44,16.17,-20.64
31072,-0.39,6.23,-8.17,0.01,-0.01,0.02,-49.44,16.17,-20.64
31174,-0.37,6.26,-8.19,-0.07,0.04,0.04,-50.62,15.42,-19.50
31185,-0.37,6.26,-8.19,-0.07,0.04,0.04,-50.62,15.42,-19.50
31196,-0.31,6.26,-8.16,-0.07,0.04,0.03,-50.62,15.42,-19.50
