time,ax,ay,az,gx,gy,gz,mx,my,mz
401,-0.48,6.39,-8.07,0.00,-0.01,0.01,-48.97,17.36,-21.95
411,-0.48,6.39,-8.05,0.00,-0.01,0.01,-48.97,17.36,-21.95
422,-0.48,6.39,-8.05,0.00,-0.01,0.01,-48.97,17.36,-21.95
433,0.28,7.02,-7.56,-0.01,-0.01,0.01,-48.27,16.61,-23.09
444,-0.41,6.89,-7.57,-0.04,0.04,-0.09,-48.27,16.61,-23.09
455,-0.41,6.89,-7.57,-0.04,0.04,-0.09,-48.27,16.61,-23.09
466,-1.41,5.71,-8.59,0.03,0.19,-0.18,-48.27,16.61,-23.09
477,-1.41,5.71,-8.59,0.03,0.19,-0.18,-48.27,16.61,-23.09
488,-0.44,6.09,-8.35,-0.01,0.11,-0.13,-48.27,16.61,-23.09
499,-0.44,6.09,-8.35,-0.01,0.11,-0.13,-48.27,16.61,-23.09
510,-0.53,6.42,-8.04,-0.03,-0.01,-0.02,-48.27,16.61,-23.09
521,-0.53,6.42,-8.04,-0.03,-0.01,-0.02,-48.27,16.61,-23.09
532,-0.46,6.36,-8.13,0.02,0.00,0.02,-48.27,16.61,-23.09
543,-0.48,6.39,-8.08,-0.01,-0.02,0.00,-49.44,17.36,-22.93
554,-0.48,6.39,-8.08,-0.01,-0.02,0.00,-49.44,17.36,-22.93
565,-0.45,6.37,-8.09,0.01,-0.00,0.01,-49.44,17.36,-22.93
576,-0.45,6.37,-8.09,0.01,-0.00,0.01,-49.44,17.36,-22.93
587,-0.48,6.40,-8.05,-0.00,-0.01,0.01,-49.44,17.36,-22.93
598,-0.48,6.40,-8.05,-0.00,-0.01,0.01,-49.44,17.36,-22.93
609,-0.49,6.40,-8.06,0.00,-0.01,0.01,-49.44,17.36,-22.93
620,-0.49,6.40,-8.06,0.00,-0.01,0.01,-49.44,17.36,-22.93
631,-0.49,6.38,-8.07,0.00,-0.01,0.01,-49.44,17.36,-22.93
642,-0.49,6.38,-8.07,0.00,-0.01,0.01,-49.44,17.36,-22.93
653,-0.46,6.36,-8.05,0.00,-0.01,0.01,-49.44,17.36,-22.93
665,-0.47,6.38,-8.11,0.00,-0.01,0.01,-49.68,16.32,-23.41
675,-0.47,6.38,-8.11,0.00,-0.01,0.01,-49.68,16.32,-23.41
686,-0.47,6.39,-8.08,0.00,-0.01,0.01,-49.68,16.32,-23.41
697,-0.47,6.39,-8.08,0.00,-0.01,0.01,-49.68,16.32,-23.41
708,-0.49,6.40,-8.07,0.00,-0.01,0.01,-49.68,16.32,-23.41
719,-0.49,6.40,-8.07,0.00,-0.01,0.01,-49.68,16.32,-23.41
730,-0.47,6.37,-8.06,0.00,-0.01,0.01,-49.68,16.32,-23.41
741,-0.47,6.37,-8.06,0.00,-0.01,0.01,-49.68,16.32,-23.41
752,-0.47,6.38,-8.09,0.00,-0.01,0.01,-49.68,16.32,-23.41
763,-0.46,6.39,-8.06,0.00,-0.01,0.01,-49.68,16.32,-23.41
774,-0.46,6.39,-8.06,0.00,-0.01,0.01,-49.68,16.32,-23.41
785,-0.47,6.38,-8.06,0.00,-0.01,0.01,-49.68,16.32,-23.41
796,-0.47,6.38,-8.06,0.00,-0.01,0.01,-49.68,16.32,-23.41
807,-0.48,6.39,-8.08,-0.00,-0.01,0.01,-48.50,17.06,-21.95
818,-0.48,6.39,-8.08,-0.00,-0.01,0.01,-48.50,17.06,-21.95
829,-0.46,6.38,-8.07,-0.00,-0.01,0.01,-48.50,17.06,-21.95
840,-0.46,6.38,-8.07,-0.00,-0.01,0.01,-48.50,17.06,-21.95
851,-0.45,6.36,-8.08,0.00,-0.01,0.01,-48.50,17.06,-21.95
862,-0.45,6.36,-8.08,0.00,-0.01,0.01,-48.50,17.06,-21.95
873,-0.46,6.36,-8.10,0.00,-0.01,0.01,-48.50,17.06,-21.95
884,-0.48,6.39,-8.06,0.00,-0.01,0.01,-48.50,17.06,-21.95
895,-0.48,6.39,-8.06,0.00,-0.01,0.01,-48.50,17.06,-21.95
906,-0.49,6.38,-8.07,0.00,-0.01,0.01,-48.50,17.06,-21.95
917,-0.49,6.38,-8.07,0.00,-0.01,0.01,-48.50,17.06,-21.95
928,-0.46,6.38,-8.09,0.00,-0.01,0.01,-48.27,17.21,-21.78
939,-0.46,6.38,-8.09,0.00,-0.01,0.01,-48.27,17.21,-21.78
950,-0.45,6.37,-8.09,0.00,-0.01,0.01,-48.27,17.21,-21.78
961,-0.45,6.37,-8.09,0.00,-0.01,0.01,-48.27,17.21,-21.78
972,-0.46,6.38,-8.10,0.00,-0.01,0.01,-48.27,17.21,-21.78
983,-0.46,6.38,-8.10,0.00,-0.01,0.01,-48.27,17.21,-21.78
994,-0.49,6.38,-8.05,-0.00,-0.01,0.01,-48.27,17.21,-21.78
1005,-0.47,6.38,-8.05,-0.00,-0.01,0.01,-48.27,17.21,-21.78
1016,-0.47,6.38,-8.05,-0.00,-0.01,0.01,-48.27,17.21,-21.78
1027,-0.46,6.38,-8.09,0.00,-0.01,0.01,-48.27,17.21,-21.78
1038,-0.46,6.38,-8.09,0.00,-0.01,0.01,-48.27,17.21,-21.78
1049,-0.44,6.37,-8.11,0.00,-0.01,0.01,-49.21,16.61,-22.44
1060,-0.44,6.37,-8.11,0.00,-0.01,0.01,-49.21,16.61,-22.44
1071,-0.46,6.38,-8.10,0.00,-0.01,0.01,-49.21,16.61,-22.44
1082,-0.46,6.38,-8.10,0.00,-0.01,0.01,-49.21,16.61,-22.44
1098,-0.50,6.38,-8.06,-0.00,-0.01,0.01,-49.21,16.61,-22.44
1104,-0.48,6.38,-8.08,0.00,-0.01,0.01,-49.21,16.61,-22.44
1115,-0.48,6.38,-8.08,0.00,-0.01,0.01,-49.21,16.61,-22.44
1126,-0.46,6.39,-8.09,0.00,-0.01,0.01,-49.21,16.61,-22.44
1137,-0.46,6.39,-8.09,0.00,-0.01,0.01,-49.21,16.61,-22.44
1148,-0.45,6.37,-8.12,0.00,-0.01,0.01,-49.21,16.61,-22.44
1159,-0.45,6.37,-8.12,0.00,-0.01,0.01,-49.21,16.61,-22.44
1170,-0.48,6.38,-8.08,-0.00,-0.01,0.01,-49.21,16.61,-22.44
1181,-0.48,6.38,-8.08,-0.00,-0.01,0.01,-49.21,16.61,-22.44
1192,-0.49,6.39,-8.09,-0.00,-0.01,0.01,-48.97,15.87,-22.27
1203,-0.49,6.39,-8.09,-0.00,-0.01,0.01,-48.97,15.87,-22.27
1214,-0.46,6.38,-8.09,0.00,-0.01,0.01,-48.97,15.87,-22.27
1225,-0.47,6.37,-8.10,0.00,-0.01,0.01,-48.97,15.87,-22.27
1236,-0.47,6.37,-8.10,0.00,-0.01,0.01,-48.97,15.87,-22.27
1247,-0.46,6.37,-8.07,-0.00,-0.01,0.01,-48.97,15.87,-22.27
1258,-0.46,6.37,-8.07,-0.00,-0.01,0.01,-48.97,15.87,-22.27
1269,-0.47,6.38,-8.06,-0.00,-0.01,0.01,-48.97,15.87,-22.27
1280,-0.47,6.38,-8.06,-0.00,-0.01,0.01,-48.97,15.87,-22.27
1291,-0.47,6.37,-8.06,0.00,-0.01,0.01,-48.97,15.87,-22.27
1302,-0.47,6.37,-8.06,0.00,-0.01,0.01,-48.97,15.87,-22.27
1313,-0.46,6.38,-8.10,0.00,-0.01,0.01,-48.27,16.61,-23.41
1324,-0.45,6.38,-8.05,0.00,-0.01,0.01,-48.27,16.61,-23.41
1335,-0.45,6.38,-8.05,0.00,-0.01,0.01,-48.27,16.61,-23.41
1346,-0.45,6.38,-8.09,-0.00,-0.01,0.01,-48.27,16.61,-23.41
1357,-0.45,6.38,-8.09,-0.00,-0.01,0.01,-48.27,16.61,-23.41
1368,-0.48,6.38,-8.09,-0.00,-0.01,0.01,-48.27,16.61,-23.41
1379,-0.48,6.38,-8.09,-0.00,-0.01,0.01,-48.27,16.61,-23.41
1390,-0.47,6.37,-8.06,0.00,-0.01,0.01,-48.27,16.61,-23.41
1401,-0.47,6.37,-8.06,0.00,-0.01,0.01,-48.27,16.61,-23.41
1412,-0.47,6.38,-8.06,0.00,-0.01,0.01,-48.27,16.61,-23.41
1423,-0.47,6.38,-8.06,0.00,-0.01,0.01,-48.27,16.61,-23.41
1434,-0.45,6.38,-8.08,0.00,-0.01,0.01,-47.80,16.02,-22.11
1445,-0.46,6.37,-8.06,0.00,-0.01,0.01,-47.80,16.02,-22.11
1456,-0.46,6.37,-8.06,0.00,-0.01,0.01,-47.80,16.02,-22.11
1467,-0.47,6.36,-8.07,-0.00,-0.01,0.01,-47.80,16.02,-22.11
1478,-0.47,6.36,-8.07,-0.00,-0.01,0.01,-47.80,16.02,-22.11
1489,-0.48,6.38,-8.08,-0.00,-0.01,0.01,-47.80,16.02,-22.11
1500,-0.48,6.38,-8.08,-0.00,-0.01,0.01,-47.80,16.02,-22.11
1511,-0.47,6.39,-8.08,0.00,-0.01,0.01,-47.80,16.02,-22.11
1522,-0.47,6.39,-8.08,0.00,-0.01,0.01,-47.80,16.02,-22.11
1533,-0.46,6.38,-8.09,0.00,-0.01,0.01,-47.80,16.02,-22.11
1545,-0.45,6.37,-8.08,0.00,-0.01,0.01,-48.97,16.17,-23.58
1555,-0.45,6.37,-8.08,0.00,-0.01,0.01,-48.97,16.17,-23.58
1566,-0.47,6.39,-8.08,0.00,-0.01,0.01,-48.97,16.17,-23.58
1577,-0.47,6.39,-8.08,0.00,-0.01,0.01,-48.97,16.17,-23.58
1588,-0.47,6.39,-8.06,0.00,-0.01,0.01,-48.97,16.17,-23.58
1599,-0.47,6.39,-8.06,0.00,-0.01,0.01,-48.97,16.17,-23.58
1610,-0.46,6.38,-8.09,0.00,-0.01,0.01,-48.97,16.17,-23.58
1621,-0.46,6.38,-8.09,0.00,-0.01,0.01,-48.97,16.17,-23.58
1632,-0.46,6.38,-8.07,0.00,-0.01,0.01,-48.97,16.17,-23.58
1643,-0.46,6.38,-8.07,0.00,-0.01,0.01,-48.97,16.17,-23.58
1654,-0.47,6.38,-8.08,-0.00,-0.01,0.01,-48.97,16.17,-23.58
1665,-0.48,6.38,-8.09,-0.00,-0.01,0.01,-48.97,16.17,-23.58
1676,-0.48,6.38,-8.09,-0.00,-0.01,0.01,-48.97,16.17,-23.58
1687,-0.46,6.37,-8.09,-0.00,-0.01,0.01,-49.91,17.36,-24.55
1698,-0.46,6.37,-8.09,-0.00,-0.01,0.01,-49.91,17.36,-24.55
1709,-0.46,6.39,-8.10,0.00,-0.01,0.01,-49.91,17.36,-24.55
1720,-0.46,6.39,-8.10,0.00,-0.01,0.01,-49.91,17.36,-24.55
1731,-0.46,6.37,-8.08,0.00,-0.01,0.01,-49.91,17.36,-24.55
1742,-0.46,6.37,-8.08,0.00,-0.01,0.01,-49.91,17.36,-24.55
1753,-0.47,6.38,-8.07,0.00,-0.01,0.01,-49.91,17.36,-24.55
1764,-0.47,6.39,-8.10,0.00,-0.01,0.01,-49.91,17.36,-24.55
1775,-0.47,6.39,-8.10,0.00,-0.01,0.01,-49.91,17.36,-24.55
1786,-0.46,6.39,-8.05,0.00,-0.01,0.01,-49.91,17.36,-24.55
1797,-0.46,6.39,-8.05,0.00,-0.01,0.01,-49.91,17.36,-24.55
1808,-0.46,6.38,-8.10,0.00,-0.01,0.01,-48.97,16.17,-22.27
1819,-0.46,6.38,-8.10,0.00,-0.01,0.01,-48.97,16.17,-22.27
1830,-0.47,6.38,-8.09,0.00,-0.01,0.01,-48.97,16.17,-22.27
1841,-0.47,6.38,-8.09,0.00,-0.01,0.01,-48.97,16.17,-22.27
1852,-0.46,6.38,-8.07,0.00,-0.01,0.01,-48.97,16.17,-22.27
1863,-0.46,6.38,-8.07,0.00,-0.01,0.01,-48.97,16.17,-22.27
1874,-0.48,6.38,-8.06,-0.00,-0.01,0.01,-48.97,16.17,-22.27
1885,-0.48,6.37,-8.08,0.00,-0.01,0.01,-48.97,16.17,-22.27
1896,-0.48,6.37,-8.08,0.00,-0.01,0.01,-48.97,16.17,-22.27
1907,-0.45,6.39,-8.07,-0.00,-0.01,0.01,-48.97,16.17,-22.27
1918,-0.45,6.39,-8.07,-0.00,-0.01,0.01,-48.97,16.17,-22.27
1930,-0.48,6.38,-8.11,0.00,-0.01,0.01,-48.50,17.06,-23.58
1940,-0.48,6.38,-8.11,0.00,-0.01,0.01,-48.50,17.06,-23.58
1951,-0.48,6.37,-8.09,0.00,-0.01,0.01,-48.50,17.06,-23.58
1962,-0.48,6.37,-8.09,0.00,-0.01,0.01,-48.50,17.06,-23.58
1973,-0.47,6.39,-8.07,0.00,-0.01,0.01,-48.50,17.06,-23.58
1984,-0.47,6.39,-8.07,0.00,-0.01,0.01,-48.50,17.06,-23.58
2000,-0.45,6.40,-8.07,0.00,-0.01,0.01,-48.50,17.06,-23.58
2006,-0.46,6.38,-8.08,0.00,-0.01,0.01,-48.50,17.06,-23.58
2017,-0.46,6.38,-8.08,0.00,-0.01,0.01,-48.50,17.06,-23.58
2028,-0.47,6.38,-8.09,0.00,-0.01,0.01,-48.50,17.06,-23.58
2039,-0.47,6.38,-8.09,0.00,-0.01,0.01,-48.50,17.06,-23.58
2050,-0.47,6.37,-8.08,0.00,-0.01,0.01,-48.50,17.06,-23.58
2061,-0.47,6.37,-8.08,0.00,-0.01,0.01,-48.50,17.06,-23.58
2072,-0.46,6.37,-8.09,0.00,-0.01,0.01,-49.44,16.46,-23.90
2083,-0.46,6.37,-8.09,0.00,-0.01,0.01,-49.44,16.46,-23.90
2094,-0.46,6.38,-8.07,0.00,-0.01,0.01,-49.44,16.46,-23.90
2105,-0.45,6.37,-8.09,0.00,-0.01,0.01,-49.44,16.46,-23.90
2116,-0.45,6.37,-8.09,0.00,-0.01,0.01,-49.44,16.46,-23.90
2127,-0.47,6.39,-8.06,0.00,-0.01,0.01,-49.44,16.46,-23.90
2138,-0.47,6.39,-8.06,0.00,-0.01,0.01,-49.44,16.46,-23.90
2149,-0.48,6.39,-8.09,-0.00,-0.01,0.01,-49.44,16.46,-23.90
2160,-0.48,6.39,-8.09,-0.00,-0.01,0.01,-49.44,16.46,-23.90
2171,-0.45,6.39,-8.05,0.00,-0.01,0.01,-49.44,16.46,-23.90
2182,-0.45,6.39,-8.05,0.00,-0.01,0.01,-49.44,16.46,-23.90
2193,-0.46,6.36,-8.09,0.00,-0.01,0.01,-48.03,15.87,-23.25
2204,-0.46,6.36,-8.09,0.00,-0.01,0.01,-48.03,15.87,-23.25
2215,-0.46,6.37,-8.09,0.00,-0.01,0.01,-48.03,15.87,-23.25
2226,-0.46,6.37,-8.08,0.00,-0.01,0.01,-48.03,15.87,-23.25
2237,-0.46,6.37,-8.08,0.00,-0.01,0.01,-48.03,15.87,-23.25
2248,-0.46,6.38,-8.08,0.00,-0.01,0.01,-48.03,15.87,-23.25
2259,-0.46,6.38,-8.08,0.00,-0.01,0.01,-48.03,15.87,-23.25
2270,-0.45,6.38,-8.09,0.00,-0.01,0.01,-48.03,15.87,-23.25
2285,-0.45,6.38,-8.09,0.00,-0.01,0.01,-48.03,15.87,-23.25
2292,-0.45,6.38,-8.07,0.00,-0.01,0.01,-48.03,15.87,-23.25
2303,-0.45,6.38,-8.07,0.00,-0.01,0.01,-48.03,15.87,-23.25
2314,-0.46,6.38,-8.11,0.00,-0.01,0.01,-46.85,16.02,-22.76
2325,-0.46,6.37,-8.11,0.00,-0.01,0.01,-46.85,16.02,-22.76
2336,-0.46,6.37,-8.11,0.00,-0.01,0.01,-46.85,16.02,-22.76
2347,-0.47,6.36,-8.07,-0.00,-0.01,0.01,-46.85,16.02,-22.76
2358,-0.47,6.36,-8.07,-0.00,-0.01,0.01,-46.85,16.02,-22.76
2369,-0.46,6.37,-8.10,0.00,-0.01,0.01,-46.85,16.02,-22.76
2380,-0.46,6.37,-8.10,0.00,-0.01,0.01,-46.85,16.02,-22.76
2391,-0.45,6.37,-8.09,0.00,-0.01,0.01,-46.85,16.02,-22.76
2403,-0.45,6.37,-8.09,0.00,-0.01,0.01,-46.85,16.02,-22.76
2413,-0.45,6.37,-8.06,0.00,-0.01,0.01,-46.85,16.02,-22.76
2429,-0.45,6.37,-8.06,0.00,-0.01,0.01,-46.85,16.02,-22.76
2435,-0.47,6.37,-8.09,-0.00,-0.01,0.01,-46.85,16.02,-22.76
2446,-0.46,6.38,-8.08,0.00,-0.01,0.01,-48.97,17.36,-23.25
2457,-0.46,6.38,-8.08,0.00,-0.01,0.01,-48.97,17.36,-23.25
2468,-0.46,6.38,-8.05,-0.00,-0.01,0.01,-48.97,17.36,-23.25
2479,-0.46,6.38,-8.05,-0.00,-0.01,0.01,-48.97,17.36,-23.25
2490,-0.47,6.36,-8.08,-0.00,-0.01,0.01,-48.97,17.36,-23.25
2501,-0.47,6.36,-8.08,-0.00,-0.01,0.01,-48.97,17.36,-23.25
2512,-0.46,6.38,-8.05,-0.00,-0.01,0.01,-48.97,17.36,-23.25
2523,-0.46,6.38,-8.05,-0.00,-0.01,0.01,-48.97,17.36,-23.25
2534,-0.47,6.38,-8.10,-0.00,-0.01,0.01,-48.97,17.36,-23.25
2545,-0.45,6.36,-8.08,0.00,-0.01,0.01,-48.97,17.36,-23.25
2556,-0.45,6.36,-8.08,0.00,-0.01,0.01,-48.97,17.36,-23.25
2567,-0.45,6.39,-8.08,0.00,-0.01,0.01,-48.97,17.06,-23.58
2578,-0.45,6.39,-8.08,0.00,-0.01,0.01,-48.97,17.06,-23.58
2589,-0.45,6.38,-8.07,-0.00,-0.01,0.01,-48.97,17.06,-23.58
2600,-0.45,6.38,-8.07,-0.00,-0.01,0.01,-48.97,17.06,-23.58
2611,-0.46,6.37,-8.09,-0.00,-0.01,0.01,-48.97,17.06,-23.58
2622,-0.46,6.37,-8.09,-0.00,-0.01,0.01,-48.97,17.06,-23.58
2633,-0.46,6.37,-8.07,-0.00,-0.01,0.01,-48.97,17.06,-23.58
2644,-0.46,6.37,-8.07,-0.00,-0.01,0.01,-48.97,17.06,-23.58
2655,-0.46,6.36,-8.07,0.00,-0.01,0.01,-48.97,17.06,-23.58
2666,-0.47,6.37,-8.08,0.00,-0.01,0.01,-48.97,17.06,-23.58
2677,-0.47,6.37,-8.08,0.00,-0.01,0.01,-48.97,17.06,-23.58
2688,-0.46,6.38,-8.09,0.00,-0.01,0.01,-48.74,17.51,-23.09
2699,-0.46,6.38,-8.09,0.00,-0.01,0.01,-48.74,17.51,-23.09
2710,-0.47,6.37,-8.06,0.00,-0.01,0.01,-48.74,17.51,-23.09
2721,-0.47,6.37,-8.06,0.00,-0.01,0.01,-48.74,17.51,-23.09
2732,-0.47,6.38,-8.09,0.00,-0.01,0.01,-48.74,17.51,-23.09
2743,-0.47,6.38,-8.09,0.00,-0.01,0.01,-48.74,17.51,-23.09
2754,-0.45,6.39,-8.10,0.00,-0.01,0.01,-48.74,17.51,-23.09
2765,-0.45,6.37,-8.09,0.00,-0.01,0.01,-48.74,17.51,-23.09
2776,-0.45,6.37,-8.09,0.00,-0.01,0.01,-48.74,17.51,-23.09
2787,-0.46,6.39,-8.07,0.00,-0.01,0.01,-48.74,17.51,-23.09
2798,-0.46,6.39,-8.07,0.00,-0.01,0.01,-48.74,17.51,-23.09
2809,-0.47,6.37,-8.07,0.00,-0.01,0.01,-48.74,17.51,-23.09
2820,-0.47,6.37,-8.07,0.00,-0.01,0.01,-48.74,17.51,-23.09
2832,-0.47,6.39,-8.11,0.00,-0.01,0.01,-51.33,16.17,-22.60
2842,-0.47,6.39,-8.11,0.00,-0.01,0.01,-51.33,16.17,-22.60
2853,-0.46,6.37,-8.08,0.00,-0.01,0.01,-51.33,16.17,-22.60
2864,-0.46,6.37,-8.08,0.00,-0.01,0.01,-51.33,16.17,-22.60
2875,-0.46,6.38,-8.07,0.00,-0.01,0.01,-51.33,16.17,-22.60
2886,-0.47,6.39,-8.09,0.00,-0.01,0.01,-51.33,16.17,-22.60
2897,-0.47,6.39,-8.09,0.00,-0.01,0.01,-51.33,16.17,-22.60
2908,-0.47,6.38,-8.07,0.00,-0.01,0.01,-51.33,16.17,-22.60
2919,-0.47,6.38,-8.07,0.00,-0.01,0.01,-51.33,16.17,-22.60
2930,-0.46,6.37,-8.08,-0.00,-0.01,0.01,-51.33,16.17,-22.60
2941,-0.46,6.37,-8.08,-0.00,-0.01,0.01,-51.33,16.17,-22.60
2952,-0.47,6.38,-8.10,-0.00,-0.01,0.01,-49.68,17.51,-21.78
2963,-0.47,6.38,-8.10,-0.00,-0.01,0.01,-49.68,17.51,-21.78
2974,-0.46,6.40,-8.08,0.00,-0.01,0.01,-49.68,17.51,-21.78
2985,-0.46,6.40,-8.08,0.00,-0.01,0.01,-49.68,17.51,-21.78
2996,-0.47,6.37,-8.07,-0.00,-0.01,0.01,-49.68,17.51,-21.78
3007,-0.47,6.37,-8.05,0.00,-0.01,0.01,-49.68,17.51,-21.78
3018,-0.47,6.37,-8.05,0.00,-0.01,0.01,-49.68,17.51,-21.78
3029,-0.46,6.37,-8.08,0.00,-0.01,0.01,-49.68,17.51,-21.78
3040,-0.46,6.37,-8.08,0.00,-0.01,0.01,-49.68,17.51,-21.78
3051,-0.46,6.38,-8.08,0.00,-0.01,0.01,-49.68,17.51,-21.78
3062,-0.46,6.38,-8.08,0.00,-0.01,0.01,-49.68,17.51,-21.78
3073,-0.46,6.37,-8.09,-0.00,-0.01,0.01,-48.74,17.21,-22.76
3084,-0.46,6.37,-8.09,-0.00,-0.01,0.01,-48.74,17.21,-22.76
3095,-0.46,6.37,-8.11,0.00,-0.01,0.01,-48.74,17.21,-22.76
3106,-0.46,6.37,-8.06,-0.00,-0.01,0.01,-48.74,17.21,-22.76
3117,-0.46,6.37,-8.06,-0.00,-0.01,0.01,-48.74,17.21,-22.76
3128,-0.45,6.38,-8.09,0.00,-0.01,0.01,-48.74,17.21,-22.76
3139,-0.45,6.38,-8.09,0.00,-0.01,0.01,-48.74,17.21,-22.76
3150,-0.46,6.37,-8.07,0.00,-0.01,0.01,-48.74,17.21,-22.76
3161,-0.46,6.37,-8.07,0.00,-0.01,0.01,-48.74,17.21,-22.76
3172,-0.45,6.38,-8.10,0.00,-0.01,0.01,-48.74,17.21,-22.76
3183,-0.45,6.38,-8.10,0.00,-0.01,0.01,-48.74,17.21,-22.76
3194,-0.47,6.38,-8.10,0.00,-0.01,0.01,-49.91,17.66,-21.62
3205,-0.47,6.38,-8.10,0.00,-0.01,0.01,-49.91,17.66,-21.62
3216,-0.46,6.38,-8.08,0.00,-0.01,0.01,-49.91,17.66,-21.62
3227,-0.46,6.37,-8.08,0.00,-0.01,0.01,-49.91,17.66,-21.62
3239,-0.46,6.37,-8.08,0.00,-0.01,0.01,-49.91,17.66,-21.62
3249,-0.45,6.37,-8.07,0.00,-0.01,0.01,-49.91,17.66,-21.62
3260,-0.45,6.37,-8.07,0.00,-0.01,0.01,-49.91,17.66,-21.62
3271,-0.47,6.38,-8.08,-0.00,-0.01,0.01,-49.91,17.66,-21.62
3282,-0.47,6.38,-8.08,-0.00,-0.01,0.01,-49.91,17.66,-21.62
3293,-0.47,6.38,-8.10,-0.00,-0.01,0.01,-49.91,17.66,-21.62
3304,-0.47,6.38,-8.10,-0.00,-0.01,0.01,-49.91,17.66,-21.62
3315,-0.46,6.37,-8.10,-0.00,-0.01,0.01,-49.91,17.66,-21.62
3326,-0.45,6.37,-8.09,-0.00,-0.01,0.01,-48.27,15.72,-23.09
3337,-0.45,6.37,-8.09,-0.00,-0.01,0.01,-48.27,15.72,-23.09
3348,-0.45,6.37,-8.08,-0.00,-0.01,0.01,-48.27,15.72,-23.09
3359,-0.45,6.37,-8.08,-0.00,-0.01,0.01,-48.27,15.72,-23.09
3370,-0.47,6.38,-8.10,-0.00,-0.01,0.01,-48.27,15.72,-23.09
3381,-0.47,6.38,-8.10,-0.00,-0.01,0.01,-48.27,15.72,-23.09
3392,-0.46,6.38,-8.09,-0.00,-0.01,0.01,-48.27,15.72,-23.09
3403,-0.46,6.38,-8.09,-0.00,-0.01,0.01,-48.27,15.72,-23.09
3414,-0.45,6.37,-8.10,0.00,-0.01,0.01,-48.27,15.72,-23.09
3425,-0.45,6.37,-8.10,0.00,-0.01,0.01,-48.27,15.72,-23.09
3436,-0.46,6.36,-8.08,-0.00,-0.01,0.01,-48.27,15.72,-23.09
3447,-0.45,6.37,-8.10,0.00,-0.01,0.01,-49.68,16.91,-21.13
3458,-0.45,6.37,-8.10,0.00,-0.01,0.01,-49.68,16.91,-21.13
3470,-0.47,6.38,-8.09,0.00,-0.01,0.01,-49.68,16.91,-21.13
3480,-0.47,6.38,-8.09,0.00,-0.01,0.01,-49.68,16.91,-21.13
3491,-0.47,6.37,-8.08,-0.00,-0.01,0.01,-49.68,16.91,-21.13
3502,-0.47,6.37,-8.08,-0.00,-0.01,0.01,-49.68,16.91,-21.13
3513,-0.46,6.38,-8.10,-0.00,-0.01,0.01,-49.68,16.91,-21.13
3524,-0.46,6.38,-8.10,-0.00,-0.01,0.01,-49.68,16.91,-21.13
3535,-0.44,6.38,-8.11,-0.00,-0.01,0.01,-49.68,16.91,-21.13
3546,-0.45,6.37,-8.09,-0.00,-0.01,0.01,-49.68,16.91,-21.13
3557,-0.45,6.37,-8.09,-0.00,-0.01,0.01,-49.68,16.91,-21.13
3568,-0.46,6.37,-8.11,-0.00,-0.01,0.01,-48.74,15.42,-22.76
3579,-0.46,6.37,-8.11,-0.00,-0.01,0.01,-48.74,15.42,-22.76
3590,-0.47,6.37,-8.10,-0.00,-0.01,0.01,-48.74,15.42,-22.76
3601,-0.47,6.37,-8.10,-0.00,-0.01,0.01,-48.74,15.42,-22.76
3612,-0.45,6.36,-8.08,0.00,-0.01,0.01,-48.74,15.42,-22.76
3623,-0.45,6.36,-8.08,0.00,-0.01,0.01,-48.74,15.42,-22.76
3634,-0.45,6.39,-8.09,-0.00,-0.01,0.01,-48.74,15.42,-22.76
3645,-0.45,6.39,-8.09,-0.00,-0.01,0.01,-48.74,15.42,-22.76
3656,-0.46,6.38,-8.07,-0.00,-0.01,0.01,-48.74,15.42,-22.76
3667,-0.46,6.38,-8.05,-0.00,-0.01,0.01,-48.74,15.42,-22.76
3678,-0.46,6.38,-8.05,-0.00,-0.01,0.01,-48.74,15.42,-22.76
3689,-0.45,6.37,-8.07,-0.00,-0.01,0.01,-48.74,15.42,-22.76
3700,-0.45,6.37,-8.07,-0.00,-0.01,0.01,-48.74,15.42,-22.76
3711,-0.45,6.39,-8.09,-0.00,-0.01,0.01,-49.21,16.02,-23.09
3722,-0.45,6.39,-8.09,-0.00,-0.01,0.01,-49.21,16.02,-23.09
3733,-0.46,6.38,-8.07,-0.00,-0.01,0.01,-49.21,16.02,-23.09
3744,-0.46,6.38,-8.07,-0.00,-0.01,0.01,-49.21,16.02,-23.09
3755,-0.46,6.37,-8.07,-0.00,-0.01,0.01,-49.21,16.02,-23.09
3766,-0.46,6.37,-8.07,-0.00,-0.01,0.01,-49.21,16.02,-23.09
3777,-0.46,6.37,-8.07,-0.00,-0.01,0.01,-49.21,16.02,-23.09
3788,-0.45,6.39,-8.08,0.00,-0.01,0.01,-49.21,16.02,-23.09
3799,-0.45,6.39,-8.08,0.00,-0.01,0.01,-49.21,16.02,-23.09
3810,-0.44,6.38,-8.12,0.00,-0.01,0.01,-49.21,16.02,-23.09
3821,-0.44,6.38,-8.12,0.00,-0.01,0.01,-49.21,16.02,-23.09
3832,-0.47,6.37,-8.10,0.00,-0.01,0.01,-49.68,16.02,-22.76
3843,-0.47,6.37,-8.10,0.00,-0.01,0.01,-49.68,16.02,-22.76
3854,-0.46,6.38,-8.07,-0.00,-0.01,0.01,-49.68,16.02,-22.76
3865,-0.46,6.38,-8.07,-0.00,-0.01,0.01,-49.68,16.02,-22.76
3876,-0.46,6.37,-8.07,-0.00,-0.01,0.01,-49.68,16.02,-22.76
3887,-0.46,6.38,-8.08,0.00,-0.01,0.01,-49.68,16.02,-22.76
3898,-0.46,6.38,-8.08,0.00,-0.01,0.01,-49.68,16.02,-22.76
3909,-0.46,6.38,-8.10,0.00,-0.01,0.01,-49.68,16.02,-22.76
3921,-0.46,6.38,-8.10,0.00,-0.01,0.01,-49.68,16.02,-22.76
3931,-0.45,6.38,-8.08,-0.00,-0.01,0.01,-49.68,16.02,-22.76
3942,-0.45,6.38,-8.08,-0.00,-0.01,0.01,-49.68,16.02,-22.76
3953,-0.47,6.37,-8.10,-0.00,-0.01,0.01,-49.21,16.91,-23.74
3964,-0.47,6.37,-8.10,-0.00,-0.01,0.01,-49.21,16.91,-23.74
3975,-0.46,6.38,-8.09,-0.00,-0.01,0.01,-49.21,16.91,-23.74
3991,-0.46,6.38,-8.09,-0.00,-0.01,0.01,-49.21,16.91,-23.74
3997,-0.46,6.36,-8.08,-0.00,-0.01,0.01,-49.21,16.91,-23.74
4008,-0.45,6.36,-8.09,0.00,-0.01,0.01,-49.21,16.91,-23.74
4019,-0.45,6.36,-8.09,0.00,-0.01,0.01,-49.21,16.91,-23.74
4030,-0.48,6.37,-8.07,0.00,-0.01,0.01,-49.21,16.91,-23.74
4041,-0.48,6.37,-8.07,0.00,-0.01,0.01,-49.21,16.91,-23.74
4052,-0.46,6.37,-8.09,-0.00,-0.01,0.01,-49.21,16.91,-23.74
4063,-0.46,6.37,-8.09,-0.00,-0.01,0.01,-49.21,16.91,-23.74
4074,-0.47,6.38,-8.09,0.00,-0.01,0.01,-49.21,16.91,-23.74
4085,-0.47,6.38,-8.09,0.00,-0.01,0.01,-49.21,16.91,-23.74
4096,-0.46,6.39,-8.10,-0.00,-0.01,0.01,-48.27,17.21,-22.76
4107,-0.45,6.36,-8.09,0.00,-0.01,0.01,-48.27,17.21,-22.76
4118,-0.45,6.36,-8.09,0.00,-0.01,0.01,-48.27,17.21,-22.76
4129,-0.46,6.36,-8.08,-0.00,-0.01,0.01,-48.27,17.21,-22.76
4140,-0.46,6.36,-8.08,-0.00,-0.01,0.01,-48.27,17.21,-22.76
4152,-0.45,6.39,-8.07,0.00,-0.01,0.01,-48.27,17.21,-22.76
4162,-0.45,6.39,-8.07,0.00,-0.01,0.01,-48.27,17.21,-22.76
4173,-0.45,6.37,-8.07,0.00,-0.01,0.01,-48.27,17.21,-22.76
4184,-0.45,6.37,-8.07,0.00,-0.01,0.01,-48.27,17.21,-22.76
4195,-0.45,6.36,-8.08,0.00,-0.01,0.01,-48.27,17.21,-22.76
4206,-0.45,6.36,-8.08,0.00,-0.01,0.01,-48.27,17.21,-22.76
4217,-0.46,6.38,-8.09,-0.00,-0.01,0.01,-49.21,17.80,-22.76
4228,-0.46,6.37,-8.08,0.00,-0.01,0.01,-49.21,17.80,-22.76
4239,-0.46,6.37,-8.08,0.00,-0.01,0.01,-49.21,17.80,-22.76
4250,-0.47,6.38,-8.06,0.00,-0.01,0.01,-49.21,17.80,-22.76
4261,-0.47,6.38,-8.06,0.00,-0.01,0.01,-49.21,17.80,-22.76
4272,-0.46,6.37,-8.06,-0.00,-0.01,0.01,-49.21,17.80,-22.76
4283,-0.46,6.37,-8.06,-0.00,-0.01,0.01,-49.21,17.80,-22.76
4294,-0.46,6.38,-8.07,-0.00,-0.01,0.01,-49.21,17.80,-22.76
4305,-0.46,6.38,-8.07,-0.00,-0.01,0.01,-49.21,17.80,-22.76
4316,-0.46,6.38,-8.10,-0.00,-0.01,0.01,-49.21,17.80,-22.76
4327,-0.47,6.37,-8.08,-0.00,-0.01,0.01,-48.03,16.76,-21.95
4338,-0.47,6.37,-8.08,-0.00,-0.01,0.01,-48.03,16.76,-21.95
4349,-0.46,6.38,-8.06,0.00,-0.01,0.01,-48.03,16.76,-21.95
4360,-0.46,6.38,-8.06,0.00,-0.01,0.01,-48.03,16.76,-21.95
4371,-0.44,6.39,-8.07,-0.00,-0.01,0.01,-48.03,16.76,-21.95
4382,-0.44,6.39,-8.07,-0.00,-0.01,0.01,-48.03,16.76,-21.95
4393,-0.46,6.38,-8.06,-0.00,-0.01,0.01,-48.03,16.76,-21.95
4404,-0.46,6.38,-8.06,-0.00,-0.01,0.01,-48.03,16.76,-21.95
4415,-0.45,6.37,-8.08,-0.00,-0.01,0.01,-48.03,16.76,-21.95
4426,-0.45,6.37,-8.08,-0.00,-0.01,0.01,-48.03,16.76,-21.95
4437,-0.47,6.39,-8.09,-0.00,-0.01,0.01,-48.03,16.76,-21.95
4448,-0.45,6.38,-8.10,0.00,-0.01,0.01,-49.68,16.91,-23.09
4464,-0.45,6.38,-8.10,0.00,-0.01,0.01,-49.68,16.91,-23.09
4470,-0.45,6.38,-8.11,0.00,-0.01,0.01,-49.68,16.91,-23.09
4481,-0.45,6.38,-8.11,0.00,-0.01,0.01,-49.68,16.91,-23.09
4492,-0.46,6.36,-8.10,-0.00,-0.01,0.01,-49.68,16.91,-23.09
4503,-0.46,6.36,-8.10,-0.00,-0.01,0.01,-49.68,16.91,-23.09
4514,-0.46,6.39,-8.10,0.00,-0.01,0.01,-49.68,16.91,-23.09
4525,-0.46,6.39,-8.10,0.00,-0.01,0.01,-49.68,16.91,-23.09
4537,-0.45,6.39,-8.08,-0.00,-0.01,0.01,-49.68,16.91,-23.09
4547,-0.45,6.37,-8.07,0.00,-0.01,0.01,-49.68,16.91,-23.09
4558,-0.45,6.37,-8.07,0.00,-0.01,0.01,-49.68,16.91,-23.09
4569,-0.46,6.37,-8.08,0.00,-0.01,0.01,-49.68,16.91,-23.09
4580,-0.46,6.37,-8.08,0.00,-0.01,0.01,-49.68,16.91,-23.09
4591,-0.47,6.37,-8.10,0.00,-0.01,0.01,-46.85,17.51,-21.78
4602,-0.47,6.37,-8.10,0.00,-0.01,0.01,-46.85,17.51,-21.78
4613,-0.47,6.38,-8.08,0.00,-0.01,0.01,-46.85,17.51,-21.78
4624,-0.47,6.38,-8.08,0.00,-0.01,0.01,-46.85,17.51,-21.78
4635,-0.46,6.40,-8.08,-0.00,-0.01,0.01,-46.85,17.51,-21.78
4646,-0.46,6.40,-8.08,-0.00,-0.01,0.01,-46.85,17.51,-21.78
4657,-0.45,6.38,-8.09,0.00,-0.01,0.01,-46.85,17.51,-21.78
4668,-0.45,6.38,-8.11,0.00,-0.01,0.01,-46.85,17.51,-21.78
4679,-0.45,6.38,-8.11,0.00,-0.01,0.01,-46.85,17.51,-21.78
4690,-0.45,6.37,-8.11,0.00,-0.01,0.01,-46.85,17.51,-21.78
4701,-0.45,6.37,-8.11,0.00,-0.01,0.01,-46.85,17.51,-21.78
4712,-0.47,6.39,-8.10,0.00,-0.01,0.01,-48.74,16.32,-22.76
4723,-0.47,6.39,-8.10,0.00,-0.01,0.01,-48.74,16.32,-22.76
4734,-0.47,6.38,-8.10,0.00,-0.01,0.01,-48.74,16.32,-22.76
4745,-0.47,6.38,-8.10,0.00,-0.01,0.01,-48.74,16.32,-22.76
4756,-0.47,6.37,-8.10,0.00,-0.01,0.01,-48.74,16.32,-22.76
4767,-0.45,6.39,-8.10,-0.00,-0.01,0.01,-48.74,16.32,-22.76
4778,-0.45,6.39,-8.10,-0.00,-0.01,0.01,-48.74,16.32,-22.76
4789,-0.46,6.39,-8.09,-0.00,-0.01,0.01,-48.74,16.32,-22.76
4800,-0.46,6.39,-8.09,-0.00,-0.01,0.01,-48.74,16.32,-22.76
4811,-0.46,6.38,-8.10,0.00,-0.01,0.01,-48.74,16.32,-22.76
4822,-0.46,6.38,-8.10,0.00,-0.01,0.01,-48.74,16.32,-22.76
4833,-0.47,6.38,-8.12,0.00,-0.01,0.01,-49.21,17.21,-23.09
4844,-0.47,6.38,-8.12,0.00,-0.01,0.01,-49.21,17.21,-23.09
4855,-0.46,6.39,-8.09,0.00,-0.01,0.01,-49.21,17.21,-23.09
4866,-0.46,6.39,-8.09,0.00,-0.01,0.01,-49.21,17.21,-23.09
4877,-0.46,6.38,-8.08,0.00,-0.01,0.01,-49.21,17.21,-23.09
4888,-0.47,6.37,-8.06,0.00,-0.01,0.01,-49.21,17.21,-23.09
4899,-0.47,6.37,-8.06,0.00,-0.01,0.01,-49.21,17.21,-23.09
4910,-0.46,6.38,-8.10,-0.00,-0.01,0.01,-49.21,17.21,-23.09
4921,-0.46,6.38,-8.10,-0.00,-0.01,0.01,-49.21,17.21,-23.09
4932,-0.46,6.37,-8.10,0.00,-0.01,0.01,-49.21,17.21,-23.09
4943,-0.46,6.37,-8.10,0.00,-0.01,0.01,-49.21,17.21,-23.09
4954,-0.46,6.37,-8.08,0.00,-0.01,0.01,-49.21,17.21,-23.09
4965,-0.46,6.37,-8.08,0.00,-0.01,0.01,-49.21,17.21,-23.09
4976,-0.45,6.37,-8.10,-0.00,-0.01,0.01,-48.50,17.06,-21.62
4987,-0.45,6.37,-8.10,-0.00,-0.01,0.01,-48.50,17.06,-21.62
4998,-0.46,6.37,-8.10,0.00,-0.01,0.01,-48.50,17.06,-21.62
5009,-0.46,6.37,-8.08,-0.00,-0.01,0.01,-48.50,17.06,-21.62
5020,-0.46,6.37,-8.08,-0.00,-0.01,0.01,-48.50,17.06,-21.62
5031,-0.46,6.36,-8.08,0.00,-0.01,0.01,-48.50,17.06,-21.62
5042,-0.46,6.36,-8.08,0.00,-0.01,0.01,-48.50,17.06,-21.62
5053,-0.45,6.37,-8.07,0.00,-0.01,0.01,-48.50,17.06,-21.62
5064,-0.45,6.37,-8.07,0.00,-0.01,0.01,-48.50,17.06,-21.62
5075,-0.46,6.36,-8.11,-0.00,-0.01,0.01,-48.50,17.06,-21.62
5086,-0.46,6.36,-8.11,-0.00,-0.01,0.01,-48.50,17.06,-21.62
5097,-0.45,6.38,-8.09,0.00,-0.01,0.01,-49.44,15.87,-23.25
5108,-0.47,6.39,-8.09,0.00,-0.01,0.01,-49.44,15.87,-23.25
5119,-0.47,6.39,-8.09,0.00,-0.01,0.01,-49.44,15.87,-23.25
5130,-0.46,6.37,-8.07,0.00,-0.01,0.01,-49.44,15.87,-23.25
5141,-0.46,6.37,-8.07,0.00,-0.01,0.01,-49.44,15.87,-23.25
5152,-0.45,6.38,-8.09,0.00,-0.01,0.01,-49.44,15.87,-23.25
5163,-0.45,6.38,-8.09,0.00,-0.01,0.01,-49.44,15.87,-23.25
5174,-0.47,6.38,-8.08,-0.00,-0.01,0.01,-49.44,15.87,-23.25
5185,-0.47,6.38,-8.08,-0.00,-0.01,0.01,-49.44,15.87,-23.25
5196,-0.47,6.37,-8.09,-0.00,-0.01,0.01,-49.44,15.87,-23.25
5207,-0.47,6.37,-8.09,-0.00,-0.01,0.01,-49.44,15.87,-23.25
5218,-0.47,6.38,-8.11,-0.00,-0.01,0.01,-48.03,16.76,-22.93
5229,-0.44,6.37,-8.10,0.00,-0.01,0.01,-48.03,16.76,-22.93
5240,-0.44,6.37,-8.10,0.00,-0.01,0.01,-48.03,16.76,-22.93
5251,-0.45,6.35,-8.10,0.00,-0.01,0.01,-48.03,16.76,-22.93
5262,-0.45,6.35,-8.10,0.00,-0.01,0.01,-48.03,16.76,-22.93
5273,-0.48,6.37,-8.10,0.00,-0.01,0.01,-48.03,16.76,-22.93
5284,-0.48,6.37,-8.10,0.00,-0.01,0.01,-48.03,16.76,-22.93
5296,-0.46,6.38,-8.08,-0.00,-0.01,0.01,-48.03,16.76,-22.93
5306,-0.46,6.38,-8.08,-0.00,-0.01,0.01,-48.03,16.76,-22.93
5317,-0.45,6.38,-8.09,-0.00,-0.01,0.01,-48.03,16.76,-22.93
5328,-0.44,6.38,-8.08,-0.00,-0.01,0.01,-48.03,16.76,-22.93
5339,-0.44,6.38,-8.08,-0.00,-0.01,0.01,-48.03,16.76,-22.93
5350,-0.45,6.38,-8.10,0.00,-0.01,0.01,-46.85,17.80,-23.41
5366,-0.45,6.38,-8.10,0.00,-0.01,0.01,-46.85,17.80,-23.41
5372,-0.45,6.37,-8.09,0.00,-0.01,0.01,-46.85,17.80,-23.41
5383,-0.45,6.37,-8.09,0.00,-0.01,0.01,-46.85,17.80,-23.41
5394,-0.46,6.38,-8.08,-0.00,-0.01,0.01,-46.85,17.80,-23.41
5405,-0.46,6.38,-8.08,-0.00,-0.01,0.01,-46.85,17.80,-23.41
5416,-0.45,6.38,-8.09,0.00,-0.01,0.01,-46.85,17.80,-23.41
5427,-0.45,6.38,-8.09,0.00,-0.01,0.01,-46.85,17.80,-23.41
5438,-0.45,6.36,-8.08,0.00,-0.01,0.01,-46.85,17.80,-23.41
5449,-0.46,6.37,-8.07,-0.00,-0.01,0.01,-46.85,17.80,-23.41
5460,-0.46,6.37,-8.07,-0.00,-0.01,0.01,-46.85,17.80,-23.41
5471,-0.46,6.37,-8.12,-0.00,-0.01,0.01,-49.21,17.21,-22.11
5482,-0.46,6.37,-8.12,-0.00,-0.01,0.01,-49.21,17.21,-22.11
5493,-0.46,6.37,-8.10,-0.00,-0.01,0.01,-49.21,17.21,-22.11
5504,-0.46,6.37,-8.10,-0.00,-0.01,0.01,-49.21,17.21,-22.11
5515,-0.45,6.37,-8.08,0.00,-0.01,0.01,-49.21,17.21,-22.11
5526,-0.45,6.37,-8.08,0.00,-0.01,0.01,-49.21,17.21,-22.11
5537,-0.45,6.36,-8.08,0.00,-0.01,0.01,-49.21,17.21,-22.11
5548,-0.46,6.36,-8.07,0.00,-0.01,0.01,-49.21,17.21,-22.11
5559,-0.46,6.36,-8.07,0.00,-0.01,0.01,-49.21,17.21,-22.11
5570,-0.46,6.37,-8.06,-0.00,-0.01,0.01,-49.21,17.21,-22.11
5581,-0.46,6.37,-8.06,-0.00,-0.01,0.01,-49.21,17.21,-22.11
5592,-0.45,6.37,-8.10,0.00,-0.01,0.01,-47.56,17.06,-23.25
5603,-0.45,6.37,-8.10,0.00,-0.01,0.01,-47.56,17.06,-23.25
5614,-0.45,6.37,-8.11,-0.00,-0.01,0.01,-47.56,17.06,-23.25
5625,-0.45,6.37,-8.11,-0.00,-0.01,0.01,-47.56,17.06,-23.25
5636,-0.45,6.37,-8.09,-0.00,-0.01,0.01,-47.56,17.06,-23.25
5647,-0.45,6.37,-8.09,-0.00,-0.01,0.01,-47.56,17.06,-23.25
5658,-0.46,6.36,-8.07,-0.00,-0.01,0.01,-47.56,17.06,-23.25
5669,-0.45,6.37,-8.08,0.00,-0.01,0.01,-47.56,17.06,-23.25
5680,-0.45,6.37,-8.08,0.00,-0.01,0.01,-47.56,17.06,-23.25
5691,-0.45,6.36,-8.08,-0.00,-0.01,0.01,-47.56,17.06,-23.25
5702,-0.45,6.36,-8.08,-0.00,-0.01,0.01,-47.56,17.06,-23.25
5713,-0.45,6.36,-8.08,0.00,-0.01,0.01,-47.56,17.06,-23.25
5724,-0.45,6.36,-8.08,0.00,-0.01,0.01,-47.56,17.06,-23.25
5735,-0.44,6.37,-8.11,0.00,-0.01,0.01,-48.97,17.36,-23.25
5746,-0.44,6.37,-8.11,0.00,-0.01,0.01,-48.97,17.36,-23.25
5757,-0.46,6.38,-8.07,0.00,-0.01,0.01,-48.97,17.36,-23.25
5768,-0.46,6.39,-8.08,-0.00,-0.01,0.01,-48.97,17.36,-23.25
5779,-0.46,6.39,-8.08,-0.00,-0.01,0.01,-48.97,17.36,-23.25
5791,-0.45,6.37,-8.11,0.00,-0.01,0.01,-48.97,17.36,-23.25
5801,-0.45,6.37,-8.11,0.00,-0.01,0.01,-48.97,17.36,-23.25
5812,-0.47,6.37,-8.06,0.00,-0.01,0.01,-48.97,17.36,-23.25
5823,-0.47,6.37,-8.06,0.00,-0.01,0.01,-48.97,17.36,-23.25
5834,-0.45,6.36,-8.07,-0.00,-0.01,0.01,-48.97,17.36,-23.25
5845,-0.45,6.36,-8.07,-0.00,-0.01,0.01,-48.97,17.36,-23.25
5856,-0.45,6.37,-8.12,0.00,-0.01,0.01,-47.80,17.51,-22.76
5867,-0.45,6.37,-8.12,0.00,-0.01,0.01,-47.80,17.51,-22.76
5878,-0.46,6.36,-8.08,-0.00,-0.01,0.01,-47.80,17.51,-22.76
5889,-0.45,6.36,-8.07,0.00,-0.01,0.01,-47.80,17.51,-22.76
5900,-0.45,6.36,-8.07,0.00,-0.01,0.01,-47.80,17.51,-22.76
5911,-0.46,6.38,-8.08,0.00,-0.01,0.01,-47.80,17.51,-22.76
5922,-0.46,6.38,-8.08,0.00,-0.01,0.01,-47.80,17.51,-22.76
5933,-0.45,6.38,-8.09,0.00,-0.01,0.01,-47.80,17.51,-22.76
5944,-0.45,6.38,-8.09,0.00,-0.01,0.01,-47.80,17.51,-22.76
5955,-0.45,6.38,-8.07,-0.00,-0.01,0.01,-47.80,17.51,-22.76
5966,-0.45,6.38,-8.07,-0.00,-0.01,0.01,-47.80,17.51,-22.76
5982,-0.45,6.37,-8.08,-0.00,-0.01,0.01,-47.80,16.02,-23.41
5988,-0.44,6.38,-8.09,0.00,-0.01,0.01,-47.80,16.02,-23.41
5999,-0.44,6.38,-8.09,0.00,-0.01,0.01,-47.80,16.02,-23.41
6010,-0.47,6.38,-8.07,0.00,-0.01,0.01,-47.80,16.02,-23.41
6021,-0.47,6.38,-8.07,0.00,-0.01,0.01,-47.80,16.02,-23.41
6032,-0.46,6.38,-8.08,-0.00,-0.01,0.01,-47.80,16.02,-23.41
6043,-0.46,6.38,-8.08,-0.00,-0.01,0.01,-47.80,16.02,-23.41
6054,-0.46,6.36,-8.08,0.00,-0.01,0.01,-47.80,16.02,-23.41
6065,-0.46,6.36,-8.08,0.00,-0.01,0.01,-47.80,16.02,-23.41
6076,-0.47,6.38,-8.09,0.00,-0.01,0.01,-47.80,16.02,-23.41
6087,-0.47,6.38,-8.09,0.00,-0.01,0.01,-47.80,16.02,-23.41
6098,-0.44,6.36,-8.10,0.00,-0.01,0.01,-48.74,16.61,-22.11
6109,-0.44,6.37,-8.08,0.00,-0.01,0.01,-48.74,16.61,-22.11
6120,-0.44,6.37,-8.08,0.00,-0.01,0.01,-48.74,16.61,-22.11
6131,-0.46,6.39,-8.09,-0.00,-0.01,0.01,-48.74,16.61,-22.11
6142,-0.46,6.39,-8.09,-0.00,-0.01,0.01,-48.74,16.61,-22.11
6153,-0.46,6.40,-8.08,-0.00,-0.01,0.01,-48.74,16.61,-22.11
6164,-0.46,6.40,-8.08,-0.00,-0.01,0.01,-48.74,16.61,-22.11
6175,-0.46,6.37,-8.13,0.00,-0.01,0.01,-48.74,16.61,-22.11
6186,-0.46,6.37,-8.13,0.00,-0.01,0.01,-48.74,16.61,-22.11
6197,-0.46,6.36,-8.09,-0.00,-0.01,0.01,-48.74,16.61,-22.11
6208,-0.46,6.36,-8.09,-0.00,-0.01,0.01,-48.74,16.61,-22.11
6219,-0.45,6.38,-8.09,-0.00,-0.01,0.01,-48.74,16.61,-22.11
6230,-0.45,6.37,-8.09,0.00,-0.01,0.01,-48.97,15.87,-22.93
6242,-0.45,6.37,-8.09,0.00,-0.01,0.01,-48.97,15.87,-22.93
6252,-0.46,6.36,-8.09,0.00,-0.01,0.01,-48.97,15.87,-22.93
6263,-0.46,6.36,-8.09,0.00,-0.01,0.01,-48.97,15.87,-22.93
6274,-0.45,6.37,-8.09,0.00,-0.01,0.01,-48.97,15.87,-22.93
6285,-0.45,6.37,-8.09,0.00,-0.01,0.01,-48.97,15.87,-22.93
6296,-0.45,6.37,-8.10,-0.00,-0.01,0.01,-48.97,15.87,-22.93
6307,-0.45,6.37,-8.10,-0.00,-0.01,0.01,-48.97,15.87,-22.93
6318,-0.45,6.36,-8.07,-0.00,-0.01,0.01,-48.97,15.87,-22.93
6329,-0.45,6.36,-8.08,-0.00,-0.01,0.01,-48.97,15.87,-22.93
6340,-0.45,6.36,-8.08,-0.00,-0.01,0.01,-48.97,15.87,-22.93
6351,-0.46,6.37,-8.09,-0.00,-0.01,0.01,-47.09,17.36,-22.93
6362,-0.46,6.37,-8.09,-0.00,-0.01,0.01,-47.09,17.36,-22.93
6373,-0.46,6.37,-8.10,0.00,-0.01,0.01,-47.09,17.36,-22.93
6384,-0.46,6.37,-8.10,0.00,-0.01,0.01,-47.09,17.36,-22.93
6395,-0.44,6.36,-8.10,0.00,-0.01,0.01,-47.09,17.36,-22.93
6406,-0.44,6.36,-8.10,0.00,-0.01,0.01,-47.09,17.36,-22.93
6417,-0.44,6.37,-8.07,0.00,-0.01,0.01,-47.09,17.36,-22.93
6428,-0.44,6.37,-8.07,0.00,-0.01,0.01,-47.09,17.36,-22.93
6439,-0.45,6.37,-8.09,-0.00,-0.01,0.01,-47.09,17.36,-22.93
6450,-0.46,6.37,-8.05,0.00,-0.01,0.01,-47.09,17.36,-22.93
6461,-0.46,6.37,-8.05,0.00,-0.01,0.01,-47.09,17.36,-22.93
6472,-0.46,6.36,-8.07,0.00,-0.01,0.01,-50.86,17.06,-22.60
6483,-0.46,6.36,-8.07,0.00,-0.01,0.01,-50.86,17.06,-22.60
6494,-0.45,6.37,-8.09,-0.00,-0.01,0.01,-50.86,17.06,-22.60
6505,-0.45,6.37,-8.09,-0.00,-0.01,0.01,-50.86,17.06,-22.60
6516,-0.46,6.37,-8.09,-0.00,-0.01,0.01,-50.86,17.06,-22.60
6527,-0.46,6.37,-8.09,-0.00,-0.01,0.01,-50.86,17.06,-22.60
6538,-0.46,6.37,-8.10,0.00,-0.01,0.01,-50.86,17.06,-22.60
6549,-0.45,6.37,-8.11,-0.00,-0.01,0.01,-50.86,17.06,-22.60
6560,-0.45,6.37,-8.11,-0.00,-0.01,0.01,-50.86,17.06,-22.60
6571,-0.45,6.35,-8.09,0.00,-0.01,0.01,-50.86,17.06,-22.60
6582,-0.45,6.35,-8.09,0.00,-0.01,0.01,-50.86,17.06,-22.60
6598,-0.45,6.36,-8.09,0.00,-0.01,0.01,-50.86,17.06,-22.60
6604,-0.45,6.36,-8.09,0.00,-0.01,0.01,-50.86,17.06,-22.60
6615,-0.46,6.36,-8.10,-0.00,-0.01,0.01,-48.27,16.91,-23.41
6626,-0.46,6.36,-8.10,-0.00,-0.01,0.01,-48.27,16.91,-23.41
6637,-0.45,6.37,-8.07,-0.00,-0.01,0.01,-48.27,16.91,-23.41
6648,-0.45,6.37,-8.07,-0.00,-0.01,0.01,-48.27,16.91,-23.41
6659,-0.46,6.38,-8.07,-0.00,-0.01,0.01,-48.27,16.91,-23.41
6670,-0.45,6.37,-8.09,0.00,-0.01,0.01,-48.27,16.91,-23.41
6681,-0.45,6.37,-8.09,0.00,-0.01,0.01,-48.27,16.91,-23.41
6692,-0.46,6.37,-8.08,0.00,-0.01,0.01,-48.27,16.91,-23.41
6703,-0.46,6.37,-8.08,0.00,-0.01,0.01,-48.27,16.91,-23.41
6714,-0.47,6.37,-8.09,-0.00,-0.01,0.01,-48.27,16.91,-23.41
6725,-0.47,6.37,-8.09,-0.00,-0.01,0.01,-48.27,16.91,-23.41
6736,-0.46,6.38,-8.07,0.00,-0.01,0.01,-49.21,17.21,-23.09
6747,-0.46,6.38,-8.07,0.00,-0.01,0.01,-49.21,17.21,-23.09
6758,-0.44,6.38,-8.08,0.00,-0.01,0.01,-49.21,17.21,-23.09
6769,-0.44,6.37,-8.09,0.00,-0.01,0.01,-49.21,17.21,-23.09
6780,-0.44,6.37,-8.09,0.00,-0.01,0.01,-49.21,17.21,-23.09
6791,-0.45,6.37,-8.09,0.00,-0.01,0.01,-49.21,17.21,-23.09
6802,-0.45,6.37,-8.09,0.00,-0.01,0.01,-49.21,17.21,-23.09
6813,-0.45,6.39,-8.08,-0.00,-0.01,0.01,-49.21,17.21,-23.09
6824,-0.45,6.39,-8.08,-0.00,-0.01,0.01,-49.21,17.21,-23.09
6835,-0.45,6.38,-8.10,-0.00,-0.01,0.01,-49.21,17.21,-23.09
6846,-0.45,6.38,-8.10,-0.00,-0.01,0.01,-49.21,17.21,-23.09
6857,-0.46,6.37,-8.10,-0.00,-0.01,0.01,-49.68,16.32,-23.41
6868,-0.46,6.37,-8.10,-0.00,-0.01,0.01,-49.68,16.32,-23.41
6879,-0.46,6.36,-8.10,-0.00,-0.01,0.01,-49.68,16.32,-23.41
6890,-0.46,6.37,-8.07,-0.00,-0.01,0.01,-49.68,16.32,-23.41
6901,-0.46,6.37,-8.07,-0.00,-0.01,0.01,-49.68,16.32,-23.41
6912,-0.46,6.38,-8.08,0.00,-0.01,0.01,-49.68,16.32,-23.41
6923,-0.46,6.38,-8.08,0.00,-0.01,0.01,-49.68,16.32,-23.41
6934,-0.47,6.37,-8.06,0.00,-0.01,0.01,-49.68,16.32,-23.41
6945,-0.47,6.37,-8.06,0.00,-0.01,0.01,-49.68,16.32,-23.41
6956,-0.45,6.36,-8.08,0.00,-0.01,0.01,-49.68,16.32,-23.41
6967,-0.45,6.36,-8.08,0.00,-0.01,0.01,-49.68,16.32,-23.41
6978,-0.47,6.37,-8.10,-0.00,-0.01,0.01,-49.68,16.32,-23.41
6989,-0.46,6.38,-8.12,-0.00,-0.01,0.01,-49.68,16.32,-23.41
7001,-0.46,6.38,-8.12,-0.00,-0.01,0.01,-47.56,16.17,-23.25
7011,-0.46,6.40,-8.08,-0.00,-0.01,0.01,-47.56,16.17,-23.25
7022,-0.46,6.40,-8.08,-0.00,-0.01,0.01,-47.56,16.17,-23.25
7033,-0.46,6.38,-8.09,-0.00,-0.01,0.01,-47.56,16.17,-23.25
7044,-0.46,6.38,-8.09,-0.00,-0.01,0.01,-47.56,16.17,-23.25
7055,-0.45,6.37,-8.08,-0.00,-0.01,0.01,-47.56,16.17,-23.25
7066,-0.45,6.37,-8.08,-0.00,-0.01,0.01,-47.56,16.17,-23.25
7077,-0.46,6.38,-8.10,-0.00,-0.01,0.01,-47.56,16.17,-23.25
7088,-0.46,6.38,-8.10,-0.00,-0.01,0.01,-47.56,16.17,-23.25
7099,-0.47,6.37,-8.10,-0.00,-0.01,0.01,-47.56,16.17,-23.25
7110,-0.45,6.37,-8.08,0.00,-0.01,0.01,-46.85,16.32,-21.78
7121,-0.45,6.37,-8.08,0.00,-0.01,0.01,-46.85,16.32,-21.78
7132,-0.47,6.38,-8.09,0.00,-0.01,0.01,-46.85,16.32,-21.78
7143,-0.47,6.38,-8.09,0.00,-0.01,0.01,-46.85,16.32,-21.78
7154,-0.45,6.37,-8.10,0.00,-0.01,0.01,-46.85,16.32,-21.78
7165,-0.45,6.37,-8.10,0.00,-0.01,0.01,-46.85,16.32,-21.78
7176,-0.46,6.38,-8.08,-0.00,-0.01,0.01,-46.85,16.32,-21.78
7187,-0.46,6.38,-8.08,-0.00,-0.01,0.01,-46.85,16.32,-21.78
7198,-0.46,6.37,-8.10,-0.00,-0.01,0.01,-46.85,16.32,-21.78
7209,-0.46,6.37,-8.10,-0.00,-0.01,0.01,-46.85,16.32,-21.78
7220,-0.45,6.37,-8.10,0.00,-0.01,0.01,-46.85,16.32,-21.78
7231,-0.45,6.38,-8.11,-0.00,-0.01,0.01,-48.27,16.32,-22.44
7242,-0.45,6.38,-8.11,-0.00,-0.01,0.01,-48.27,16.32,-22.44
7253,-0.46,6.39,-8.09,0.00,-0.01,0.01,-48.27,16.32,-22.44
7264,-0.46,6.39,-8.09,0.00,-0.01,0.01,-48.27,16.32,-22.44
7275,-0.46,6.36,-8.09,0.00,-0.01,0.01,-48.27,16.32,-22.44
7286,-0.46,6.36,-8.09,0.00,-0.01,0.01,-48.27,16.32,-22.44
7297,-0.45,6.37,-8.06,-0.00,-0.01,0.01,-48.27,16.32,-22.44
7308,-0.45,6.37,-8.06,-0.00,-0.01,0.01,-48.27,16.32,-22.44
7319,-0.46,6.36,-8.06,-0.00,-0.01,0.01,-48.27,16.32,-22.44
7330,-0.49,6.42,-8.11,-0.00,-0.01,0.01,-48.27,16.32,-22.44
7341,-0.49,6.42,-8.11,-0.00,-0.01,0.01,-48.27,16.32,-22.44
7352,-0.40,6.37,-8.10,0.00,-0.01,0.01,-49.44,16.76,-22.27
7363,-0.40,6.37,-8.10,0.00,-0.01,0.01,-49.44,16.76,-22.27
7374,-0.43,6.37,-8.11,0.00,-0.01,0.01,-49.44,16.76,-22.27
7385,-0.43,6.37,-8.11,0.00,-0.01,0.01,-49.44,16.76,-22.27
7396,-0.52,6.40,-8.07,-0.00,-0.01,0.01,-49.44,16.76,-22.27
7407,-0.52,6.40,-8.07,-0.00,-0.01,0.01,-49.44,16.76,-22.27
7418,-0.51,6.38,-8.09,0.00,-0.01,0.01,-49.44,16.76,-22.27
7429,-0.51,6.38,-8.09,0.00,-0.01,0.01,-49.44,16.76,-22.27
7440,-0.44,6.38,-8.09,0.00,-0.01,0.01,-49.44,16.76,-22.27
7451,-0.44,6.39,-8.11,0.00,-0.01,0.01,-49.44,16.76,-22.27
7462,-0.44,6.39,-8.11,0.00,-0.01,0.01,-49.44,16.76,-22.27
7473,-0.44,6.37,-8.11,0.00,-0.01,0.01,-49.44,16.76,-22.27
7484,-0.44,6.37,-8.11,0.00,-0.01,0.01,-49.44,16.76,-22.27
7496,-0.46,6.37,-8.11,-0.00,-0.01,0.01,-49.21,16.02,-22.76
7506,-0.46,6.37,-8.11,-0.00,-0.01,0.01,-49.21,16.02,-22.76
7517,-0.50,6.40,-8.07,-0.00,-0.01,0.01,-49.21,16.02,-22.76
7528,-0.50,6.40,-8.07,-0.00,-0.01,0.01,-49.21,16.02,-22.76
7544,-0.48,6.40,-8.05,-0.00,-0.01,0.01,-49.21,16.02,-22.76
7550,-0.41,6.36,-8.12,0.00,-0.01,0.01,-49.21,16.02,-22.76
7561,-0.41,6.36,-8.12,0.00,-0.01,0.01,-49.21,16.02,-22.76
7572,-0.42,6.35,-8.11,0.00,-0.01,0.01,-49.21,16.02,-22.76
7583,-0.42,6.35,-8.11,0.00,-0.01,0.01,-49.21,16.02,-22.76
7594,-0.51,6.40,-8.08,-0.01,-0.01,0.01,-49.21,16.02,-22.76
7605,-0.51,6.40,-8.08,-0.01,-0.01,0.01,-49.21,16.02,-22.76
7616,-0.50,6.37,-8.10,-0.00,-0.01,0.01,-47.32,16.32,-23.74
7627,-0.50,6.37,-8.10,-0.00,-0.01,0.01,-47.32,16.32,-23.74
7638,-0.42,6.38,-8.09,-0.00,-0.01,0.01,-47.32,16.32,-23.74
7649,-0.42,6.38,-8.09,-0.00,-0.01,0.01,-47.32,16.32,-23.74
7660,-0.44,6.37,-8.10,0.00,-0.01,0.01,-47.32,16.32,-23.74
7671,-0.48,6.37,-8.09,-0.00,-0.01,0.01,-47.32,16.32,-23.74
7682,-0.48,6.37,-8.09,-0.00,-0.01,0.01,-47.32,16.32,-23.74
7693,-0.47,6.38,-8.08,0.00,-0.01,0.01,-47.32,16.32,-23.74
7704,-0.47,6.38,-8.08,0.00,-0.01,0.01,-47.32,16.32,-23.74
7715,-0.46,6.39,-8.06,-0.00,-0.01,0.01,-47.32,16.32,-23.74
7726,-0.46,6.39,-8.06,-0.00,-0.01,0.01,-47.32,16.32,-23.74
7737,-0.44,6.39,-8.06,-0.00,-0.01,0.01,-48.97,17.06,-22.93
7748,-0.44,6.39,-8.06,-0.00,-0.01,0.01,-48.97,17.06,-22.93
7759,-0.44,6.37,-8.08,0.00,-0.01,0.01,-48.97,17.06,-22.93
7770,-0.45,6.37,-8.12,0.00,-0.01,0.01,-48.97,17.06,-22.93
7781,-0.45,6.37,-8.12,0.00,-0.01,0.01,-48.97,17.06,-22.93
7792,-0.48,6.39,-8.10,-0.00,-0.01,0.01,-48.97,17.06,-22.93
7803,-0.48,6.39,-8.10,-0.00,-0.01,0.01,-48.97,17.06,-22.93
7814,-0.47,6.38,-8.08,-0.00,-0.01,0.01,-48.97,17.06,-22.93
7825,-0.47,6.38,-8.08,-0.00,-0.01,0.01,-48.97,17.06,-22.93
7836,-0.43,6.38,-8.08,0.00,-0.01,0.01,-48.97,17.06,-22.93
7847,-0.43,6.38,-8.08,0.00,-0.01,0.01,-48.97,17.06,-22.93
7858,-0.43,6.38,-8.08,-0.00,-0.01,0.01,-48.97,17.06,-22.93
7869,-0.43,6.38,-8.08,-0.00,-0.01,0.01,-48.97,17.06,-22.93
7880,-0.45,6.37,-8.08,-0.00,-0.01,0.01,-48.97,14.98,-21.62
7891,-0.50,6.39,-8.09,-0.00,-0.01,0.01,-48.97,14.98,-21.62
7902,-0.50,6.39,-8.09,-0.00,-0.01,0.01,-48.97,14.98,-21.62
7913,-0.45,6.38,-8.08,0.00,-0.01,0.01,-48.97,14.98,-21.62
7924,-0.45,6.38,-8.08,0.00,-0.01,0.01,-48.97,14.98,-21.62
7935,-0.43,6.38,-8.09,-0.00,-0.01,0.01,-48.97,14.98,-21.62
7947,-0.43,6.38,-8.09,-0.00,-0.01,0.01,-48.97,14.98,-21.62
7957,-0.44,6.34,-8.09,-0.00,-0.01,0.01,-48.97,14.98,-21.62
7968,-0.44,6.34,-8.09,-0.00,-0.01,0.01,-48.97,14.98,-21.62
7979,-0.49,6.36,-8.09,-0.00,-0.01,0.01,-48.97,14.98,-21.62
7990,-0.48,6.38,-8.10,-0.00,-0.01,0.01,-48.27,14.98,-21.62
8001,-0.48,6.38,-8.10,-0.00,-0.01,0.01,-48.27,17.51,-22.76
8012,-0.46,6.38,-8.07,-0.00,-0.01,0.01,-48.27,17.51,-22.76
8023,-0.46,6.38,-8.07,-0.00,-0.01,0.01,-48.27,17.51,-22.76
8034,-0.02,6.47,-7.99,0.04,-0.03,0.06,-48.27,17.51,-22.76
8045,-0.02,6.47,-7.99,0.04,-0.03,0.06,-48.27,17.51,-22.76
8056,-0.64,5.68,-8.59,-0.17,-0.74,0.69,-48.27,17.51,-22.76
8067,-0.64,5.68,-8.59,-0.17,-0.74,0.69,-48.27,17.51,-22.76
8078,-0.10,5.54,-8.49,-0.10,-0.95,1.02,-48.27,17.51,-22.76
8089,-0.10,5.54,-8.49,-0.10,-0.95,1.02,-48.27,17.51,-22.76
8100,-0.06,5.54,-8.48,0.42,-0.36,0.92,-48.27,17.51,-22.76
8111,0.73,7.75,-12.86,0.56,0.38,0.38,-47.80,18.40,-22.44
8122,0.73,7.75,-12.86,0.56,0.38,0.38,-47.80,18.40,-22.44
8133,0.12,5.67,-10.25,4.15,-0.08,0.47,-47.80,18.40,-22.44
8144,0.12,5.67,-10.25,4.15,-0.08,0.47,-47.80,18.40,-22.44
8155,-1.28,4.63,-6.93,5.68,-0.65,1.11,-47.80,18.40,-22.44
8166,-1.28,4.63,-6.93,5.68,-0.65,1.11,-47.80,18.40,-22.44
8177,-2.83,7.73,-8.29,4.59,-0.49,1.36,-47.80,18.40,-22.44
8188,-2.83,7.73,-8.29,4.59,-0.49,1.36,-47.80,18.40,-22.44
8199,-3.45,6.66,-9.28,5.34,0.19,0.52,-47.80,18.40,-22.44
8210,-3.45,6.66,-9.28,5.34,0.19,0.52,-47.80,18.40,-22.44
8221,-1.52,0.23,-8.45,5.71,1.10,-0.65,-47.80,18.40,-22.44
8232,1.44,-3.21,-13.83,3.28,1.85,-1.19,-47.80,18.40,-22.44
8243,1.44,-3.21,-13.83,3.28,1.85,-1.19,-47.80,18.40,-22.44
8254,2.24,-1.83,-16.42,3.41,1.36,-0.40,-40.26,1.73,-33.84
8265,2.24,-1.83,-16.42,3.41,1.36,-0.40,-40.26,1.73,-33.84
8276,1.89,0.84,-16.49,3.67,0.25,0.20,-40.26,1.73,-33.84
8287,1.89,0.84,-16.49,3.67,0.25,0.20,-40.26,1.73,-33.84
8298,-0.01,0.42,-14.84,4.24,-1.33,0.18,-40.26,1.73,-33.84
8309,-0.01,0.42,-14.84,4.24,-1.33,0.18,-40.26,1.73,-33.84
8320,-1.02,-0.74,-12.97,5.36,-2.60,0.26,-40.26,1.73,-33.84
8331,-3.14,-1.27,-11.45,5.84,-3.35,0.28,-40.26,1.73,-33.84
8342,-3.14,-1.27,-11.45,5.84,-3.35,0.28,-40.26,1.73,-33.84
8353,-3.00,-1.30,-10.80,6.04,-3.66,0.22,-40.26,1.73,-33.84
8364,-3.00,-1.30,-10.80,6.04,-3.66,0.22,-40.26,1.73,-33.84
8375,-1.58,-3.22,-13.82,5.53,-3.59,0.31,-51.56,-21.78,-24.39
8386,-1.58,-3.22,-13.82,5.53,-3.59,0.31,-51.56,-21.78,-24.39
8397,1.08,-4.53,-13.72,5.35,-5.10,0.27,-51.56,-21.78,-24.39
8408,1.08,-4.53,-13.72,5.35,-5.10,0.27,-51.56,-21.78,-24.39
8419,2.14,-6.25,-8.86,4.92,-6.98,0.76,-51.56,-21.78,-24.39
8430,2.14,-6.25,-8.86,4.92,-6.98,0.76,-51.56,-21.78,-24.39
8441,3.33,-7.23,-2.95,4.99,-7.76,1.79,-51.56,-21.78,-24.39
8452,-0.21,-5.60,-2.90,3.14,-7.55,2.50,-51.56,-21.78,-24.39
8463,-0.21,-5.60,-2.90,3.14,-7.55,2.50,-51.56,-21.78,-24.39
8474,-2.58,-3.80,-3.80,2.43,-7.24,2.51,-51.56,-21.78,-24.39
8485,-2.58,-3.80,-3.80,2.43,-7.24,2.51,-51.56,-21.78,-24.39
8496,-3.34,-4.25,-1.43,4.50,-7.23,2.08,-74.39,-22.22,11.94
8508,-3.34,-4.25,-1.43,4.50,-7.23,2.08,-74.39,-22.22,11.94
8518,1.76,-1.37,-1.68,7.34,-7.42,2.03,-74.39,-22.22,11.94
8529,1.76,-1.37,-1.68,7.34,-7.42,2.03,-74.39,-22.22,11.94
8540,-0.67,0.54,0.91,11.20,-8.27,2.71,-74.39,-22.22,11.94
8551,-12.02,9.99,10.23,11.65,-9.01,3.97,-74.39,-22.22,11.94
8562,-12.02,9.99,10.23,11.65,-9.01,3.97,-74.39,-22.22,11.94
8573,-7.63,0.79,32.50,14.53,-4.67,4.53,-74.39,-22.22,11.94
8584,-7.63,0.79,32.50,14.53,-4.67,4.53,-74.39,-22.22,11.94
8595,-5.36,4.15,2.22,-1.75,-0.80,2.65,-74.39,-22.22,11.94
8606,-5.36,4.15,2.22,-1.75,-0.80,2.65,-74.39,-22.22,11.94
8617,-7.68,1.21,6.15,-0.66,-0.78,2.27,-74.39,-22.22,11.94
8628,-7.68,1.21,6.15,-0.66,-0.78,2.27,-74.39,-22.22,11.94
8639,-6.36,1.78,5.77,-1.75,-0.90,1.91,-54.15,6.05,38.65
8650,-6.36,1.78,5.77,-1.75,-0.90,1.91,-54.15,6.05,38.65
8661,-4.51,2.53,6.35,-3.11,-1.10,1.55,-54.15,6.05,38.65
8672,-5.58,-1.29,9.30,-3.26,-0.76,1.11,-54.15,6.05,38.65
8683,-5.58,-1.29,9.30,-3.26,-0.76,1.11,-54.15,6.05,38.65
8694,-2.74,-2.66,5.79,-3.80,0.21,1.36,-54.15,6.05,38.65
8705,-2.74,-2.66,5.79,-3.80,0.21,1.36,-54.15,6.05,38.65
8716,-1.92,-1.63,3.14,-5.10,0.17,1.03,-54.15,6.05,38.65
8727,-1.92,-1.63,3.14,-5.10,0.17,1.03,-54.15,6.05,38.65
8738,-5.00,-3.23,1.53,-3.05,-0.28,0.94,-54.15,6.05,38.65
8749,-5.00,-3.23,1.53,-3.05,-0.28,0.94,-54.15,6.05,38.65
8760,-6.40,-3.77,4.84,1.21,-0.87,1.73,-50.38,-3.77,43.21
8771,-7.82,-2.40,9.79,1.07,-0.86,1.84,-50.38,-3.77,43.21
8782,-7.82,-2.40,9.79,1.07,-0.86,1.84,-50.38,-3.77,43.21
8793,-6.70,-1.50,7.29,-1.32,-0.15,1.06,-50.38,-3.77,43.21
8804,-6.70,-1.50,7.29,-1.32,-0.15,1.06,-50.38,-3.77,43.21
8815,-5.67,-2.13,4.08,-1.15,0.04,0.89,-50.38,-3.77,43.21
8826,-5.67,-2.13,4.08,-1.15,0.04,0.89,-50.38,-3.77,43.21
8837,-7.64,0.38,4.70,0.93,-0.35,1.50,-50.38,-3.77,43.21
8848,-7.64,0.38,4.70,0.93,-0.35,1.50,-50.38,-3.77,43.21
8859,-7.63,2.33,9.22,3.85,-0.05,1.08,-50.38,-3.77,43.21
8870,-7.63,2.33,9.22,3.85,-0.05,1.08,-50.38,-3.77,43.21
8881,-7.15,-0.02,7.99,4.08,0.54,-0.08,-44.50,3.22,41.75
8892,-9.28,0.48,9.22,2.54,0.49,-0.30,-44.50,3.22,41.75
8903,-9.28,0.48,9.22,2.54,0.49,-0.30,-44.50,3.22,41.75
8914,-6.84,1.55,9.27,-0.35,0.29,-0.60,-44.50,3.22,41.75
8925,-6.84,1.55,9.27,-0.35,0.29,-0.60,-44.50,3.22,41.75
8936,-7.31,-2.49,8.74,-1.64,0.62,-0.52,-44.50,3.22,41.75
8947,-7.31,-2.49,8.74,-1.64,0.62,-0.52,-44.50,3.22,41.75
8958,-7.48,-0.85,6.83,-0.61,0.61,-0.36,-44.50,3.22,41.75
8969,-7.48,-0.85,6.83,-0.61,0.61,-0.36,-44.50,3.22,41.75
8980,-6.41,-0.79,9.37,0.78,0.75,-0.56,-44.50,3.22,41.75
8991,-6.87,-3.06,10.43,-0.05,1.08,-0.27,-51.80,3.22,41.75
9002,-6.87,-3.06,10.43,-0.05,1.08,-0.27,-51.80,2.78,38.98
9013,-8.16,-1.79,9.73,-3.38,1.13,0.35,-51.80,2.78,38.98
9024,-8.16,-1.79,9.73,-3.38,1.13,0.35,-51.80,2.78,38.98
9035,-7.73,-1.21,10.23,-5.98,1.40,0.48,-51.80,2.78,38.98
9046,-7.73,-1.21,10.23,-5.98,1.40,0.48,-51.80,2.78,38.98
9057,-7.20,-1.47,7.75,-8.38,1.81,0.42,-51.80,2.78,38.98
9068,-7.20,-1.47,7.75,-8.38,1.81,0.42,-51.80,2.78,38.98
9079,-7.71,-3.02,4.01,-8.50,1.84,0.57,-51.80,2.78,38.98
9090,-7.71,-3.02,4.01,-8.50,1.84,0.57,-51.80,2.78,38.98
9101,-7.36,-4.72,0.75,-7.08,1.43,0.88,-51.80,2.78,38.98
9112,-8.19,-6.92,1.04,-5.97,0.99,1.28,-51.80,2.78,38.98
9123,-8.19,-6.92,1.04,-5.97,0.99,1.28,-51.80,2.78,38.98
9134,-9.46,-4.92,-1.42,-7.03,0.33,1.72,-62.15,-17.76,33.11
9145,-9.46,-4.92,-1.42,-7.03,0.33,1.72,-62.15,-17.76,33.11
9156,-9.85,-0.14,-2.76,-7.28,-0.62,1.67,-62.15,-17.76,33.11
9167,-9.85,-0.14,-2.76,-7.28,-0.62,1.67,-62.15,-17.76,33.11
9178,-2.75,-1.18,7.30,-8.02,-1.38,0.56,-62.15,-17.76,33.11
9190,-2.75,-1.18,7.30,-8.02,-1.38,0.56,-62.15,-17.76,33.11
9200,-7.48,-1.58,-9.37,-13.32,-1.08,-1.20,-62.15,-17.76,33.11
9211,-7.48,-1.58,-9.37,-13.32,-1.08,-1.20,-62.15,-17.76,33.11
9222,-10.27,-8.31,4.56,-1.64,-1.10,-0.65,-62.15,-17.76,33.11
9233,-6.64,-4.16,1.16,-1.44,-0.60,-0.29,-62.15,-17.76,33.11
9244,-6.64,-4.16,1.16,-1.44,-0.60,-0.29,-62.15,-17.76,33.11
9255,-7.80,-3.12,-3.46,0.13,-0.21,-0.74,-58.62,-32.19,20.90
9266,-7.80,-3.12,-3.46,0.13,-0.21,-0.74,-58.62,-32.19,20.90
9277,-8.11,-9.52,-0.17,2.76,-0.42,-1.08,-58.62,-32.19,20.90
9288,-8.11,-9.52,-0.17,2.76,-0.42,-1.08,-58.62,-32.19,20.90
9299,-7.41,-7.11,4.46,1.50,-0.81,-0.37,-58.62,-32.19,20.90
9310,-7.41,-7.11,4.46,1.50,-0.81,-0.37,-58.62,-32.19,20.90
9321,-5.54,-6.22,2.28,0.54,-0.01,-0.07,-58.62,-32.19,20.90
9332,-11.19,-2.19,-3.80,1.32,0.28,-0.17,-58.62,-32.19,20.90
9343,-11.19,-2.19,-3.80,1.32,0.28,-0.17,-58.62,-32.19,20.90
9354,-6.32,-8.25,-3.16,3.28,-0.52,-0.67,-58.62,-32.19,20.90
9365,-6.32,-8.25,-3.16,3.28,-0.52,-0.67,-58.62,-32.19,20.90
9376,-6.28,-7.25,2.12,1.59,-1.89,-0.08,-54.15,-30.56,28.88
9387,-6.28,-7.25,2.12,1.59,-1.89,-0.08,-54.15,-30.56,28.88
9398,-5.98,-3.96,2.65,1.13,-1.68,0.02,-54.15,-30.56,28.88
9409,-5.98,-3.96,2.65,1.13,-1.68,0.02,-54.15,-30.56,28.88
9420,-7.82,-4.83,3.71,2.75,-0.97,-0.21,-54.15,-30.56,28.88
9431,-7.82,-4.83,3.71,2.75,-0.97,-0.21,-54.15,-30.56,28.88
9442,-7.85,-4.83,4.62,3.35,-0.63,-0.45,-54.15,-30.56,28.88
9453,-7.05,-5.08,4.67,4.05,-0.38,-0.58,-54.15,-30.56,28.88
9465,-7.05,-5.08,4.67,4.05,-0.38,-0.58,-54.15,-30.56,28.88
9475,-6.59,-3.72,2.93,3.95,-0.48,-0.72,-54.15,-30.56,28.88
9486,-6.59,-3.72,2.93,3.95,-0.48,-0.72,-54.15,-30.56,28.88
9497,-10.65,-2.69,2.00,4.92,-0.68,-0.86,-54.15,-30.56,28.88
9508,-10.65,-2.69,2.00,4.92,-0.68,-0.86,-54.15,-30.56,28.88
9519,-6.34,-6.26,9.55,6.66,-0.68,-0.74,-48.27,-17.91,41.10
9530,-6.34,-6.26,9.55,6.66,-0.68,-0.74,-48.27,-17.91,41.10
9541,-5.19,-9.88,14.48,2.12,-0.49,-0.21,-48.27,-17.91,41.10
9552,-7.19,-4.08,6.64,-3.48,0.31,0.58,-48.27,-17.91,41.10
9563,-7.19,-4.08,6.64,-3.48,0.31,0.58,-48.27,-17.91,41.10
9574,-7.02,-2.43,2.53,-1.99,1.04,0.79,-48.27,-17.91,41.10
9585,-7.02,-2.43,2.53,-1.99,1.04,0.79,-48.27,-17.91,41.10
9596,-7.86,-4.08,5.97,-0.31,1.05,0.54,-48.27,-17.91,41.10
9607,-7.86,-4.08,5.97,-0.31,1.05,0.54,-48.27,-17.91,41.10
9618,-8.34,-4.97,7.48,-3.32,0.72,0.21,-48.27,-17.91,41.10
9629,-8.34,-4.97,7.48,-3.32,0.72,0.21,-48.27,-17.91,41.10
9640,-8.42,-8.14,9.38,-6.86,0.78,0.17,-53.44,-19.69,37.19
9651,-8.42,-8.14,9.38,-6.86,0.78,0.17,-53.44,-19.69,37.19
9662,-6.32,-9.21,9.64,-10.46,1.31,0.98,-53.44,-19.69,37.19
9673,-5.62,-0.95,3.69,-12.61,1.94,2.06,-53.44,-19.69,37.19
9684,-5.62,-0.95,3.69,-12.61,1.94,2.06,-53.44,-19.69,37.19
9695,-6.15,-3.56,6.91,-10.80,2.73,2.11,-53.44,-19.69,37.19
9706,-6.15,-3.56,6.91,-10.80,2.73,2.11,-53.44,-19.69,37.19
9717,-4.20,-0.92,-6.29,-16.68,3.16,2.13,-53.44,-19.69,37.19
9728,-4.20,-0.92,-6.29,-16.68,3.16,2.13,-53.44,-19.69,37.19
9739,-6.33,2.75,-10.75,-14.21,1.69,3.02,-53.44,-19.69,37.19
9750,-6.33,2.75,-10.75,-14.21,1.69,3.02,-53.44,-19.69,37.19
9761,-9.15,7.29,-10.86,-7.88,-0.02,2.63,-63.33,-25.05,-11.03
9772,-9.00,9.67,-6.44,-0.01,-0.60,0.70,-63.33,-25.05,-11.03
9783,-9.00,9.67,-6.44,-0.01,-0.60,0.70,-63.33,-25.05,-11.03
9794,-6.62,4.18,-4.99,4.85,-0.73,-1.50,-63.33,-25.05,-11.03
9805,-6.62,4.18,-4.99,4.85,-0.73,-1.50,-63.33,-25.05,-11.03
9816,-7.49,-3.48,-3.45,7.31,-0.96,-2.57,-63.33,-25.05,-11.03
9827,-7.49,-3.48,-3.45,7.31,-0.96,-2.57,-63.33,-25.05,-11.03
9838,-8.41,-11.38,-0.51,6.10,-1.01,-2.11,-63.33,-25.05,-11.03
9849,-8.41,-11.38,-0.51,6.10,-1.01,-2.11,-63.33,-25.05,-11.03
9860,-7.63,-12.37,1.99,2.14,-0.55,-0.73,-63.33,-25.05,-11.03
9871,-7.63,-12.37,1.99,2.14,-0.55,-0.73,-63.33,-25.05,-11.03
9882,-7.16,-5.58,-3.60,-1.49,0.30,0.69,-63.33,-25.05,-11.03
9893,-7.20,-1.30,-5.92,-1.49,0.55,1.15,-61.21,-32.34,0.21
9904,-7.20,-1.30,-5.92,-1.49,0.55,1.15,-61.21,-32.34,0.21
9915,-7.58,-1.59,-6.45,-0.71,0.13,0.81,-61.21,-32.34,0.21
9926,-7.58,-1.59,-6.45,-0.71,0.13,0.81,-61.21,-32.34,0.21
9938,-9.39,-3.30,-3.99,-0.07,-0.29,0.36,-61.21,-32.34,0.21
9948,-9.39,-3.30,-3.99,-0.07,-0.29,0.36,-61.21,-32.34,0.21
9959,-5.79,-2.82,-4.18,0.45,-0.09,0.09,-61.21,-32.34,0.21
9970,-5.79,-2.82,-4.18,0.45,-0.09,0.09,-61.21,-32.34,0.21
9981,-10.83,-1.94,-1.31,3.26,0.23,-0.21,-61.21,-32.34,0.21
9992,-9.50,-6.31,-4.70,2.05,0.20,-0.69,-61.21,-32.34,0.21
10003,-9.50,-6.31,-4.70,2.05,0.20,-0.69,-61.21,-32.34,0.21
10014,-7.58,-7.86,-3.85,0.77,-0.39,-0.01,-63.57,-32.64,4.77
10025,-7.58,-7.86,-3.85,0.77,-0.39,-0.01,-63.57,-32.64,4.77
10036,-10.32,-4.01,-2.19,0.62,-0.87,0.87,-63.57,-32.64,4.77
10047,-10.32,-4.01,-2.19,0.62,-0.87,0.87,-63.57,-32.64,4.77
10058,-10.89,-0.80,-0.09,0.32,-0.79,0.62,-63.57,-32.64,4.77
10069,-10.89,-0.80,-0.09,0.32,-0.79,0.62,-63.57,-32.64,4.77
10080,-8.90,-0.08,-1.71,-0.02,-0.12,-0.47,-63.57,-32.64,4.77
10091,-8.90,-0.08,-1.71,-0.02,-0.12,-0.47,-63.57,-32.64,4.77
10102,-7.03,-5.99,-7.06,0.74,0.41,-1.42,-63.57,-32.64,4.77
10113,-8.38,-9.00,-2.04,0.98,-0.34,-0.75,-63.57,-32.64,4.77
10124,-8.38,-9.00,-2.04,0.98,-0.34,-0.75,-63.57,-32.64,4.77
10135,-9.59,-5.66,-0.91,0.09,-0.31,0.22,-61.92,-33.09,6.56
10146,-9.59,-5.66,-0.91,0.09,-0.31,0.22,-61.92,-33.09,6.56
10157,-8.71,-3.82,-2.95,-0.65,0.23,0.29,-61.92,-33.09,6.56
10168,-8.71,-3.82,-2.95,-0.65,0.23,0.29,-61.92,-33.09,6.56
10179,-7.25,-4.98,-4.56,-0.85,0.32,0.12,-61.92,-33.09,6.56
10190,-7.25,-4.98,-4.56,-0.85,0.32,0.12,-61.92,-33.09,6.56
10201,-8.14,-5.04,-3.08,-0.86,0.06,0.37,-61.92,-33.09,6.56
10213,-8.46,-4.35,-3.77,-1.01,0.12,0.54,-61.92,-33.09,6.56
10223,-8.46,-4.35,-3.77,-1.01,0.12,0.54,-61.92,-33.09,6.56
10234,-8.05,-3.27,-4.19,-1.00,0.10,0.55,-61.92,-33.09,6.56
10245,-8.05,-3.27,-4.19,-1.00,0.10,0.55,-61.92,-33.09,6.56
10256,-8.01,-2.92,-3.96,-0.86,-0.06,0.50,-65.21,-30.71,2.33
10267,-8.01,-2.92,-3.96,-0.86,-0.06,0.50,-65.21,-30.71,2.33
10278,-8.11,-3.05,-3.97,-0.61,-0.19,0.39,-65.21,-30.71,2.33
10289,-8.11,-3.05,-3.97,-0.61,-0.19,0.39,-65.21,-30.71,2.33
10300,-8.88,-3.08,-3.92,-0.16,-0.27,0.28,-65.21,-30.71,2.33
10311,-8.88,-3.08,-3.92,-0.16,-0.27,0.28,-65.21,-30.71,2.33
10322,-9.66,-2.94,-3.13,0.35,-0.27,0.09,-65.21,-30.71,2.33
10333,-8.76,-3.99,-3.25,0.58,-0.12,-0.14,-65.21,-30.71,2.33
10344,-8.76,-3.99,-3.25,0.58,-0.12,-0.14,-65.21,-30.71,2.33
10355,-8.59,-4.77,-2.21,0.53,-0.14,-0.09,-65.21,-30.71,2.33
10366,-8.59,-4.77,-2.21,0.53,-0.14,-0.09,-65.21,-30.71,2.33
10377,-8.71,-4.33,-3.04,0.19,-0.08,0.10,-65.21,-30.71,2.33
10388,-8.71,-4.33,-3.04,0.19,-0.08,0.10,-65.21,-30.71,2.33
10399,-8.84,-3.96,-3.21,0.04,-0.08,0.18,-64.04,-30.56,1.84
10410,-8.84,-3.96,-3.21,0.04,-0.08,0.18,-64.04,-30.56,1.84
10421,-8.93,-3.77,-3.20,0.03,-0.03,0.14,-64.04,-30.56,1.84
10432,-8.93,-3.77,-3.20,0.03,-0.03,0.14,-64.04,-30.56,1.84
10444,-8.54,-3.94,-3.32,0.00,0.01,0.08,-64.04,-30.56,1.84
10454,-8.59,-3.81,-3.37,-0.01,0.03,0.09,-64.04,-30.56,1.84
10465,-8.59,-3.81,-3.37,-0.01,0.03,0.09,-64.04,-30.56,1.84
10476,-8.66,-3.68,-3.47,-0.04,0.02,0.06,-64.04,-30.56,1.84
10487,-8.66,-3.68,-3.47,-0.04,0.02,0.06,-64.04,-30.56,1.84
10498,-8.74,-3.91,-3.27,-0.07,-0.02,0.02,-64.04,-30.56,1.84
10509,-8.74,-3.91,-3.27,-0.07,-0.02,0.02,-64.04,-30.56,1.84
10520,-8.68,-3.95,-3.40,-0.09,-0.01,0.03,-62.15,-30.56,3.47
10531,-8.68,-3.95,-3.40,-0.09,-0.01,0.03,-62.15,-30.56,3.47
10542,-8.55,-4.06,-3.16,-0.08,-0.01,0.09,-62.15,-30.56,3.47
10553,-8.72,-3.52,-3.00,-0.08,-0.03,0.14,-62.15,-30.56,3.47
10564,-8.72,-3.52,-3.00,-0.08,-0.03,0.14,-62.15,-30.56,3.47
10575,-8.75,-3.68,-3.19,-0.04,-0.03,0.07,-62.15,-30.56,3.47
10586,-8.75,-3.68,-3.19,-0.04,-0.03,0.07,-62.15,-30.56,3.47
10597,-8.79,-3.88,-3.31,-0.01,-0.02,0.06,-62.15,-30.56,3.47
10608,-8.79,-3.88,-3.31,-0.01,-0.02,0.06,-62.15,-30.56,3.47
10619,-8.72,-3.51,-3.62,-0.01,0.01,0.11,-62.15,-30.56,3.47
10630,-8.72,-3.51,-3.62,-0.01,0.01,0.11,-62.15,-30.56,3.47
10641,-8.68,-3.45,-3.46,0.01,-0.04,0.07,-66.39,-30.26,3.14
10652,-8.68,-3.45,-3.46,0.01,-0.04,0.07,-66.39,-30.26,3.14
10663,-8.42,-3.84,-3.50,0.08,-0.05,0.05,-66.39,-30.26,3.14
10674,-8.32,-3.80,-3.37,0.14,-0.12,0.14,-66.39,-30.26,3.14
10685,-8.32,-3.80,-3.37,0.14,-0.12,0.14,-66.39,-30.26,3.14
10696,-10.87,-3.34,-3.07,0.22,-0.17,0.22,-66.39,-30.26,3.14
10707,-10.87,-3.34,-3.07,0.22,-0.17,0.22,-66.39,-30.26,3.14
10718,-8.89,-4.24,-2.83,0.08,-0.14,0.04,-66.39,-30.26,3.14
10729,-8.89,-4.24,-2.83,0.08,-0.14,0.04,-66.39,-30.26,3.14
10740,-9.00,-3.75,-2.51,-0.05,-0.07,0.09,-66.39,-30.26,3.14
10751,-9.00,-3.75,-2.51,-0.05,-0.07,0.09,-66.39,-30.26,3.14
10762,-8.79,-3.69,-3.19,-0.15,-0.02,0.11,-66.39,-30.26,3.14
10773,-8.75,-3.39,-3.68,-0.14,0.01,0.09,-64.27,-29.81,3.63
10784,-8.75,-3.39,-3.68,-0.14,0.01,0.09,-64.27,-29.81,3.63
10795,-8.84,-3.66,-3.53,-0.12,-0.01,0.06,-64.27,-29.81,3.63
10806,-8.84,-3.66,-3.53,-0.12,-0.01,0.06,-64.27,-29.81,3.63
10817,-8.84,-3.53,-3.62,-0.20,-0.05,0.06,-64.27,-29.81,3.63
10828,-8.84,-3.53,-3.62,-0.20,-0.05,0.06,-64.27,-29.81,3.63
10839,-8.84,-4.02,-2.89,-0.24,-0.09,0.07,-64.27,-29.81,3.63
10850,-8.84,-4.02,-2.89,-0.24,-0.09,0.07,-64.27,-29.81,3.63
10861,-9.10,-4.13,-2.46,-0.38,-0.08,0.14,-64.27,-29.81,3.63
10872,-9.10,-4.13,-2.46,-0.38,-0.08,0.14,-64.27,-29.81,3.63
10883,-8.94,-3.39,-2.51,-0.55,-0.06,0.25,-64.27,-29.81,3.63
10894,-9.23,-3.49,-2.54,-0.56,0.01,0.26,-64.27,-29.22,2.98
10905,-9.23,-3.49,-2.54,-0.56,0.01,0.26,-64.27,-29.22,2.98
10916,-9.07,-3.35,-3.31,-0.63,-0.03,0.26,-64.27,-29.22,2.98
10927,-9.07,-3.35,-3.31,-0.63,-0.03,0.26,-64.27,-29.22,2.98
10938,-9.25,-2.47,-3.61,-0.60,-0.19,0.29,-64.27,-29.22,2.98
10949,-9.25,-2.47,-3.61,-0.60,-0.19,0.29,-64.27,-29.22,2.98
10960,-9.01,-3.12,-2.60,-0.54,-0.20,0.19,-64.27,-29.22,2.98
10971,-9.01,-3.12,-2.60,-0.54,-0.20,0.19,-64.27,-29.22,2.98
10982,-9.27,-2.63,-3.02,-0.63,-0.18,-0.01,-64.27,-29.22,2.98
10993,-9.10,-3.16,-3.08,-0.54,-0.24,-0.18,-64.27,-29.22,2.98
11004,-9.10,-3.16,-3.08,-0.54,-0.24,-0.18,-64.27,-29.22,2.98
11015,-8.98,-2.98,-3.45,-0.46,-0.25,-0.30,-65.21,-29.81,0.70
11026,-8.98,-2.98,-3.45,-0.46,-0.25,-0.30,-65.21,-29.81,0.70
11037,-8.81,-3.10,-4.17,-0.26,-0.21,-0.40,-65.21,-29.81,0.70
11048,-8.81,-3.10,-4.17,-0.26,-0.21,-0.40,-65.21,-29.81,0.70
11059,-8.53,-2.98,-4.08,-0.18,-0.30,-0.43,-65.21,-29.81,0.70
11071,-8.53,-2.98,-4.08,-0.18,-0.30,-0.43,-65.21,-29.81,0.70
11081,-8.62,-3.33,-3.13,-0.12,-0.26,-0.45,-65.21,-29.81,0.70
11092,-8.62,-3.33,-3.13,-0.12,-0.26,-0.45,-65.21,-29.81,0.70
11103,-8.87,-3.15,-3.63,-0.27,-0.13,-0.47,-65.21,-29.81,0.70
11114,-8.62,-3.98,-4.40,-0.37,-0.06,-0.49,-65.21,-29.81,0.70
11125,-8.62,-3.98,-4.40,-0.37,-0.06,-0.49,-65.21,-29.81,0.70
11136,-8.99,-3.19,-3.44,-0.28,-0.10,-0.39,-65.21,-29.81,0.70
11147,-8.99,-3.19,-3.44,-0.28,-0.10,-0.39,-65.21,-29.81,0.70
11158,-8.54,-4.08,-3.08,-0.26,-0.09,-0.40,-64.04,-30.85,0.86
11169,-8.54,-4.08,-3.08,-0.26,-0.09,-0.40,-64.04,-30.85,0.86
11180,-8.84,-1.91,-4.19,-0.39,-0.04,-0.35,-64.04,-30.85,0.86
11191,-8.84,-1.91,-4.19,-0.39,-0.04,-0.35,-64.04,-30.85,0.86
11202,-8.93,-3.85,-3.82,-0.05,-0.10,-0.46,-64.04,-30.85,0.86
11213,-8.93,-3.85,-3.82,-0.05,-0.10,-0.46,-64.04,-30.85,0.86
11224,-8.95,-2.69,-3.96,0.10,-0.09,-0.40,-64.04,-30.85,0.86
11235,-8.84,-3.60,-3.80,0.47,-0.04,-0.60,-64.04,-30.85,0.86
11246,-8.84,-3.60,-3.80,0.47,-0.04,-0.60,-64.04,-30.85,0.86
11257,-9.11,-4.65,-3.49,0.67,-0.02,-0.57,-64.04,-30.85,0.86
11268,-9.11,-4.65,-3.49,0.67,-0.02,-0.57,-64.04,-30.85,0.86
11279,-8.97,-2.79,-4.16,0.81,0.02,-0.39,-63.57,-32.64,2.49
11290,-8.97,-2.79,-4.16,0.81,0.02,-0.39,-63.57,-32.64,2.49
11301,-8.19,-3.89,-3.05,1.21,-0.02,-0.47,-63.57,-32.64,2.49
11312,-8.19,-3.89,-3.05,1.21,-0.02,-0.47,-63.57,-32.64,2.49
11324,-8.46,-5.43,-2.67,1.33,0.06,-0.46,-63.57,-32.64,2.49
11334,-8.55,-4.00,-2.58,1.03,0.03,-0.30,-63.57,-32.64,2.49
11345,-8.55,-4.00,-2.58,1.03,0.03,-0.30,-63.57,-32.64,2.49
11356,-8.70,-4.65,-1.79,0.97,0.03,-0.28,-63.57,-32.64,2.49
11367,-8.70,-4.65,-1.79,0.97,0.03,-0.28,-63.57,-32.64,2.49
11378,-8.72,-5.46,-1.20,0.64,0.19,-0.16,-63.57,-32.64,2.49
11389,-8.72,-5.46,-1.20,0.64,0.19,-0.16,-63.57,-32.64,2.49
11400,-8.87,-5.38,-2.04,-0.05,0.45,0.13,-60.98,-33.98,7.21
11411,-8.87,-5.38,-2.04,-0.05,0.45,0.13,-60.98,-33.98,7.21
11422,-8.88,-5.68,-3.14,-0.58,0.55,0.48,-60.98,-33.98,7.21
11433,-8.88,-5.68,-3.14,-0.58,0.55,0.48,-60.98,-33.98,7.21
11444,-8.65,-4.02,-2.91,-0.96,0.52,0.82,-60.98,-33.98,7.21
11455,-8.36,-4.84,-2.32,-1.19,0.53,0.98,-60.98,-33.98,7.21
11466,-8.36,-4.84,-2.32,-1.19,0.53,0.98,-60.98,-33.98,7.21
11477,-8.54,-2.66,-4.34,-1.31,0.52,1.07,-60.98,-33.98,7.21
11488,-8.54,-2.66,-4.34,-1.31,0.52,1.07,-60.98,-33.98,7.21
11499,-8.96,-3.15,-4.25,-0.78,0.36,0.98,-60.98,-33.98,7.21
11510,-8.96,-3.15,-4.25,-0.78,0.36,0.98,-60.98,-33.98,7.21
11521,-8.55,-2.66,-3.90,-0.52,0.26,1.03,-64.74,-29.81,1.02
11537,-8.55,-2.66,-3.90,-0.52,0.26,1.03,-64.74,-29.81,1.02
11543,-8.66,-2.63,-3.61,-0.46,0.28,1.01,-64.74,-29.81,1.02
11554,-8.91,-2.91,-3.98,-0.33,0.22,0.87,-64.74,-29.81,1.02
11565,-8.91,-2.91,-3.98,-0.33,0.22,0.87,-64.74,-29.81,1.02
11576,-9.08,-2.84,-4.16,-0.20,0.04,0.79,-64.74,-29.81,1.02
11587,-9.08,-2.84,-4.16,-0.20,0.04,0.79,-64.74,-29.81,1.02
11598,-8.45,-3.46,-3.08,-0.20,-0.03,0.75,-64.74,-29.81,1.02
11609,-8.45,-3.46,-3.08,-0.20,-0.03,0.75,-64.74,-29.81,1.02
11620,-8.84,-2.58,-4.32,-0.22,-0.06,0.67,-64.74,-29.81,1.02
11738,-9.18,-1.53,-2.95,-0.23,-0.31,0.31,-69.69,-28.77,0.86
11748,-9.18,-1.53,-2.95,-0.23,-0.31,0.31,-69.69,-28.77,0.86
11759,-9.35,-1.76,-3.92,-0.18,-0.21,0.10,-69.69,-28.77,0.86
11770,-9.35,-1.76,-3.92,-0.18,-0.21,0.10,-69.69,-28.77,0.86
11781,-9.16,-1.51,-4.12,-0.18,-0.22,-0.04,-69.69,-25.20,-1.42
11792,-9.16,-1.51,-4.12,-0.18,-0.22,-0.04,-69.69,-25.20,-1.42
11803,-9.55,-1.94,-3.76,-0.23,-0.31,-0.23,-69.69,-25.20,-1.42
11814,-8.88,-2.59,-3.24,-0.33,-0.38,-0.37,-69.69,-25.20,-1.42
11825,-8.88,-2.59,-3.24,-0.33,-0.38,-0.37,-69.69,-25.20,-1.42
11836,-8.81,-2.48,-3.41,-0.38,-0.24,-0.37,-69.69,-25.20,-1.42
11847,-8.81,-2.48,-3.41,-0.38,-0.24,-0.37,-69.69,-25.20,-1.42
11858,-8.79,-1.89,-5.20,-0.37,-0.11,-0.42,-69.69,-25.20,-1.42
11869,-8.79,-1.89,-5.20,-0.37,-0.11,-0.42,-69.69,-25.20,-1.42
11880,-9.24,-1.70,-4.52,-0.09,-0.20,-0.55,-69.69,-25.20,-1.42
11891,-9.24,-1.70,-4.52,-0.09,-0.20,-0.55,-69.69,-25.20,-1.42
11902,-9.23,-1.91,-4.67,0.27,-0.30,-0.66,-67.10,-27.13,-0.28
12034,-9.04,-3.44,-3.69,0.21,0.06,-0.59,-67.10,-27.13,-0.28
12044,-9.74,-2.41,-4.13,0.25,0.09,-0.47,-65.21,-30.41,0.70
12055,-8.73,-3.82,-3.05,0.15,0.05,-0.51,-65.21,-30.41,0.70
12066,-8.73,-3.82,-3.05,0.15,0.05,-0.51,-65.21,-30.41,0.70
12077,-9.26,-2.99,-3.90,-0.05,0.13,-0.43,-65.21,-30.41,0.70
12088,-9.26,-2.99,-3.90,-0.05,0.13,-0.43,-65.21,-30.41,0.70
12099,-8.77,-3.64,-3.27,0.25,0.07,-0.32,-65.21,-30.41,0.70
12110,-8.77,-3.64,-3.27,0.25,0.07,-0.32,-65.21,-30.41,0.70
12121,-8.95,-4.10,-2.53,0.45,0.04,-0.21,-65.21,-30.41,0.70
12132,-8.95,-4.10,-2.53,0.45,0.04,-0.21,-65.21,-30.41,0.70
12143,-8.95,-3.97,-2.38,0.28,0.12,-0.06,-65.21,-30.41,0.70
12154,-8.91,-3.57,-3.09,-0.01,0.24,0.13,-65.21,-30.41,0.70
12165,-8.91,-3.57,-3.09,-0.01,0.24,0.13,-61.92,-32.19,2.33
12265,-8.79,-3.25,-4.30,-0.20,0.26,0.55,-61.92,-32.19,2.33
12276,-8.58,-3.99,-3.35,-0.02,0.15,0.47,-63.80,-29.52,-0.61
12287,-8.58,-3.99,-3.35,-0.02,0.15,0.47,-63.80,-29.52,-0.61
12298,-8.93,-3.98,-3.05,-0.10,0.14,0.48,-63.80,-29.52,-0.61
12309,-8.93,-3.98,-3.05,-0.10,0.14,0.48,-63.80,-29.52,-0.61
12320,-8.88,-2.84,-3.32,-0.21,0.21,0.58,-63.80,-29.52,-0.61
12331,-8.88,-2.84,-3.32,-0.21,0.21,0.58,-63.80,-29.52,-0.61
12342,-8.62,-4.38,-3.31,-0.14,0.19,0.50,-63.80,-29.52,-0.61
12353,-8.62,-4.38,-3.31,-0.14,0.19,0.50,-63.80,-29.52,-0.61
12364,-9.04,-2.42,-4.12,-0.25,0.17,0.59,-63.80,-29.52,-0.61
12375,-8.87,-3.04,-3.38,-0.12,0.14,0.58,-63.80,-29.52,-0.61
12386,-8.87,-3.04,-3.38,-0.12,0.14,0.58,-63.80,-29.52,-0.61
12397,-9.15,-2.76,-4.26,-0.12,0.11,0.58,-63.80,-29.52,-0.61
12408,-9.15,-2.76,-4.26,-0.12,0.11,0.58,-63.80,-29.52,-0.61
12419,-9.32,-1.92,-4.51,-0.08,0.05,0.57,-66.86,-27.58,0.53
12430,-9.32,-1.92,-4.51,-0.08,0.05,0.57,-66.86,-27.58,0.53
12441,-9.25,-1.79,-3.86,-0.06,-0.00,0.58,-66.86,-27.58,0.53
12544,-9.23,-2.01,-3.93,0.10,-0.01,0.27,-68.51,-25.94,-2.24
12554,-9.23,-2.01,-3.93,0.10,-0.01,0.27,-68.51,-25.94,-2.24
12565,-9.21,-2.47,-3.63,0.08,-0.02,0.30,-68.51,-25.94,-2.24
12576,-9.37,-2.44,-3.06,-0.12,0.02,0.41,-68.51,-25.94,-2.24
12587,-9.37,-2.44,-3.06,-0.12,0.02,0.41,-68.51,-25.94,-2.24
12598,-9.33,-1.88,-4.39,-0.24,0.04,0.41,-68.51,-25.94,-2.24
12609,-9.33,-1.88,-4.39,-0.24,0.04,0.41,-68.51,-25.94,-2.24
12620,-9.40,-2.39,-3.26,-0.30,-0.12,0.35,-68.51,-25.94,-2.24
12631,-9.40,-2.39,-3.26,-0.30,-0.12,0.35,-68.51,-25.94,-2.24
12642,-9.48,-1.52,-2.82,-0.33,-0.17,0.30,-68.51,-25.94,-2.24
12653,-9.48,-1.52,-2.82,-0.33,-0.17,0.30,-68.51,-25.94,-2.24
12664,-9.48,-1.39,-2.78,-0.25,-0.13,0.19,-68.98,-24.46,-1.58
12775,-9.42,-2.02,-3.73,-0.22,-0.08,0.09,-68.98,-24.46,-1.58
12777,-9.00,-1.86,-4.59,-0.25,-0.11,-0.21,-71.10,-24.90,-1.42
12787,-9.00,-1.86,-4.59,-0.25,-0.11,-0.21,-71.10,-24.90,-1.42
12798,-9.18,-1.28,-4.59,-0.11,-0.23,-0.29,-71.10,-24.90,-1.42
12809,-9.18,-1.28,-4.59,-0.11,-0.23,-0.29,-71.10,-24.90,-1.42
12820,-8.85,-1.88,-4.36,0.01,-0.34,-0.50,-71.10,-24.90,-1.42
12831,-8.85,-1.88,-4.36,0.01,-0.34,-0.50,-71.10,-24.90,-1.42
12842,-8.71,-2.49,-3.81,0.04,-0.35,-0.56,-71.10,-24.90,-1.42
12853,-8.71,-2.49,-3.81,0.04,-0.35,-0.56,-71.10,-24.90,-1.42
12864,-8.71,-2.65,-3.63,0.04,-0.24,-0.49,-71.10,-24.90,-1.42
12875,-8.76,-1.63,-5.17,0.01,-0.11,-0.38,-71.10,-24.90,-1.42
12886,-8.76,-1.63,-5.17,0.01,-0.11,-0.38,-71.10,-24.90,-1.42
12897,-8.95,-0.62,-3.97,-0.02,-0.14,-0.42,-71.10,-24.90,-1.42
13001,-9.37,-1.73,-4.64,-0.51,0.22,-0.73,-69.22,-25.50,-0.77
13011,-9.37,-1.73,-4.64,-0.51,0.22,-0.73,-69.22,-25.50,-0.77
13022,-9.24,-3.33,-4.29,-0.07,0.16,-0.62,-69.22,-25.50,-0.77
13033,-9.24,-3.33,-4.29,-0.07,0.16,-0.62,-69.22,-25.50,-0.77
13044,-9.50,-2.85,-3.24,0.25,0.11,-0.37,-66.16,-29.52,-1.58
13055,-9.19,-2.95,-3.04,0.21,0.13,-0.16,-66.16,-29.52,-1.58
13066,-9.19,-2.95,-3.04,0.21,0.13,-0.16,-66.16,-29.52,-1.58
13077,-8.98,-3.38,-3.13,0.05,0.24,0.06,-66.16,-29.52,-1.58
13088,-8.98,-3.38,-3.13,0.05,0.24,0.06,-66.16,-29.52,-1.58
13099,-8.80,-2.73,-4.08,-0.08,0.38,0.31,-66.16,-29.52,-1.58
13110,-8.80,-2.73,-4.08,-0.08,0.38,0.31,-66.16,-29.52,-1.58
13121,-8.87,-3.19,-3.99,-0.10,0.30,0.42,-66.16,-29.52,-1.58
13132,-8.87,-3.19,-3.99,-0.10,0.30,0.42,-66.16,-29.52,-1.58
13143,-9.05,-3.03,-3.10,-0.17,0.21,0.55,-66.16,-29.52,-1.58
13154,-9.05,-3.03,-3.10,-0.17,0.21,0.55,-66.16,-29.52,-1.58
13165,-9.36,-1.12,-4.40,-0.23,0.20,0.56,-66.86,-27.88,-3.05
13176,-9.20,-3.41,-3.16,-0.04,0.13,0.44,-66.86,-27.88,-3.05
13278,-9.03,-2.58,-4.41,0.08,0.10,0.46,-66.86,-27.88,-3.05
13288,-9.03,-2.58,-4.41,0.08,0.10,0.46,-66.86,-27.88,-3.05
13299,-9.25,-1.93,-3.98,0.07,0.05,0.47,-68.04,-27.13,-2.89
13310,-9.25,-1.93,-3.98,0.07,0.05,0.47,-68.04,-27.13,-2.89
13321,-9.18,-2.94,-4.01,0.12,0.07,0.42,-68.04,-27.13,-2.89
13332,-9.18,-2.94,-4.01,0.12,0.07,0.42,-68.04,-27.13,-2.89
13343,-9.45,-1.42,-4.40,0.04,0.07,0.51,-68.04,-27.13,-2.89
13354,-9.45,-1.42,-4.40,0.04,0.07,0.51,-68.04,-27.13,-2.89
13365,-9.20,-1.58,-2.90,0.12,-0.01,0.46,-68.04,-27.13,-2.89
13376,-8.81,-1.91,-4.26,0.17,0.03,0.26,-68.04,-27.13,-2.89
13387,-8.81,-1.91,-4.26,0.17,0.03,0.26,-68.04,-27.13,-2.89
13398,-9.44,-2.50,-4.34,0.23,0.00,0.19,-68.04,-27.13,-2.89
13542,-8.91,-1.76,-3.95,0.03,-0.14,0.21,-69.69,-24.01,-3.05
13552,-8.91,-1.76,-3.95,0.03,-0.14,0.21,-69.69,-24.01,-3.05
13563,-9.57,-1.46,-3.70,-0.10,-0.11,0.18,-69.69,-24.01,-3.05
13574,-9.57,-1.46,-3.70,-0.10,-0.11,0.18,-69.69,-24.01,-3.05
13585,-9.72,-1.60,-3.00,-0.25,-0.13,0.13,-69.69,-24.01,-3.05
13596,-9.06,-1.38,-3.02,-0.19,-0.15,0.11,-69.69,-24.01,-3.05
13607,-9.06,-1.38,-3.02,-0.19,-0.15,0.11,-69.69,-24.01,-3.05
13618,-9.48,-1.35,-3.31,-0.13,-0.13,0.07,-69.69,-24.01,-3.05
13629,-9.48,-1.35,-3.31,-0.13,-0.13,0.07,-69.69,-24.01,-3.05
13640,-9.29,-1.37,-4.66,-0.12,-0.10,0.05,-69.69,-24.01,-3.05
13651,-9.29,-1.37,-4.66,-0.12,-0.10,0.05,-69.69,-24.01,-3.05
13662,-9.23,-1.17,-3.38,-0.15,-0.21,0.02,-69.69,-24.01,-3.05
13673,-9.23,-1.17,-3.38,-0.15,-0.21,0.02,-69.69,-24.01,-3.05
13776,-8.95,-1.42,-4.39,-0.05,-0.13,-0.50,-70.86,-22.08,-2.24
13786,-8.95,-1.42,-4.39,-0.05,-0.13,-0.50,-70.86,-22.08,-2.24
13797,-8.68,-3.54,-4.68,-0.23,-0.08,-0.55,-70.63,-24.31,-1.42
13808,-8.68,-3.54,-4.68,-0.23,-0.08,-0.55,-70.63,-24.31,-1.42
13819,-9.30,-1.75,-4.97,-0.26,-0.07,-0.29,-70.63,-24.31,-1.42
13830,-9.30,-1.75,-4.97,-0.26,-0.07,-0.29,-70.63,-24.31,-1.42
13841,-9.45,0.40,-3.99,-0.01,-0.20,-0.34,-70.63,-24.31,-1.42
13852,-9.45,0.40,-3.99,-0.01,-0.20,-0.34,-70.63,-24.31,-1.42
13863,-9.12,-2.56,-2.69,0.27,-0.16,-0.67,-70.63,-24.31,-1.42
13874,-9.12,-2.56,-2.69,0.27,-0.16,-0.67,-70.63,-24.31,-1.42
13885,-9.47,-2.70,-3.82,0.03,0.04,-0.52,-70.63,-24.31,-1.42
13896,-9.07,-1.61,-3.94,-0.38,0.13,-0.25,-70.63,-24.31,-1.42
13907,-9.07,-1.61,-3.94,-0.38,0.13,-0.25,-70.63,-24.31,-1.42
13918,-9.19,-1.30,-4.47,-0.67,0.16,-0.29,-68.51,-26.54,-2.24
13929,-9.19,-1.30,-4.47,-0.67,0.16,-0.29,-68.51,-26.54,-2.24
13940,-9.13,-0.84,-4.27,-0.62,0.12,-0.34,-68.51,-26.54,-2.24
14041,-9.19,-2.24,-4.07,-0.13,0.21,-0.08,-68.04,-25.94,-2.89
14051,-9.19,-2.24,-4.07,-0.13,0.21,-0.08,-68.04,-25.94,-2.89
14062,-9.16,-2.67,-3.34,-0.09,0.16,0.02,-68.04,-25.94,-2.89
14073,-9.16,-2.67,-3.34,-0.09,0.16,0.02,-68.04,-25.94,-2.89
14084,-9.16,-3.02,-3.57,-0.21,0.34,0.24,-68.04,-25.94,-2.89
14095,-9.16,-3.02,-3.57,-0.21,0.34,0.24,-68.04,-25.94,-2.89
14106,-9.57,-0.94,-5.09,-0.35,0.36,0.34,-68.04,-25.94,-2.89
14117,-9.15,-2.61,-4.34,0.01,0.10,0.21,-68.04,-25.94,-2.89
14128,-9.15,-2.61,-4.34,0.01,0.10,0.21,-68.04,-25.94,-2.89
14139,-9.29,-3.26,-3.36,0.06,0.05,0.40,-68.04,-25.94,-2.89
14150,-9.29,-3.26,-3.36,0.06,0.05,0.40,-68.04,-25.94,-2.89
14161,-9.11,-1.53,-4.09,-0.26,0.13,0.73,-68.04,-25.94,-2.89
14172,-9.11,-1.53,-4.09,-0.26,0.13,0.73,-68.04,-25.94,-2.89
14276,-9.36,-1.29,-4.42,0.12,0.02,0.58,-68.98,-25.65,-5.49
14286,-9.72,0.55,-4.60,0.10,-0.09,0.50,-68.98,-25.65,-5.49
14297,-9.30,-1.06,-3.85,0.18,-0.11,0.34,-71.33,-22.97,-5.17
14308,-9.30,-1.06,-3.85,0.18,-0.11,0.34,-71.33,-22.97,-5.17
14319,-9.46,-1.03,-3.73,0.07,-0.05,0.30,-71.33,-22.97,-5.17
14330,-9.46,-1.03,-3.73,0.07,-0.05,0.30,-71.33,-22.97,-5.17
14341,-9.86,-1.16,-3.90,0.03,-0.03,0.25,-71.33,-22.97,-5.17
14352,-9.86,-1.16,-3.90,0.03,-0.03,0.25,-71.33,-22.97,-5.17
14363,-9.32,-1.17,-3.84,0.02,-0.06,0.28,-71.33,-22.97,-5.17
14374,-9.32,-1.17,-3.84,0.02,-0.06,0.28,-71.33,-22.97,-5.17
14385,-9.26,-0.84,-4.10,-0.06,-0.08,0.27,-71.33,-22.97,-5.17
14396,-9.26,-0.84,-4.10,-0.06,-0.08,0.27,-71.33,-22.97,-5.17
14407,-9.40,-1.25,-4.01,0.02,-0.07,0.20,-71.33,-22.97,-5.17
14418,-9.67,-1.70,-3.60,0.09,-0.09,0.24,-70.86,-21.48,-4.52
14429,-9.67,-1.70,-3.60,0.09,-0.09,0.24,-70.86,-21.48,-4.52
14440,-9.35,-0.60,-4.18,0.00,-0.14,0.33,-70.86,-21.48,-4.52
14451,-9.35,-0.60,-4.18,0.00,-0.14,0.33,-70.86,-21.48,-4.52
14555,-9.32,0.06,-4.38,-0.45,-0.17,0.02,-70.86,-21.48,-4.52
14565,-9.26,-0.98,-3.58,-0.34,-0.22,-0.26,-72.28,-21.48,-5.17
14576,-9.26,-0.98,-3.58,-0.34,-0.22,-0.26,-72.28,-21.48,-5.17
14587,-9.20,-1.57,-3.34,-0.26,-0.21,-0.39,-72.28,-21.48,-5.17
14598,-8.68,-1.54,-5.23,-0.26,-0.10,-0.38,-72.28,-21.48,-5.17
14609,-8.68,-1.54,-5.23,-0.26,-0.10,-0.38,-72.28,-21.48,-5.17
14620,-8.72,-1.25,-5.28,-0.23,-0.07,-0.24,-72.28,-21.48,-5.17
14631,-8.72,-1.25,-5.28,-0.23,-0.07,-0.24,-72.28,-21.48,-5.17
14642,-8.95,-0.39,-5.54,-0.10,-0.09,-0.19,-72.28,-21.48,-5.17
14653,-8.95,-0.39,-5.54,-0.10,-0.09,-0.19,-72.28,-21.48,-5.17
14664,-8.77,-0.68,-5.25,-0.00,-0.21,-0.33,-72.28,-21.48,-5.17
14675,-8.77,-0.68,-5.25,-0.00,-0.21,-0.33,-72.28,-21.48,-5.17
14777,-9.28,-0.88,-3.63,-0.12,-0.01,-0.14,-70.86,-22.08,-4.19
14787,-9.28,-0.88,-3.63,-0.12,-0.01,-0.14,-70.86,-22.08,-4.19
14798,-9.54,-0.84,-3.85,-0.06,0.02,-0.10,-71.57,-24.60,-4.68
14809,-9.54,-0.84,-3.85,-0.06,0.02,-0.10,-71.57,-24.60,-4.68
14820,-9.15,-1.08,-3.49,-0.08,0.02,-0.02,-71.57,-24.60,-4.68
14831,-9.15,-1.08,-3.49,-0.08,0.02,-0.02,-71.57,-24.60,-4.68
14842,-9.59,-0.45,-3.88,-0.23,0.07,0.00,-71.57,-24.60,-4.68
14853,-9.59,-0.45,-3.88,-0.23,0.07,0.00,-71.57,-24.60,-4.68
14864,-9.49,-0.44,-4.38,-0.13,0.11,0.07,-71.57,-24.60,-4.68
14875,-9.49,-0.44,-4.38,-0.13,0.11,0.07,-71.57,-24.60,-4.68
14886,-9.49,0.84,-4.47,-0.06,0.06,0.05,-71.57,-24.60,-4.68
14897,-9.46,-1.37,-3.83,0.08,0.03,-0.14,-71.57,-24.60,-4.68
14908,-9.46,-1.37,-3.83,0.08,0.03,-0.14,-71.57,-24.60,-4.68
14919,-9.09,-0.58,-4.18,0.07,0.17,0.03,-71.57,-24.60,-4.68
14930,-9.09,-0.58,-4.18,0.07,0.17,0.03,-71.57,-24.60,-4.68
14941,-9.46,-1.20,-3.87,0.11,0.29,0.11,-71.33,-22.67,-3.87
14952,-9.46,-1.20,-3.87,0.11,0.29,0.11,-71.33,-22.67,-3.87
15055,-9.90,-0.32,-3.42,-0.08,-0.03,0.47,-71.33,-22.67,-3.87
15065,-9.71,-1.03,-2.59,0.01,-0.03,0.35,-70.16,-22.52,-4.03
15076,-9.71,-1.03,-2.59,0.01,-0.03,0.35,-70.16,-22.52,-4.03
15087,-9.62,-0.97,-3.69,-0.03,0.02,0.33,-70.16,-22.52,-4.03
15098,-9.52,-0.60,-3.59,-0.08,-0.02,0.30,-70.16,-22.52,-4.03
15109,-9.52,-0.60,-3.59,-0.08,-0.02,0.30,-70.16,-22.52,-4.03
15120,-9.60,-0.47,-4.00,-0.03,-0.01,0.33,-70.16,-22.52,-4.03
15131,-9.60,-0.47,-4.00,-0.03,-0.01,0.33,-70.16,-22.52,-4.03
15142,-9.33,-0.12,-3.30,0.05,-0.03,0.38,-70.16,-22.52,-4.03
15153,-9.33,-0.12,-3.30,0.05,-0.03,0.38,-70.16,-22.52,-4.03
15164,-9.61,-0.45,-3.43,0.00,0.06,0.23,-70.16,-22.52,-4.03
15175,-9.61,-0.45,-3.43,0.00,0.06,0.23,-70.16,-22.52,-4.03
15281,-9.84,-0.68,-4.14,-0.19,0.02,0.18,-72.28,-20.29,-3.54
15291,-9.84,-0.68,-4.14,-0.19,0.02,0.18,-72.28,-20.29,-3.54
15302,-9.86,-0.55,-3.56,-0.19,-0.07,0.20,-72.28,-20.29,-3.54
15313,-9.86,-0.55,-3.56,-0.19,-0.07,0.20,-72.28,-20.29,-3.54
15324,-9.50,-0.13,-3.91,-0.19,-0.14,0.21,-74.39,-20.44,-4.03
15335,-9.50,-0.13,-3.91,-0.19,-0.14,0.21,-74.39,-20.44,-4.03
15346,-9.56,-0.65,-3.63,-0.18,-0.16,0.15,-74.39,-20.44,-4.03
15357,-9.56,-0.65,-3.63,-0.18,-0.16,0.15,-74.39,-20.44,-4.03
15368,-9.10,-1.60,-3.60,-0.18,-0.14,0.10,-74.39,-20.44,-4.03
15379,-10.06,-0.72,-3.06,-0.32,-0.16,0.08,-74.39,-20.44,-4.03
15390,-10.06,-0.72,-3.06,-0.32,-0.16,0.08,-74.39,-20.44,-4.03
15401,-9.45,0.20,-4.73,-0.27,-0.14,-0.11,-74.39,-20.44,-4.03
15412,-9.45,0.20,-4.73,-0.27,-0.14,-0.11,-74.39,-20.44,-4.03
15423,-9.07,-0.52,-4.52,-0.03,-0.13,-0.37,-74.39,-20.44,-4.03
15434,-9.07,-0.52,-4.52,-0.03,-0.13,-0.37,-74.39,-20.44,-4.03
15445,-9.04,0.12,-5.78,0.08,-0.15,-0.44,-71.80,-20.88,-4.19
15456,-9.04,0.12,-5.78,0.08,-0.15,-0.44,-71.80,-20.88,-4.19
15599,-9.08,-1.14,-2.73,0.12,-0.13,-0.32,-71.57,-21.03,-4.03
15609,-9.08,-1.14,-2.73,0.12,-0.13,-0.32,-71.57,-21.03,-4.03
15620,-9.71,-0.51,-3.30,0.01,0.06,-0.17,-71.57,-21.03,-4.03
15631,-9.71,-0.51,-3.30,0.01,0.06,-0.17,-71.57,-21.03,-4.03
15642,-9.73,-0.12,-3.49,-0.14,0.09,-0.03,-71.57,-21.03,-4.03
15653,-9.73,-0.12,-3.49,-0.14,0.09,-0.03,-71.57,-21.03,-4.03
15664,-9.31,0.51,-3.78,-0.15,0.07,0.07,-71.57,-21.03,-4.03
15675,-9.31,0.51,-3.78,-0.15,0.07,0.07,-71.57,-21.03,-4.03
15686,-9.45,0.62,-3.36,-0.00,0.06,0.01,-70.86,-21.48,-3.87
15697,-9.45,0.62,-3.36,-0.00,0.06,0.01,-70.86,-21.48,-3.87
15708,-9.16,0.16,-3.32,0.05,0.13,-0.15,-70.86,-21.48,-3.87
15719,-9.27,-0.85,-3.96,0.05,0.22,-0.12,-70.86,-21.48,-3.87
15824,-9.44,-1.16,-3.45,-0.10,0.19,0.22,-71.57,-22.52,-4.03
15834,-9.44,-1.16,-3.45,-0.10,0.19,0.22,-71.57,-22.52,-4.03
15845,-9.45,-0.72,-3.79,-0.11,0.12,0.27,-71.57,-22.52,-4.03
15856,-9.45,-0.72,-3.79,-0.11,0.12,0.27,-71.57,-22.52,-4.03
15867,-9.22,-0.43,-4.06,-0.05,0.03,0.25,-71.57,-22.52,-4.03
15878,-9.06,-1.61,-3.68,0.07,0.03,0.32,-71.57,-22.52,-4.03
15889,-9.06,-1.61,-3.68,0.07,0.03,0.32,-71.57,-22.52,-4.03
15900,-9.92,-0.15,-3.32,-0.05,0.03,0.42,-71.57,-22.52,-4.03
15911,-9.92,-0.15,-3.32,-0.05,0.03,0.42,-71.57,-22.52,-4.03
15922,-9.49,-0.39,-3.28,0.00,0.04,0.31,-71.57,-22.52,-4.03
15933,-9.49,-0.39,-3.28,0.00,0.04,0.31,-71.57,-22.52,-4.03
15944,-9.72,-0.43,-4.20,-0.03,0.02,0.26,-70.63,-21.33,-4.68
15955,-9.72,-0.43,-4.20,-0.03,0.02,0.26,-70.63,-21.33,-4.68
16060,-9.27,-0.46,-3.83,-0.21,-0.01,0.18,-70.86,-20.59,-5.17
16070,-9.27,-0.46,-3.83,-0.21,-0.01,0.18,-70.86,-20.59,-5.17
16081,-9.20,-0.46,-3.63,-0.25,0.04,0.15,-70.86,-20.59,-5.17
16092,-9.20,-0.46,-3.63,-0.25,0.04,0.15,-70.86,-20.59,-5.17
16103,-9.43,-0.73,-3.89,-0.15,-0.05,0.12,-70.86,-20.59,-5.17
16114,-9.43,-0.73,-3.89,-0.15,-0.05,0.12,-70.86,-20.59,-5.17
16125,-9.09,-0.52,-3.08,-0.11,-0.09,0.17,-70.86,-20.59,-5.17
16136,-9.09,-0.52,-3.08,-0.11,-0.09,0.17,-70.86,-20.59,-5.17
16147,-9.78,-0.45,-2.72,-0.09,-0.03,0.16,-70.86,-20.59,-5.17
16158,-9.53,-0.53,-3.64,-0.13,0.06,0.12,-70.86,-20.59,-5.17
16169,-9.53,-0.53,-3.64,-0.13,0.06,0.12,-70.86,-20.59,-5.17
16180,-9.77,-0.04,-3.69,-0.26,-0.01,0.08,-70.86,-20.59,-5.17
16191,-9.77,-0.04,-3.69,-0.26,-0.01,0.08,-70.86,-20.59,-5.17
16202,-9.41,-0.24,-4.11,-0.28,-0.13,-0.06,-72.28,-19.69,-4.19
16213,-9.41,-0.24,-4.11,-0.28,-0.13,-0.06,-72.28,-19.69,-4.19
16224,-9.55,-0.94,-3.90,-0.18,-0.21,-0.24,-72.28,-19.69,-4.19
16326,-8.82,-0.69,-6.10,-0.22,-0.03,-0.21,-72.04,-21.03,-5.33
16337,-8.82,-0.69,-6.10,-0.22,-0.03,-0.21,-72.04,-21.03,-5.33
16348,-9.17,0.15,-5.15,-0.05,-0.17,-0.27,-72.04,-21.03,-5.33
16359,-9.13,-0.23,-4.14,0.16,-0.25,-0.49,-72.04,-21.03,-5.33
16375,-9.13,-0.23,-4.14,0.16,-0.25,-0.49,-72.04,-21.03,-5.33
16381,-8.87,-1.88,-3.29,0.17,-0.17,-0.52,-72.04,-21.03,-5.33
16392,-8.87,-1.88,-3.29,0.17,-0.17,-0.52,-72.04,-21.03,-5.33
16403,-9.25,-1.43,-4.51,-0.06,-0.03,-0.31,-72.04,-21.03,-5.33
16414,-9.25,-1.43,-4.51,-0.06,-0.03,-0.31,-72.04,-21.03,-5.33
16425,-9.50,-0.28,-3.89,-0.23,0.03,-0.14,-72.04,-21.03,-5.33
16436,-9.50,-0.28,-3.89,-0.23,0.03,-0.14,-72.04,-21.03,-5.33
16447,-9.37,-1.02,-4.30,-0.24,0.04,-0.19,-72.98,-21.03,-5.33
16458,-9.37,-1.02,-4.30,-0.24,0.04,-0.19,-72.98,-21.03,-5.33
16561,-10.08,0.48,-4.08,0.04,0.03,-0.00,-72.98,-21.03,-5.33
16571,-10.08,0.48,-4.08,0.04,0.03,-0.00,-72.98,-21.03,-5.33
16582,-9.58,0.07,-4.08,0.07,0.02,-0.05,-69.92,-22.37,-4.52
16593,-9.58,0.07,-4.08,0.07,0.02,-0.05,-69.92,-22.37,-4.52
16604,-9.94,-0.24,-4.04,0.14,0.01,-0.02,-69.92,-22.37,-4.52
16615,-9.94,-0.24,-4.04,0.14,0.01,-0.02,-69.92,-22.37,-4.52
16626,-9.60,-0.12,-4.09,0.18,0.03,0.07,-69.92,-22.37,-4.52
16637,-9.60,-0.12,-4.09,0.18,0.03,0.07,-69.92,-22.37,-4.52
16648,-9.74,-1.06,-2.83,0.20,0.05,0.19,-69.92,-22.37,-4.52
16659,-9.57,-0.85,-3.24,0.06,0.04,0.24,-69.92,-22.37,-4.52
16670,-9.57,-0.85,-3.24,0.06,0.04,0.24,-69.92,-22.37,-4.52
16681,-9.29,-0.50,-2.93,0.02,0.01,0.29,-69.92,-22.37,-4.52
16786,-9.21,-1.14,-2.78,0.08,-0.05,0.25,-71.57,-23.12,-4.68
16796,-9.21,-1.14,-2.78,0.08,-0.05,0.25,-71.57,-23.12,-4.68
16807,-9.06,-0.55,-3.33,-0.04,-0.00,0.17,-71.57,-23.12,-4.68
16818,-9.06,-0.55,-3.33,-0.04,-0.00,0.17,-71.57,-23.12,-4.68
16829,-9.70,-0.04,-3.45,-0.09,0.04,0.11,-72.04,-20.74,-4.35
16840,-8.85,-0.74,-3.93,-0.07,0.04,0.06,-72.04,-20.74,-4.35
16851,-8.85,-0.74,-3.93,-0.07,0.04,0.06,-72.04,-20.74,-4.35
16862,-9.90,-1.20,-3.23,-0.11,-0.02,0.10,-72.04,-20.74,-4.35
16873,-9.90,-1.20,-3.23,-0.11,-0.02,0.10,-72.04,-20.74,-4.35
16884,-9.38,-0.84,-3.86,-0.09,-0.03,0.18,-72.04,-20.74,-4.35
16895,-9.38,-0.84,-3.86,-0.09,-0.03,0.18,-72.04,-20.74,-4.35
16906,-9.50,-0.78,-3.80,-0.06,-0.09,0.17,-72.04,-20.74,-4.35
16917,-9.50,-0.78,-3.80,-0.06,-0.09,0.17,-72.04,-20.74,-4.35
16928,-9.65,-0.29,-2.94,-0.11,-0.06,0.16,-72.04,-20.74,-4.35
16939,-9.53,-0.85,-3.25,-0.15,0.01,0.09,-72.51,-21.63,-4.68
16950,-9.53,-0.85,-3.25,-0.15,0.01,0.09,-72.51,-21.63,-4.68
16961,-9.48,-0.97,-3.34,-0.14,-0.05,0.00,-72.51,-21.63,-4.68
17063,-9.35,-0.84,-4.89,-0.30,-0.03,-0.26,-72.51,-21.63,-4.68
17073,-9.35,-0.84,-4.89,-0.30,-0.03,-0.26,-72.51,-21.63,-4.68
17084,-9.47,-0.66,-4.35,-0.15,-0.16,-0.31,-70.63,-20.44,-5.66
17095,-9.47,-0.66,-4.35,-0.15,-0.16,-0.31,-70.63,-20.44,-5.66
17106,-9.03,-0.51,-4.53,-0.04,-0.16,-0.40,-70.63,-20.44,-5.66
17117,-9.03,-0.51,-4.53,-0.04,-0.16,-0.40,-70.63,-20.44,-5.66
17128,-8.73,-1.64,-3.63,-0.11,-0.15,-0.41,-70.63,-20.44,-5.66
17139,-9.29,-1.58,-3.35,-0.29,-0.08,-0.38,-70.63,-20.44,-5.66
17150,-9.29,-1.58,-3.35,-0.29,-0.08,-0.38,-70.63,-20.44,-5.66
17161,-8.92,-0.55,-3.91,-0.36,-0.05,-0.40,-70.63,-20.44,-5.66
17172,-8.92,-0.55,-3.91,-0.36,-0.05,-0.40,-70.63,-20.44,-5.66
17183,-9.28,-0.78,-4.08,-0.19,-0.09,-0.43,-70.63,-20.44,-5.66
17284,-9.63,0.45,-3.48,-0.45,0.09,-0.19,-70.63,-21.33,-5.33
17295,-9.63,0.45,-3.48,-0.45,0.09,-0.19,-70.63,-21.33,-5.33
17306,-9.32,-0.03,-3.45,-0.21,0.10,-0.18,-70.63,-21.33,-5.33
17317,-9.32,-0.03,-3.45,-0.21,0.10,-0.18,-70.63,-21.33,-5.33
17328,-9.80,0.01,-4.02,-0.03,0.10,-0.22,-72.51,-22.82,-5.33
17339,-9.65,0.16,-3.21,0.05,0.03,-0.16,-72.51,-22.82,-5.33
17350,-9.65,0.16,-3.21,0.05,0.03,-0.16,-72.51,-22.82,-5.33
17361,-9.41,-0.44,-2.98,0.06,0.07,-0.25,-72.51,-22.82,-5.33
17372,-9.41,-0.44,-2.98,0.06,0.07,-0.25,-72.51,-22.82,-5.33
17383,-9.29,-1.06,-2.95,0.03,0.20,-0.30,-72.51,-22.82,-5.33
17394,-9.29,-1.06,-2.95,0.03,0.20,-0.30,-72.51,-22.82,-5.33
17405,-9.44,-0.69,-2.85,0.03,0.27,-0.18,-72.51,-22.82,-5.33
17416,-9.44,-0.69,-2.85,0.03,0.27,-0.18,-72.51,-22.82,-5.33
17427,-9.42,-1.07,-3.12,0.06,0.27,-0.16,-72.51,-22.82,-5.33
17438,-9.42,-1.07,-3.12,0.06,0.27,-0.16,-72.51,-22.82,-5.33
17449,-9.55,-1.65,-3.54,0.06,0.30,-0.07,-72.51,-22.82,-5.33
17460,-9.43,-1.62,-3.58,-0.09,0.27,0.13,-67.80,-23.12,-5.66
17602,-9.12,-0.00,-3.63,0.16,-0.14,0.45,-70.63,-22.22,-5.66
17613,-9.12,-0.00,-3.63,0.16,-0.14,0.45,-70.63,-22.22,-5.66
17624,-9.85,-1.13,-2.55,0.12,-0.13,0.29,-70.63,-22.22,-5.66
17635,-9.85,-1.13,-2.55,0.12,-0.13,0.29,-70.63,-22.22,-5.66
17646,-9.58,-0.90,-3.40,0.09,-0.14,0.22,-70.63,-22.22,-5.66
17657,-9.58,-0.90,-3.40,0.09,-0.14,0.22,-70.63,-22.22,-5.66
17668,-10.23,-1.15,-2.64,0.00,-0.30,0.26,-70.63,-22.22,-5.66
17679,-10.23,-1.15,-2.64,0.00,-0.30,0.26,-70.63,-22.22,-5.66
17690,-9.69,-0.88,-2.58,0.01,-0.24,0.30,-70.63,-22.22,-5.66
17701,-9.25,-0.43,-3.00,0.02,-0.12,0.27,-72.04,-20.14,-5.98
17712,-9.25,-0.43,-3.00,0.02,-0.12,0.27,-72.04,-20.14,-5.98
17723,-9.75,-1.18,-3.19,-0.05,-0.05,0.18,-72.04,-20.14,-5.98
17734,-9.75,-1.18,-3.19,-0.05,-0.05,0.18,-72.04,-20.14,-5.98
17838,-9.22,0.54,-4.54,-0.19,-0.16,0.05,-72.04,-20.14,-5.98
17849,-9.35,-0.07,-4.53,-0.02,-0.23,-0.28,-72.75,-19.10,-3.87
17860,-9.31,-1.46,-2.93,0.04,-0.22,-0.47,-72.75,-19.10,-3.87
17871,-9.31,-1.46,-2.93,0.04,-0.22,-0.47,-72.75,-19.10,-3.87
17882,-9.43,0.05,-5.30,-0.01,-0.06,-0.43,-72.75,-19.10,-3.87
17893,-9.43,0.05,-5.30,-0.01,-0.06,-0.43,-72.75,-19.10,-3.87
17904,-9.46,0.61,-4.91,0.10,-0.11,-0.49,-72.75,-19.10,-3.87
17915,-9.46,0.61,-4.91,0.10,-0.11,-0.49,-72.75,-19.10,-3.87
17926,-9.21,-0.35,-3.72,0.15,-0.25,-0.79,-72.75,-19.10,-3.87
17937,-9.21,-0.35,-3.72,0.15,-0.25,-0.79,-72.75,-19.10,-3.87
17948,-9.55,-0.63,-3.87,0.17,-0.25,-0.96,-72.75,-19.10,-3.87
17959,-9.55,-0.63,-3.87,0.17,-0.25,-0.96,-72.75,-19.10,-3.87
18064,-9.82,-0.75,-3.13,-0.06,0.11,-0.19,-71.33,-22.97,-4.84
18074,-9.82,-0.75,-3.13,-0.06,0.11,-0.19,-71.33,-22.97,-4.84
18085,-9.95,0.35,-3.33,-0.14,0.27,-0.13,-67.57,-24.46,-4.84
18096,-9.95,0.35,-3.33,-0.14,0.27,-0.13,-67.57,-24.46,-4.84
18107,-9.42,-0.67,-3.42,-0.21,0.29,-0.22,-67.57,-24.46,-4.84
18118,-9.42,-0.67,-3.42,-0.21,0.29,-0.22,-67.57,-24.46,-4.84
18129,-9.60,-0.22,-2.84,-0.15,0.22,-0.21,-67.57,-24.46,-4.84
18140,-9.67,-0.53,-3.34,-0.03,0.26,-0.24,-67.57,-24.46,-4.84
18151,-9.67,-0.53,-3.34,-0.03,0.26,-0.24,-67.57,-24.46,-4.84
18162,-9.49,-2.92,-2.67,-0.04,0.32,-0.26,-67.57,-24.46,-4.84
18173,-9.49,-2.92,-2.67,-0.04,0.32,-0.26,-67.57,-24.46,-4.84
18184,-9.18,-2.63,-3.43,-0.19,0.41,0.12,-67.57,-24.46,-4.84
18195,-9.18,-2.63,-3.43,-0.19,0.41,0.12,-67.57,-24.46,-4.84
18206,-9.77,-1.58,-3.56,-0.17,0.39,0.53,-67.57,-24.46,-4.84
18217,-9.77,-1.58,-3.56,-0.17,0.39,0.53,-67.57,-24.46,-4.84
18228,-9.68,-0.46,-4.55,-0.13,0.27,0.64,-66.63,-23.86,-6.80
18239,-9.68,-0.46,-4.55,-0.13,0.27,0.64,-66.63,-23.86,-6.80
18341,-9.06,-0.37,-4.08,0.15,-0.05,0.50,-71.80,-22.37,-7.12
18351,-9.06,-0.37,-4.08,0.15,-0.05,0.50,-71.80,-22.37,-7.12
18362,-9.64,-0.55,-3.77,0.18,-0.13,0.38,-71.80,-22.37,-7.12
18373,-9.64,-0.55,-3.77,0.18,-0.13,0.38,-71.80,-22.37,-7.12
18384,-9.16,-0.95,-3.29,0.19,-0.18,0.25,-71.80,-22.37,-7.12
18395,-9.16,-0.95,-3.29,0.19,-0.18,0.25,-71.80,-22.37,-7.12
18406,-9.61,-0.86,-3.51,0.13,-0.13,0.17,-71.80,-22.37,-7.12
18417,-9.61,-0.86,-3.51,0.13,-0.13,0.17,-71.80,-22.37,-7.12
18428,-9.38,0.08,-4.38,0.04,-0.11,0.14,-71.80,-22.37,-7.12
18439,-9.38,0.08,-4.38,0.04,-0.11,0.14,-71.80,-22.37,-7.12
18450,-9.62,-0.25,-3.86,0.03,-0.16,0.09,-71.80,-22.37,-7.12
18461,-9.03,-1.54,-3.77,0.10,-0.21,0.03,-70.16,-22.22,-5.33
18563,-9.36,-0.55,-2.55,-0.06,-0.31,0.12,-70.16,-22.22,-5.33
18573,-9.36,-0.55,-2.55,-0.06,-0.31,0.12,-70.16,-22.22,-5.33
18584,-9.60,-1.02,-2.95,-0.09,-0.20,0.01,-71.57,-21.03,-5.98
18595,-9.60,-1.02,-2.95,-0.09,-0.20,0.01,-71.57,-21.03,-5.98
18606,-9.70,-0.39,-3.32,-0.27,-0.11,0.00,-71.57,-21.03,-5.98
18617,-9.70,-0.39,-3.32,-0.27,-0.11,0.00,-71.57,-21.03,-5.98
18628,-10.22,1.63,-4.71,-0.33,-0.26,-0.12,-71.57,-21.03,-5.98
18639,-10.22,1.63,-4.71,-0.33,-0.26,-0.12,-71.57,-21.03,-5.98
18650,-10.00,1.26,-2.83,0.09,-0.70,-0.58,-71.57,-21.03,-5.98
18661,-9.90,1.16,-2.61,0.48,-0.78,-1.03,-71.57,-21.03,-5.98
18672,-9.90,1.16,-2.61,0.48,-0.78,-1.03,-71.57,-21.03,-5.98
18683,-17.50,2.76,1.68,0.61,-0.59,-1.58,-71.57,-21.03,-5.98
18694,-17.50,2.76,1.68,0.61,-0.59,-1.58,-71.57,-21.03,-5.98
18705,-19.26,2.64,5.55,-0.36,0.73,-2.67,-71.57,-21.03,-5.98
18716,-19.26,2.64,5.55,-0.36,0.73,-2.67,-71.57,-21.03,-5.98
18727,-14.31,0.40,-3.63,-1.36,2.57,-3.97,-68.04,-25.65,-4.84
18738,-14.31,0.40,-3.63,-1.36,2.57,-3.97,-68.04,-25.65,-4.84
18840,-1.37,-5.30,-4.70,-1.07,1.20,-1.80,-68.04,-25.65,-4.84
18850,-0.89,-5.52,-6.79,-0.75,0.83,-0.91,-48.97,-32.04,-14.78
18861,-2.88,-4.11,-5.85,-0.48,0.35,0.03,-48.97,-32.04,-14.78
18872,-2.88,-4.11,-5.85,-0.48,0.35,0.03,-48.97,-32.04,-14.78
18883,-5.38,-2.20,-5.29,-0.54,0.19,0.46,-48.97,-32.04,-14.78
18894,-5.38,-2.20,-5.29,-0.54,0.19,0.46,-48.97,-32.04,-14.78
18905,-5.92,-1.63,-6.53,-0.66,0.18,0.33,-48.97,-32.04,-14.78
18916,-5.92,-1.63,-6.53,-0.66,0.18,0.33,-48.97,-32.04,-14.78
18927,-6.24,-3.75,-6.27,-0.32,-0.03,0.10,-48.97,-32.04,-14.78
18938,-6.24,-3.75,-6.27,-0.32,-0.03,0.10,-48.97,-32.04,-14.78
18949,-7.00,-5.21,-6.46,-0.22,-0.14,0.26,-48.97,-32.04,-14.78
18960,-7.00,-5.21,-6.46,-0.22,-0.14,0.26,-48.97,-32.04,-14.78
19063,-8.41,-3.58,-4.44,-0.11,-0.39,0.23,-52.03,-31.60,-16.25
19073,-8.41,-3.58,-4.44,-0.11,-0.39,0.23,-52.03,-31.60,-16.25
19084,-8.90,-3.54,-4.75,-0.34,-0.17,0.18,-52.03,-31.60,-16.25
19095,-8.90,-3.54,-4.75,-0.34,-0.17,0.18,-52.03,-31.60,-16.25
19106,-8.18,-3.61,-5.95,-0.52,0.13,0.13,-55.09,-30.26,-14.78
19117,-8.18,-3.61,-5.95,-0.52,0.13,0.13,-55.09,-30.26,-14.78
19128,-7.74,-4.02,-6.13,-0.57,0.19,0.20,-55.09,-30.26,-14.78
19139,-7.74,-4.02,-6.13,-0.57,0.19,0.20,-55.09,-30.26,-14.78
19150,-6.78,-4.47,-5.63,-0.77,0.23,0.45,-55.09,-30.26,-14.78
19161,-6.17,-4.87,-5.12,-1.37,0.35,0.95,-55.09,-30.26,-14.78
19172,-6.17,-4.87,-5.12,-1.37,0.35,0.95,-55.09,-30.26,-14.78
19183,-6.90,-4.47,-4.38,-2.49,0.53,1.58,-55.09,-30.26,-14.78
19194,-6.90,-4.47,-4.38,-2.49,0.53,1.58,-55.09,-30.26,-14.78
19205,-5.93,-5.27,-4.32,-4.90,0.74,2.30,-55.09,-30.26,-14.78
19216,-5.93,-5.27,-4.32,-4.90,0.74,2.30,-55.09,-30.26,-14.78
19227,-3.33,-8.53,-9.89,-8.41,0.38,4.30,-57.45,-19.84,-21.95
19238,-3.33,-8.53,-9.89,-8.41,0.38,4.30,-57.45,-19.84,-21.95
19344,-4.19,9.78,7.27,-4.92,-2.64,-0.34,-60.04,19.59,11.12
19354,-4.19,9.78,7.27,-4.92,-2.64,-0.34,-60.04,19.59,11.12
19365,-3.92,5.74,4.43,-6.53,-2.34,-1.25,-60.04,19.59,11.12
19376,-3.92,5.74,4.43,-6.53,-2.34,-1.25,-60.04,19.59,11.12
19387,-5.19,4.38,4.53,-10.35,-3.50,-1.67,-60.04,19.59,11.12
19398,-5.19,4.38,4.53,-10.35,-3.50,-1.67,-60.04,19.59,11.12
19409,-2.82,-0.29,10.94,-9.87,-3.81,-1.73,-60.04,19.59,11.12
19420,-2.82,-0.29,10.94,-9.87,-3.81,-1.73,-60.04,19.59,11.12
19431,-3.40,-2.30,12.86,-6.77,-2.37,-1.07,-60.04,19.59,11.12
19442,-3.95,0.35,10.84,-3.58,-0.50,-0.06,-60.04,19.59,11.12
19453,-3.95,0.35,10.84,-3.58,-0.50,-0.06,-60.04,19.59,11.12
19464,-4.76,3.28,8.41,-2.66,0.31,0.11,-60.04,19.59,11.12
19607,-5.42,1.41,8.18,0.67,0.53,0.05,-61.45,3.82,32.63
19617,-5.42,1.41,8.18,0.67,0.53,0.05,-61.45,3.82,32.63
19628,-5.67,1.37,8.31,0.77,0.40,0.05,-61.45,3.82,32.63
19639,-5.67,1.37,8.31,0.77,0.40,0.05,-61.45,3.82,32.63
19650,-5.67,1.36,9.08,1.18,0.33,0.15,-61.45,3.82,32.63
19661,-5.67,1.36,9.08,1.18,0.33,0.15,-61.45,3.82,32.63
19672,-5.74,1.56,9.82,1.76,0.59,0.30,-61.45,3.82,32.63
19683,-5.97,2.34,9.51,2.74,1.21,0.51,-61.45,3.82,32.63
19694,-5.97,2.34,9.51,2.74,1.21,0.51,-61.45,3.82,32.63
19705,-6.34,3.45,8.22,3.69,1.73,0.57,-61.45,3.82,32.63
19716,-6.34,3.45,8.22,3.69,1.73,0.57,-61.45,3.82,32.63
19727,-5.38,4.39,6.18,3.82,1.80,0.34,-64.74,10.96,26.76
19738,-5.38,4.39,6.18,3.82,1.80,0.34,-64.74,10.96,26.76
19749,-5.74,4.19,5.05,3.94,1.45,0.09,-64.74,10.96,26.76
19853,-4.99,6.13,0.75,4.24,2.00,0.16,-70.39,17.21,6.56
19863,-5.86,6.34,-0.62,3.20,1.29,0.01,-70.39,17.21,6.56
19874,-5.86,6.34,-0.62,3.20,1.29,0.01,-70.39,17.21,6.56
19885,-6.15,6.38,0.25,2.42,0.45,-0.22,-70.39,17.21,6.56
19896,-6.15,6.38,0.25,2.42,0.45,-0.22,-70.39,17.21,6.56
19907,-6.02,6.07,1.33,1.86,-0.14,-0.41,-70.39,17.21,6.56
19918,-6.02,6.07,1.33,1.86,-0.14,-0.41,-70.39,17.21,6.56
19929,-6.07,5.38,1.10,1.32,-0.51,-0.45,-70.39,17.21,6.56
19940,-6.07,5.38,1.10,1.32,-0.51,-0.45,-70.39,17.21,6.56
19951,-5.98,5.17,0.85,0.74,-0.77,-0.30,-70.39,17.21,6.56
19962,-6.83,5.68,1.43,-0.14,-1.08,-0.04,-70.39,17.21,6.56
19973,-6.83,5.68,1.43,-0.14,-1.08,-0.04,-70.39,17.21,6.56
19984,-6.91,6.58,1.81,-0.93,-1.44,0.19,-74.16,16.02,1.67
20083,-7.31,6.69,4.91,0.43,0.45,-0.14,-74.16,16.02,1.67
20094,-7.31,6.69,4.91,0.43,0.45,-0.14,-74.16,16.02,1.67
20105,-7.46,5.65,4.33,1.25,1.19,-0.09,-71.33,17.21,7.54
20116,-7.46,5.65,4.33,1.25,1.19,-0.09,-71.33,17.21,7.54
20127,-7.36,5.56,4.13,2.06,1.76,0.31,-71.33,17.21,7.54
20138,-7.36,5.56,4.13,2.06,1.76,0.31,-71.33,17.21,7.54
20149,-6.13,6.77,3.42,2.92,2.45,0.81,-71.33,17.21,7.54
20160,-6.13,6.77,3.42,2.92,2.45,0.81,-71.33,17.21,7.54
20171,-5.68,10.31,0.20,3.59,3.16,0.86,-71.33,17.21,7.54
20182,-6.66,11.35,-2.47,5.19,3.52,0.10,-71.33,17.21,7.54
20193,-6.66,11.35,-2.47,5.19,3.52,0.10,-71.33,17.21,7.54
20204,-6.17,11.22,-2.76,6.83,3.58,-0.94,-71.33,17.21,7.54
20215,-6.17,11.22,-2.76,6.83,3.58,-0.94,-71.33,17.21,7.54
20226,-4.44,11.48,-5.70,5.85,3.25,-2.23,-66.39,11.41,-18.69
20329,-5.55,1.98,-9.22,6.92,2.17,-4.11,-66.39,11.41,-18.69
20339,-5.55,1.98,-9.22,6.92,2.17,-4.11,-66.39,11.41,-18.69
20350,-3.50,-0.20,-6.13,6.92,1.24,-3.91,-66.39,11.41,-18.69
20361,-3.50,-0.20,-6.13,6.92,1.24,-3.91,-66.39,11.41,-18.69
20372,-6.98,-2.12,-5.89,6.68,1.00,-3.45,-56.74,-20.29,-25.04
20383,-7.49,-6.18,-6.27,6.30,0.81,-2.82,-56.74,-20.29,-25.04
20394,-7.49,-6.18,-6.27,6.30,0.81,-2.82,-56.74,-20.29,-25.04
20405,-9.31,-7.16,-4.29,4.42,0.24,-1.87,-56.74,-20.29,-25.04
20416,-9.31,-7.16,-4.29,4.42,0.24,-1.87,-56.74,-20.29,-25.04
20427,-9.67,-6.15,-4.53,2.36,0.20,-0.98,-56.74,-20.29,-25.04
20438,-9.67,-6.15,-4.53,2.36,0.20,-0.98,-56.74,-20.29,-25.04
20449,-8.94,-4.26,-4.61,1.12,0.36,-0.43,-56.74,-20.29,-25.04
20551,-5.83,-4.29,-5.49,1.67,0.15,-0.96,-48.74,-33.38,-19.18
20562,-5.83,-4.29,-5.49,1.67,0.15,-0.96,-48.74,-33.38,-19.18
20573,-5.58,-6.07,-6.48,1.39,0.06,-0.83,-48.74,-33.38,-19.18
20584,-5.27,-6.28,-6.84,0.45,-0.35,-0.51,-48.74,-33.38,-19.18
20595,-5.27,-6.28,-6.84,0.45,-0.35,-0.51,-48.74,-33.38,-19.18
20606,-5.04,-4.76,-8.22,-0.88,-0.75,-0.30,-46.62,-35.91,-13.48
20617,-5.04,-4.76,-8.22,-0.88,-0.75,-0.30,-46.62,-35.91,-13.48
20628,-4.49,-2.93,-9.92,-1.07,-0.99,-0.17,-46.62,-35.91,-13.48
20639,-4.49,-2.93,-9.92,-1.07,-0.99,-0.17,-46.62,-35.91,-13.48
20650,-4.46,-2.03,-8.86,0.35,-1.19,0.20,-46.62,-35.91,-13.48
20661,-4.46,-2.03,-8.86,0.35,-1.19,0.20,-46.62,-35.91,-13.48
20672,-1.61,-5.77,-6.74,1.19,-1.31,0.40,-46.62,-35.91,-13.48
20683,-0.32,-4.69,-11.00,-0.92,-2.31,0.33,-46.62,-35.91,-13.48
20694,-0.32,-4.69,-11.00,-0.92,-2.31,0.33,-46.62,-35.91,-13.48
20705,-2.07,-2.04,-9.33,-0.69,-4.19,0.49,-46.62,-35.91,-13.48
20716,-2.07,-2.04,-9.33,-0.69,-4.19,0.49,-46.62,-35.91,-13.48
20816,1.81,0.24,5.55,8.42,-8.45,-3.86,-56.27,-36.66,-7.45
20826,0.55,-2.89,11.65,11.04,-8.46,-3.08,-56.27,-36.66,-7.45
20837,0.55,-2.89,11.65,11.04,-8.46,-3.08,-56.27,-36.66,-7.45
20848,2.11,-1.74,11.09,8.62,-8.29,-2.22,-56.27,-36.66,-7.45
20859,2.11,-1.74,11.09,8.62,-8.29,-2.22,-56.27,-36.66,-7.45
20870,0.39,-0.01,15.09,10.29,-7.50,-1.35,-24.73,-29.52,41.10
20881,0.39,-0.01,15.09,10.29,-7.50,-1.35,-24.73,-29.52,41.10
20892,-2.16,1.17,18.04,11.13,-6.06,-0.43,-24.73,-29.52,41.10
20903,-3.08,1.09,17.94,9.37,-4.08,0.35,-24.73,-29.52,41.10
20914,-3.08,1.09,17.94,9.37,-4.08,0.35,-24.73,-29.52,41.10
20925,-0.83,0.30,18.27,6.69,-2.20,1.28,-24.73,-29.52,41.10
20936,-0.83,0.30,18.27,6.69,-2.20,1.28,-24.73,-29.52,41.10
20947,-5.65,-1.85,21.50,3.50,-0.55,2.70,-24.73,-29.52,41.10
21050,12.55,6.88,-0.95,-3.35,11.76,9.69,-13.90,-6.30,49.24
21060,12.55,6.88,-0.95,-3.35,11.76,9.69,-13.90,-6.30,49.24
21071,9.53,11.54,-10.29,-4.00,9.23,9.94,-13.90,-6.30,49.24
21082,9.53,11.54,-10.29,-4.00,9.23,9.94,-13.90,-6.30,49.24
21093,-0.43,16.35,-11.97,-2.35,4.83,8.63,-13.90,-6.30,49.24
21104,-7.50,15.52,-0.37,0.24,1.34,5.90,-13.90,-6.30,49.24
21115,-7.50,15.52,-0.37,0.24,1.34,5.90,-13.90,-6.30,49.24
21126,-8.33,9.61,11.67,1.45,0.61,3.66,-58.62,6.79,34.25
21137,-8.33,9.61,11.67,1.45,0.61,3.66,-58.62,6.79,34.25
21148,-4.10,3.23,11.07,2.20,2.27,3.04,-58.62,6.79,34.25
21159,-4.10,3.23,11.07,2.20,2.27,3.04,-58.62,6.79,34.25
21170,-1.19,0.07,3.21,3.97,4.15,3.89,-58.62,6.79,34.25
21181,-1.19,0.07,3.21,3.97,4.15,3.89,-58.62,6.79,34.25
21192,-0.65,5.34,-4.49,2.82,3.78,4.48,-58.62,6.79,34.25
21203,-3.68,14.56,3.07,0.91,1.08,4.23,-58.62,6.79,34.25
21214,-3.68,14.56,3.07,0.91,1.08,4.23,-58.62,6.79,34.25
21225,-4.03,15.76,10.97,0.73,0.37,2.85,-58.62,6.79,34.25
21236,-4.03,15.76,10.97,0.73,0.37,2.85,-58.62,6.79,34.25
21340,0.37,10.52,1.06,1.20,-0.23,3.05,-54.62,20.63,23.01
21350,-2.09,24.28,-2.35,1.63,0.17,2.06,-54.62,20.63,23.01
21361,-2.09,24.28,-2.35,1.63,0.17,2.06,-54.62,20.63,23.01
21372,0.20,11.27,2.00,2.17,0.23,-0.35,-41.67,27.03,7.86
21383,0.65,9.97,0.91,-0.76,-0.21,-0.87,-41.67,27.03,7.86
21394,0.65,9.97,0.91,-0.76,-0.21,-0.87,-41.67,27.03,7.86
21405,-0.27,10.74,0.98,-1.31,-0.36,-0.92,-41.67,27.03,7.86
21416,-0.27,10.74,0.98,-1.31,-0.36,-0.92,-41.67,27.03,7.86
21427,0.43,10.58,-0.16,-0.16,-0.19,-0.45,-41.67,27.03,7.86
21438,0.43,10.58,-0.16,-0.16,-0.19,-0.45,-41.67,27.03,7.86
21449,0.27,10.38,2.43,1.20,-0.12,-0.04,-41.67,27.03,7.86
21460,0.27,10.38,2.43,1.20,-0.12,-0.04,-41.67,27.03,7.86
21471,-0.41,10.51,0.96,3.34,0.20,0.27,-41.67,27.03,7.86
21613,-0.06,7.69,-6.45,5.65,0.85,0.12,-45.44,28.52,2.65
21623,-0.06,7.69,-6.45,5.65,0.85,0.12,-45.44,28.52,2.65
21634,0.56,5.51,-7.26,5.13,0.97,-0.10,-46.38,21.38,-20.81
21645,1.51,5.34,-8.84,2.26,0.06,-0.04,-46.38,21.38,-20.81
21656,1.51,5.34,-8.84,2.26,0.06,-0.04,-46.38,21.38,-20.81
21667,1.11,4.89,-9.22,1.18,-0.56,0.29,-46.38,21.38,-20.81
21678,1.11,4.89,-9.22,1.18,-0.56,0.29,-46.38,21.38,-20.81
21689,1.24,3.56,-10.51,1.82,-0.46,0.44,-46.38,21.38,-20.81
21700,1.24,3.56,-10.51,1.82,-0.46,0.44,-46.38,21.38,-20.81
21711,0.26,4.71,-8.40,2.34,-0.71,0.94,-46.38,21.38,-20.81
21722,0.26,4.71,-8.40,2.34,-0.71,0.94,-46.38,21.38,-20.81
21733,0.21,7.25,-7.71,0.16,-1.64,1.47,-46.38,21.38,-20.81
21744,-1.20,8.68,-6.21,-0.46,-1.78,1.29,-45.21,17.06,-24.88
21843,-0.26,7.39,-8.54,0.20,-0.56,-1.06,-45.21,17.06,-24.88
21854,-1.27,2.51,-3.59,2.59,0.09,-0.11,-45.21,17.06,-24.88
21865,-0.72,11.11,-18.29,-2.17,0.75,0.37,-49.21,16.61,-22.76
21876,-0.72,11.11,-18.29,-2.17,0.75,0.37,-49.21,16.61,-22.76
21887,1.25,6.12,-9.07,-0.46,0.28,0.65,-49.21,16.61,-22.76
21898,1.25,6.12,-9.07,-0.46,0.28,0.65,-49.21,16.61,-22.76
21909,-0.42,5.33,-8.16,-0.23,-0.54,0.24,-49.21,16.61,-22.76
21920,-0.42,5.33,-8.16,-0.23,-0.54,0.24,-49.21,16.61,-22.76
21931,-0.59,6.63,-7.92,0.04,-0.18,0.26,-49.21,16.61,-22.76
21942,-0.59,6.63,-7.92,0.04,-0.18,0.26,-49.21,16.61,-22.76
21953,-0.45,6.39,-8.06,0.02,-0.02,0.05,-49.21,16.61,-22.76
21964,-0.43,6.34,-8.09,-0.01,-0.01,0.01,-49.21,16.61,-22.76
21975,-0.43,6.34,-8.09,-0.01,-0.01,0.01,-49.21,16.61,-22.76
21986,-0.45,6.35,-8.08,0.01,-0.00,0.02,-49.21,16.61,-22.76
21997,-0.45,6.35,-8.08,0.01,-0.00,0.02,-49.21,16.61,-22.76
22008,-0.43,6.34,-8.09,-0.00,-0.01,0.01,-48.03,17.06,-23.25
22019,-0.43,6.34,-8.09,-0.00,-0.01,0.01,-48.03,17.06,-23.25
22121,-0.44,6.36,-8.09,-0.00,-0.01,0.01,-48.03,17.06,-23.25
22131,-0.44,6.36,-8.10,-0.00,-0.01,0.01,-47.32,17.21,-23.74
22142,-0.44,6.36,-8.10,-0.00,-0.01,0.01,-47.32,17.21,-23.74
22153,-0.45,6.35,-8.08,-0.00,-0.01,0.01,-47.32,17.21,-23.74
22164,-0.46,6.34,-8.09,-0.00,-0.01,0.01,-47.32,17.21,-23.74
22175,-0.46,6.34,-8.09,-0.00,-0.01,0.01,-47.32,17.21,-23.74
22186,-0.45,6.35,-8.13,-0.00,-0.01,0.01,-47.32,17.21,-23.74
22197,-0.45,6.35,-8.13,-0.00,-0.01,0.01,-47.32,17.21,-23.74
22208,-0.45,6.37,-8.08,-0.00,-0.01,0.01,-47.32,17.21,-23.74
22219,-0.45,6.37,-8.08,-0.00,-0.01,0.01,-47.32,17.21,-23.74
22230,-0.42,6.37,-8.06,-0.00,-0.01,0.01,-47.32,17.21,-23.74
22241,-0.42,6.37,-8.06,-0.00,-0.01,0.01,-47.32,17.21,-23.74
22355,-0.30,5.53,-8.41,0.01,0.44,-0.50,-47.80,17.80,-22.11
22365,0.31,7.49,-7.29,-0.11,0.38,-0.55,-47.80,17.80,-22.11
22376,0.31,7.49,-7.29,-0.11,0.38,-0.55,-47.80,17.80,-22.11
22387,-0.17,6.21,-8.29,0.06,0.34,-0.36,-48.50,15.87,-23.25
22403,-0.17,6.21,-8.29,0.06,0.34,-0.36,-48.50,15.87,-23.25
22409,-0.45,6.34,-8.04,-0.02,0.06,-0.08,-48.50,15.87,-23.25
22420,-0.45,6.34,-8.04,-0.02,0.06,-0.08,-48.50,15.87,-23.25
22431,-0.41,6.36,-8.10,0.01,0.01,0.01,-48.50,15.87,-23.25
22442,-0.41,6.36,-8.10,0.01,0.01,0.01,-48.50,15.87,-23.25
22453,-0.44,6.35,-8.07,-0.00,-0.01,0.01,-48.50,15.87,-23.25
22464,-0.44,6.34,-8.08,0.00,-0.01,0.01,-48.50,15.87,-23.25
22475,-0.44,6.34,-8.08,0.00,-0.01,0.01,-48.50,15.87,-23.25
22486,-0.44,6.34,-8.08,-0.00,-0.01,0.01,-48.50,15.87,-23.25
22618,-0.42,6.35,-8.10,0.01,-0.01,0.01,-47.56,17.06,-22.93
22629,-0.43,6.35,-8.14,0.01,-0.01,0.01,-48.03,16.17,-23.25
22640,-0.43,6.35,-8.14,0.01,-0.01,0.01,-48.03,16.17,-23.25
22651,-0.44,6.36,-8.10,-0.00,-0.02,0.00,-48.03,16.17,-23.25
22662,-0.44,6.36,-8.10,-0.00,-0.02,0.00,-48.03,16.17,-23.25
22673,-0.44,6.34,-8.13,-0.00,-0.02,0.00,-48.03,16.17,-23.25
22684,-0.44,6.34,-8.13,-0.00,-0.02,0.00,-48.03,16.17,-23.25
22695,-0.44,6.33,-8.12,-0.03,-0.03,-0.01,-48.03,16.17,-23.25
22706,-0.47,6.37,-8.05,-0.04,-0.03,-0.01,-48.03,16.17,-23.25
22717,-0.47,6.37,-8.05,-0.04,-0.03,-0.01,-48.03,16.17,-23.25
22728,-0.51,6.30,-8.07,0.09,0.03,0.04,-48.03,16.17,-23.25
22739,-0.51,6.30,-8.07,0.09,0.03,0.04,-48.03,16.17,-23.25
22750,-0.47,6.32,-8.09,0.05,0.01,0.03,-49.91,16.46,-21.95
22761,-0.47,6.32,-8.09,0.05,0.01,0.03,-49.91,16.46,-21.95
22772,-0.44,6.33,-8.12,0.01,-0.01,0.01,-49.91,16.46,-21.95
22783,-0.44,6.33,-8.12,0.01,-0.01,0.01,-49.91,16.46,-21.95
22794,-0.41,6.33,-8.13,0.00,-0.02,0.00,-49.91,16.46,-21.95
22897,0.51,5.82,-8.46,-0.02,0.31,-0.38,-48.03,16.46,-23.25
22907,0.01,5.72,-8.66,-0.03,0.19,-0.27,-48.03,16.46,-23.25
22918,0.01,5.72,-8.66,-0.03,0.19,-0.27,-48.03,16.46,-23.25
22929,-0.48,6.34,-8.11,-0.02,-0.00,-0.04,-48.03,16.46,-23.25
22940,-0.48,6.34,-8.11,-0.02,-0.00,-0.04,-48.03,16.46,-23.25
22951,-0.45,6.30,-8.12,0.03,-0.01,0.02,-48.03,16.46,-23.25
22962,-0.45,6.30,-8.12,0.03,-0.01,0.02,-48.03,16.46,-23.25
22973,-0.39,6.34,-8.08,0.03,-0.15,0.20,-48.03,16.46,-23.25
22984,-0.39,6.34,-8.08,0.03,-0.15,0.20,-48.03,16.46,-23.25
22995,-0.10,6.20,-8.16,0.01,-0.26,0.28,-48.03,16.46,-23.25
23006,-0.05,6.09,-8.35,0.02,-0.40,0.48,-48.03,16.46,-23.90
23017,-0.05,6.09,-8.35,0.02,-0.40,0.48,-48.03,16.46,-23.90
23028,-1.04,6.47,-8.00,0.03,-0.61,0.75,-48.03,16.46,-23.90
23131,-0.47,6.36,-8.07,-0.00,-0.00,0.01,-49.68,18.10,-21.78
23141,-0.47,6.36,-8.07,-0.00,-0.00,0.01,-49.68,18.10,-21.78
23152,-0.61,6.32,-8.12,0.01,-0.02,-0.00,-49.68,18.10,-21.78
23163,-0.61,6.32,-8.12,0.01,-0.02,-0.00,-49.68,18.10,-21.78
23174,-0.48,6.32,-8.11,0.03,-0.01,-0.02,-49.68,18.10,-21.78
23185,-0.48,6.37,-8.06,0.01,0.02,-0.03,-49.68,18.10,-21.78
23196,-0.48,6.37,-8.06,0.01,0.02,-0.03,-49.68,18.10,-21.78
23207,-0.44,6.30,-8.11,0.01,0.03,-0.04,-49.68,18.10,-21.78
23218,-0.44,6.30,-8.11,0.01,0.03,-0.04,-49.68,18.10,-21.78
23229,-0.49,6.33,-8.10,-0.00,0.01,0.00,-49.68,18.10,-21.78
23240,-0.49,6.33,-8.10,-0.00,0.01,0.00,-49.68,18.10,-21.78
23251,-0.45,6.33,-8.12,-0.01,0.03,0.01,-49.68,18.10,-21.78
23262,-0.45,6.33,-8.12,-0.01,0.03,0.01,-49.68,18.10,-21.78
23273,-0.46,6.33,-8.14,-0.03,0.03,0.01,-49.44,16.76,-21.62
23284,-0.46,6.33,-8.14,-0.03,0.03,0.01,-49.44,16.76,-21.62
23295,-0.46,6.34,-8.09,-0.02,0.02,-0.00,-49.44,16.76,-21.62
23306,-0.93,7.05,-7.52,0.04,0.07,-0.11,-49.44,16.76,-21.62
23406,-0.47,6.34,-8.10,-0.02,0.00,0.02,-47.32,17.21,-22.11
23416,-0.47,6.34,-8.10,-0.02,0.00,0.02,-47.32,17.21,-22.11
23427,-0.48,6.34,-8.13,-0.00,-0.01,0.01,-47.32,17.21,-22.11
23438,-0.48,6.34,-8.13,-0.00,-0.01,0.01,-47.32,17.21,-22.11
23449,-0.52,6.30,-8.10,0.01,0.02,0.01,-47.32,17.21,-22.11
23460,-0.52,6.30,-8.10,0.01,0.02,0.01,-47.32,17.21,-22.11
23471,-0.43,6.32,-8.10,0.01,0.09,0.01,-47.32,17.21,-22.11
23482,-0.43,6.32,-8.10,0.01,0.09,0.01,-47.32,17.21,-22.11
23493,-0.45,6.28,-8.08,0.03,0.07,0.02,-47.32,17.21,-22.11
23504,-0.45,6.28,-8.08,0.03,0.07,0.02,-47.32,17.21,-22.11
23515,-0.45,6.31,-8.15,0.02,0.02,0.02,-48.74,17.21,-22.76
23526,-0.09,6.08,-8.35,0.02,-0.00,0.05,-48.74,17.21,-22.76
23537,-0.09,6.08,-8.35,0.02,-0.00,0.05,-48.74,17.21,-22.76
23641,-0.55,6.21,-8.18,0.06,0.03,-0.09,-48.74,17.21,-22.76
23652,-0.50,6.31,-8.14,0.05,0.05,-0.11,-49.68,16.91,-22.44
23663,-0.50,6.31,-8.14,0.05,0.05,-0.11,-49.68,16.91,-22.44
23674,-0.45,6.28,-8.18,0.08,0.06,-0.18,-49.68,16.91,-22.44
23685,-0.45,6.28,-8.18,0.08,0.06,-0.18,-49.68,16.91,-22.44
23696,-0.46,6.25,-8.15,0.12,0.09,-0.25,-49.68,16.91,-22.44
23707,-0.44,6.16,-8.20,0.11,0.15,-0.31,-49.68,16.91,-22.44
23718,-0.44,6.16,-8.20,0.11,0.15,-0.31,-49.68,16.91,-22.44
23729,-0.53,6.19,-8.22,0.07,0.18,-0.28,-49.68,16.91,-22.44
23740,-0.53,6.19,-8.22,0.07,0.18,-0.28,-49.68,16.91,-22.44
23751,-0.52,6.24,-8.18,0.14,0.15,-0.36,-49.68,16.91,-22.44
23762,-0.52,6.24,-8.18,0.14,0.15,-0.36,-49.68,16.91,-22.44
23773,-0.41,6.04,-8.33,0.16,0.15,-0.44,-48.74,15.72,-22.44
23784,-0.41,6.04,-8.33,0.16,0.15,-0.44,-48.74,15.72,-22.44
23795,-0.41,6.02,-8.35,0.06,0.13,-0.27,-48.74,15.72,-22.44
23806,-0.45,6.07,-8.29,0.01,0.05,-0.11,-48.74,15.72,-22.44
23817,-0.45,6.07,-8.29,0.01,0.05,-0.11,-48.74,15.72,-22.44
23920,-0.37,6.30,-8.16,-0.18,0.02,0.11,-49.44,15.27,-22.93
23931,-0.49,6.23,-8.23,-0.13,-0.13,0.15,-49.44,15.27,-22.93
