time,ax,ay,az,gx,gy,gz,mx,my,mz,pressure
1.00,-0.22,6.49,-7.78,0.00,-1.21,0.95,-10.02,48.18,0.49,-1.00
13.00,-0.21,6.51,-7.80,0.00,-1.21,0.95,-10.02,48.18,0.49,-1.00
25.00,-0.21,6.51,-7.80,0.00,-1.21,0.95,-10.02,48.18,0.49,-1.00
37.00,-0.22,6.54,-7.80,0.00,-1.21,0.95,-10.02,48.18,0.49,-1.00
99.00,-0.25,6.49,-7.81,0.00,-1.21,0.95,-11.42,49.98,-1.29,-1.00
111.00,-0.22,6.49,-7.83,0.00,-1.21,0.96,-11.42,49.98,-1.29,-1.00
123.00,-0.22,6.49,-7.83,0.00,-1.21,0.96,-11.42,49.98,-1.29,-1.00
135.00,-0.21,6.48,-7.80,0.00,-1.21,0.96,-11.42,49.98,-1.29,-1.00
149.00,-0.20,6.47,-7.80,0.00,-1.21,0.95,-11.42,49.98,-1.29,-1.00
161.00,-0.20,6.47,-7.80,0.00,-1.21,0.95,-11.42,49.98,-1.29,-1.00
173.00,-0.18,6.50,-7.77,0.00,-1.21,0.95,-11.42,49.98,-1.29,-1.00
187.00,-0.22,6.50,-7.76,0.00,-1.21,0.95,-11.14,49.98,-2.19,-1.00
199.00,-0.22,6.50,-7.76,0.00,-1.21,0.95,-11.14,49.98,-2.19,-1.00
211.00,-0.25,6.51,-7.76,0.00,-1.22,0.95,-11.14,49.98,-2.19,-1.00
223.00,-0.25,6.51,-7.76,0.00,-1.22,0.95,-11.14,49.98,-2.19,-1.00
237.00,-0.28,6.50,-7.80,0.00,-1.21,0.95,-11.14,49.98,-2.19,-1.00
249.00,-0.28,6.51,-7.81,0.00,-1.21,0.95,-11.14,49.98,-2.19,-1.00
261.00,-0.28,6.51,-7.81,0.00,-1.21,0.95,-11.14,49.98,-2.19,-1.00
273.00,-0.28,6.50,-7.80,0.00,-1.21,0.96,-11.14,49.98,-2.19,-1.00
287.00,-0.25,6.51,-7.80,0.00,-1.21,0.96,-11.14,49.98,-2.19,-1.00
299.00,-0.25,6.51,-7.80,0.00,-1.21,0.96,-11.14,49.98,-2.19,-1.00
311.00,-0.22,6.49,-7.80,0.00,-1.21,0.96,-11.84,49.44,-1.52,-1.00
323.00,-0.22,6.49,-7.80,0.00,-1.21,0.96,-11.84,49.44,-1.52,-1.00
337.00,-0.19,6.49,-7.78,0.00,-1.21,0.96,-11.84,49.44,-1.52,-1.00
349.00,-0.18,6.48,-7.73,0.00,-1.21,0.96,-11.84,49.44,-1.52,-1.00
361.00,-0.18,6.48,-7.73,0.00,-1.21,0.96,-11.84,49.44,-1.52,-1.00
373.00,-0.17,6.49,-7.71,0.00,-1.21,0.95,-11.84,49.44,-1.52,-1.00
387.00,-0.19,6.53,-7.80,0.00,-1.22,0.95,-11.84,49.44,-1.52,-1.00
399.00,-0.19,6.53,-7.80,0.00,-1.22,0.95,-11.84,49.44,-1.52,-1.00
411.00,-0.25,6.51,-7.80,0.00,-1.22,0.95,-11.84,49.44,-1.52,-1.00
423.00,-0.25,6.51,-7.80,0.00,-1.22,0.95,-11.84,49.44,-1.52,-1.00
437.00,-0.32,6.49,-7.87,0.00,-1.21,0.95,-9.74,47.82,0.04,-1.00
449.00,-0.32,6.50,-7.85,0.00,-1.21,0.96,-9.74,47.82,0.04,-1.00
461.00,-0.32,6.50,-7.85,0.00,-1.21,0.96,-9.74,47.82,0.04,-1.00
473.00,-0.28,6.50,-7.78,0.00,-1.21,0.96,-9.74,47.82,0.04,-1.00
487.00,-0.23,6.50,-7.79,0.00,-1.21,0.96,-9.74,47.82,0.04,-1.00
499.00,-0.23,6.50,-7.79,0.00,-1.21,0.96,-9.74,47.82,0.04,-1.00
511.00,-0.21,6.49,-7.81,0.00,-1.21,0.96,-9.74,47.82,0.04,-1.00
525.00,-0.21,6.49,-7.81,0.00,-1.21,0.96,-9.74,47.82,0.04,-1.00
538.00,-0.18,6.47,-7.75,0.00,-1.21,0.96,-9.74,47.82,0.04,-1.00
550.00,-0.13,6.48,-7.76,0.00,-1.21,0.96,-10.86,48.54,-0.40,-1.00
562.00,-0.13,6.48,-7.76,0.00,-1.21,0.96,-10.86,48.54,-0.40,-1.00
574.00,-0.15,6.50,-7.74,0.00,-1.21,0.95,-10.86,48.54,-0.40,-1.00
588.00,-0.20,6.53,-7.79,0.00,-1.22,0.95,-10.86,48.54,-0.40,-1.00
600.00,-0.20,6.53,-7.79,0.00,-1.22,0.95,-10.86,48.54,-0.40,-1.00
612.00,-0.30,6.50,-7.78,0.00,-1.22,0.95,-10.86,48.54,-0.40,-1.00
624.00,-0.30,6.50,-7.78,0.00,-1.22,0.95,-10.86,48.54,-0.40,-1.00
638.00,-0.32,6.50,-7.82,0.00,-1.21,0.95,-10.86,48.54,-0.40,-1.00
650.00,-0.31,6.50,-7.79,0.00,-1.21,0.96,-10.86,48.54,-0.40,-1.00
662.00,-0.31,6.50,-7.79,0.00,-1.21,0.96,-10.86,48.54,-0.40,-1.00
677.00,-0.26,6.50,-7.83,0.00,-1.21,0.96,-10.86,48.54,-0.40,-1.00
689.00,-0.21,6.47,-7.82,0.00,-1.21,0.96,-10.30,48.54,-0.85,-1.00
701.00,-0.21,6.47,-7.82,0.00,-1.21,0.96,-10.30,48.54,-0.85,-1.00
713.00,-0.15,6.46,-7.78,0.00,-1.21,0.96,-10.30,48.54,-0.85,-1.00
727.00,-0.14,6.49,-7.77,0.00,-1.21,0.96,-10.30,48.54,-0.85,-1.00
739.00,-0.14,6.49,-7.77,0.00,-1.21,0.96,-10.30,48.54,-0.85,-1.00
751.00,-0.17,6.48,-7.78,0.00,-1.21,0.95,-10.30,48.54,-0.85,-1.00
763.00,-0.17,6.48,-7.78,0.00,-1.21,0.95,-10.30,48.54,-0.85,-1.00
777.00,-0.24,6.51,-7.78,0.00,-1.21,0.95,-10.30,48.54,-0.85,-1.00
789.00,-0.27,6.52,-7.77,0.00,-1.21,0.95,-10.30,48.54,-0.85,-1.00
801.00,-0.27,6.52,-7.77,0.00,-1.21,0.95,-10.30,48.54,-0.85,-1.00
813.00,-0.31,6.52,-7.82,0.00,-1.21,0.95,-10.16,48.72,0.27,-1.00
827.00,-0.29,6.52,-7.82,0.00,-1.21,0.95,-10.16,48.72,0.27,-1.00
839.00,-0.29,6.52,-7.82,0.00,-1.21,0.95,-10.16,48.72,0.27,-1.00
851.00,-0.25,6.52,-7.79,0.00,-1.21,0.96,-10.16,48.72,0.27,-1.00
863.00,-0.25,6.52,-7.79,0.00,-1.21,0.96,-10.16,48.72,0.27,-1.00
877.00,-0.18,6.53,-7.77,0.00,-1.21,0.96,-10.16,48.72,0.27,-1.00
889.00,-0.16,6.49,-7.73,0.00,-1.21,0.96,-10.16,48.72,0.27,-1.00
901.00,-0.16,6.49,-7.73,0.00,-1.21,0.96,-10.16,48.72,0.27,-1.00
913.00,-0.16,6.49,-7.78,0.00,-1.21,0.96,-10.16,48.72,0.27,-1.00
927.00,-0.16,6.49,-7.78,0.00,-1.21,0.96,-10.16,48.72,0.27,-1.00
939.00,-0.20,6.46,-7.80,0.00,-1.21,0.95,-10.30,48.54,-0.85,-1.00
951.00,-0.23,6.47,-7.80,0.00,-1.21,0.95,-10.30,48.54,-0.85,-1.00
963.00,-0.23,6.47,-7.80,0.00,-1.21,0.95,-10.30,48.54,-0.85,-1.00
977.00,-0.26,6.47,-7.81,0.00,-1.21,0.95,-10.30,48.54,-0.85,-1.00
989.00,-0.27,6.50,-7.84,0.00,-1.22,0.95,-10.30,48.54,-0.85,-1.00
1001.00,-0.27,6.50,-7.84,0.00,-1.22,0.95,-10.30,48.54,-0.85,-1.00
1013.00,-0.28,6.51,-7.80,0.00,-1.21,0.96,-10.30,48.54,-0.85,-1.00
1027.00,-0.28,6.51,-7.80,0.00,-1.21,0.96,-10.30,48.54,-0.85,-1.00
1039.00,-0.27,6.51,-7.79,0.00,-1.21,0.96,-10.30,48.54,-0.85,-1.00
1051.00,-0.22,6.52,-7.77,0.00,-1.21,0.96,-9.74,48.54,0.04,-1.00
1063.00,-0.22,6.52,-7.77,0.00,-1.21,0.96,-9.74,48.54,0.04,-1.00
1077.00,-0.20,6.51,-7.77,0.00,-1.21,0.96,-9.74,48.54,0.04,-1.00
1089.00,-0.15,6.52,-7.75,0.00,-1.21,0.96,-9.74,48.54,0.04,-1.00
1101.00,-0.15,6.52,-7.75,0.00,-1.21,0.96,-9.74,48.54,0.04,-1.00
1113.00,-0.17,6.51,-7.75,0.00,-1.21,0.95,-9.74,48.54,0.04,-1.00
1127.00,-0.17,6.51,-7.75,0.00,-1.21,0.95,-9.74,48.54,0.04,-1.00
1215.00,-0.28,6.48,-7.83,0.00,-1.21,0.96,-10.44,47.28,-1.52,-1.00
1305.00,-0.16,6.51,-7.71,0.00,-1.21,0.96,-10.44,47.28,-1.52,-1.00
1319.00,-0.21,6.51,-7.76,0.00,-1.21,0.95,-9.88,48.36,-1.07,-1.00
1331.00,-0.27,6.51,-7.78,0.00,-1.21,0.95,-9.88,48.36,-1.07,-1.00
1343.00,-0.27,6.51,-7.78,0.00,-1.21,0.95,-9.88,48.36,-1.07,-1.00
1355.00,-0.29,6.48,-7.82,0.00,-1.21,0.95,-9.88,48.36,-1.07,-1.00
1369.00,-0.27,6.46,-7.83,0.00,-1.21,0.95,-9.88,48.36,-1.07,-1.00
1381.00,-0.27,6.46,-7.83,0.00,-1.21,0.95,-9.88,48.36,-1.07,-1.00
1393.00,-0.24,6.47,-7.83,0.00,-1.21,0.95,-9.88,48.36,-1.07,-1.00
1405.00,-0.24,6.47,-7.83,0.00,-1.21,0.95,-9.88,48.36,-1.07,-1.00
1420.00,-0.19,6.47,-7.82,0.00,-1.21,0.96,-9.88,48.36,-1.07,-1.00
1431.00,-0.18,6.47,-7.78,0.00,-1.21,0.96,-10.30,50.70,-1.29,-1.00
1443.00,-0.18,6.47,-7.78,0.00,-1.21,0.96,-10.30,50.70,-1.29,-1.00
1455.00,-0.19,6.52,-7.77,0.00,-1.21,0.95,-10.30,50.70,-1.29,-1.00
1469.00,-0.20,6.51,-7.75,0.00,-1.21,0.95,-10.30,50.70,-1.29,-1.00
1481.00,-0.20,6.51,-7.75,0.00,-1.21,0.95,-10.30,50.70,-1.29,-1.00
1493.00,-0.23,6.53,-7.78,0.00,-1.21,0.95,-10.30,50.70,-1.29,-1.00
1505.00,-0.23,6.53,-7.78,0.00,-1.21,0.95,-10.30,50.70,-1.29,-1.00
1519.00,-0.26,6.53,-7.77,0.00,-1.21,0.95,-10.30,50.70,-1.29,-1.00
1531.00,-0.25,6.51,-7.78,0.00,-1.21,0.95,-10.30,50.70,-1.29,-1.00
1543.00,-0.25,6.51,-7.78,0.00,-1.21,0.95,-10.30,50.70,-1.29,-1.00
1555.00,-0.25,6.49,-7.80,0.00,-1.21,0.96,-10.72,49.08,-1.52,-1.00
1570.00,-0.25,6.48,-7.84,0.00,-1.21,0.96,-10.72,49.08,-1.52,-1.00
1581.00,-0.25,6.48,-7.84,0.00,-1.21,0.96,-10.72,49.08,-1.52,-1.00
1594.00,-0.22,6.47,-7.81,0.00,-1.21,0.96,-10.72,49.08,-1.52,-1.00
1608.00,-0.18,6.45,-7.76,0.00,-1.21,0.96,-10.72,49.08,-1.52,-1.00
1620.00,-0.18,6.45,-7.76,0.00,-1.21,0.96,-10.72,49.08,-1.52,-1.00
1632.00,-0.15,6.51,-7.75,0.00,-1.21,0.95,-10.72,49.08,-1.52,-1.00
1644.00,-0.15,6.51,-7.75,0.00,-1.21,0.95,-10.72,49.08,-1.52,-1.00
1658.00,-0.18,6.55,-7.78,0.00,-1.22,0.95,-10.72,49.08,-1.52,-1.00
1670.00,-0.24,6.50,-7.78,0.00,-1.22,0.95,-10.72,49.08,-1.52,-1.00
1682.00,-0.24,6.50,-7.78,0.00,-1.22,0.95,-10.72,49.08,-1.52,-1.00
1694.00,-0.29,6.49,-7.82,0.00,-1.21,0.95,-10.16,48.00,-0.18,-1.00
1708.00,-0.27,6.50,-7.82,0.00,-1.21,0.95,-10.16,48.00,-0.18,-1.00
1720.00,-0.27,6.50,-7.82,0.00,-1.21,0.95,-10.16,48.00,-0.18,-1.00
1732.00,-0.26,6.50,-7.80,0.00,-1.21,0.95,-10.16,48.00,-0.18,-1.00
1744.00,-0.26,6.50,-7.80,0.00,-1.21,0.95,-10.16,48.00,-0.18,-1.00
1759.00,-0.26,6.49,-7.81,0.00,-1.21,0.96,-10.16,48.00,-0.18,-1.00
1770.00,-0.23,6.47,-7.77,0.00,-1.21,0.96,-10.16,48.00,-0.18,-1.00
1782.00,-0.23,6.47,-7.77,0.00,-1.21,0.96,-10.16,48.00,-0.18,-1.00
1794.00,-0.17,6.48,-7.79,0.00,-1.21,0.96,-10.16,48.00,-0.18,-1.00
1808.00,-0.17,6.48,-7.79,0.00,-1.21,0.96,-10.16,48.00,-0.18,-1.00
1820.00,-0.15,6.51,-7.79,0.00,-1.21,0.96,-10.16,49.80,-1.52,-1.00
1832.00,-0.17,6.51,-7.76,0.00,-1.21,0.96,-10.16,49.80,-1.52,-1.00
1844.00,-0.17,6.51,-7.76,0.00,-1.21,0.96,-10.16,49.80,-1.52,-1.00
1858.00,-0.23,6.48,-7.77,0.00,-1.22,0.95,-10.16,49.80,-1.52,-1.00
1870.00,-0.34,6.39,-7.86,0.01,-1.23,0.96,-10.16,49.80,-1.52,-1.00
1882.00,-0.34,6.39,-7.86,0.01,-1.23,0.96,-10.16,49.80,-1.52,-1.00
1896.00,-0.25,6.44,-7.84,0.00,-1.41,1.22,-10.16,49.80,-1.52,-1.00
1908.00,-0.25,6.44,-7.84,0.00,-1.41,1.22,-10.16,49.80,-1.52,-1.00
1920.00,-0.26,6.71,-7.62,-0.03,-1.72,1.55,-10.16,49.80,-1.52,-1.00
1932.00,-0.50,5.63,-8.57,-0.01,-1.58,1.38,-10.44,48.72,0.27,-1.00
1946.00,-0.50,5.63,-8.57,-0.01,-1.58,1.38,-10.44,48.72,0.27,-1.00
1958.00,1.10,5.04,-9.52,0.26,-1.41,1.58,-10.44,48.72,0.27,-1.00
1970.00,0.96,4.86,-9.30,0.40,-1.90,2.39,-10.44,48.72,0.27,-1.00
1982.00,0.96,4.86,-9.30,0.40,-1.90,2.39,-10.44,48.72,0.27,-1.00
1996.00,-0.25,7.37,-7.20,0.26,-2.24,2.63,-10.44,48.72,0.27,-1.00
2086.00,0.27,3.92,-8.11,4.42,-0.37,0.96,-7.37,47.64,-9.55,-1.00
2174.00,1.17,2.07,-12.05,3.08,-2.43,1.28,-7.37,47.64,-9.55,-1.00
2263.00,-0.90,2.05,-11.73,5.45,-2.90,0.49,-5.55,29.85,-24.95,-1.00
2277.00,-0.87,-0.15,-9.99,4.80,-3.16,-0.07,-5.55,29.85,-24.95,-1.00
2289.00,-1.99,1.29,-10.27,3.01,-3.87,-0.47,-5.55,29.85,-24.95,-1.00
2301.00,-1.99,1.29,-10.27,3.01,-3.87,-0.47,-5.55,29.85,-24.95,-1.00
2313.00,-0.76,3.05,-6.79,2.72,-4.58,-1.12,-12.12,1.64,-21.16,-1.00
2327.00,-0.76,3.05,-6.79,2.72,-4.58,-1.12,-12.12,1.64,-21.16,-1.00
2339.00,-2.16,2.50,-4.68,3.11,-4.71,-2.20,-12.12,1.64,-21.16,-1.00
2351.00,-2.69,-0.23,-2.18,4.73,-4.34,-3.13,-12.12,1.64,-21.16,-1.00
2365.00,-2.69,-0.23,-2.18,4.73,-4.34,-3.13,-12.12,1.64,-21.16,-1.00
2377.00,-0.46,-1.47,-5.63,4.91,-3.84,-3.75,-12.12,1.64,-21.16,-1.00
2389.00,2.78,-3.78,-2.75,7.48,-3.72,-3.48,-12.12,1.64,-21.16,-1.00
2401.00,2.78,-3.78,-2.75,7.48,-3.72,-3.48,-12.12,1.64,-21.16,-1.00
2415.00,1.78,-4.40,-3.39,8.21,-3.94,-3.16,-12.12,1.64,-21.16,-1.00
2427.00,1.78,-4.40,-3.39,8.21,-3.94,-3.16,-12.12,1.64,-21.16,-1.00
2439.00,8.29,-14.80,-0.55,10.14,-4.54,-2.99,-9.74,-36.27,21.47,-1.00
2451.00,3.23,-18.58,6.28,11.28,-4.95,-1.01,-9.74,-36.27,21.47,-1.00
2465.00,3.23,-18.58,6.28,11.28,-4.95,-1.01,-9.74,-36.27,21.47,-1.00
2477.00,0.22,-14.15,8.62,8.04,-3.70,2.11,-9.74,-36.27,21.47,-1.00
2489.00,0.78,-10.02,7.05,2.77,-2.40,3.26,-9.74,-36.27,21.47,-1.00
2501.00,0.78,-10.02,7.05,2.77,-2.40,3.26,-9.74,-36.27,21.47,-1.00
2515.00,-0.79,-8.85,1.81,-2.08,-2.34,3.26,-9.74,-36.27,21.47,-1.00
2527.00,-0.79,-8.85,1.81,-2.08,-2.34,3.26,-9.74,-36.27,21.47,-1.00
2539.00,-2.04,-8.72,2.20,-3.46,-2.51,3.12,-9.74,-36.27,21.47,-1.00
2553.00,-1.96,-5.90,-0.45,-4.29,-2.52,2.44,-9.74,-36.27,21.47,-1.00
2565.00,-1.96,-5.90,-0.45,-4.29,-2.52,2.44,-9.74,-36.27,21.47,-1.00
2577.00,-3.17,-5.93,-0.12,-2.37,-1.80,1.70,-12.81,-31.96,40.67,-1.00
2589.00,-3.17,-5.93,-0.12,-2.37,-1.80,1.70,-12.81,-31.96,40.67,-1.00
2603.00,-3.14,-8.75,-1.44,-1.10,-1.36,1.04,-12.81,-31.96,40.67,-1.00
2615.00,-3.17,-11.73,-1.11,-0.73,-1.48,1.06,-12.81,-31.96,40.67,-1.00
2627.00,-3.17,-11.73,-1.11,-0.73,-1.48,1.06,-12.81,-31.96,40.67,-1.00
2639.00,-1.52,-11.48,-0.55,-1.32,-1.78,1.70,-12.81,-31.96,40.67,-1.00
2653.00,-1.99,-11.43,4.08,-2.62,-1.87,2.52,-12.81,-31.96,40.67,-1.00
2665.00,-1.99,-11.43,4.08,-2.62,-1.87,2.52,-12.81,-31.96,40.67,-1.00
2677.00,-1.88,-9.92,3.90,-7.34,-1.81,2.75,-12.81,-31.96,40.67,-1.00
2691.00,-2.89,-7.09,-0.08,-12.02,-1.88,2.99,-14.77,-29.45,24.15,-1.00
2703.00,-2.89,-7.09,-0.08,-12.02,-1.88,2.99,-14.77,-29.45,24.15,-1.00
2715.00,-3.20,-3.81,-5.46,-15.09,-2.34,3.18,-14.77,-29.45,24.15,-1.00
2727.00,-3.20,-3.81,-5.46,-15.09,-2.34,3.18,-14.77,-29.45,24.15,-1.00
2741.00,-3.97,-1.09,-8.14,-15.00,-3.06,3.33,-14.77,-29.45,24.15,-1.00
2753.00,-4.38,2.15,-8.16,-13.43,-3.50,3.29,-14.77,-29.45,24.15,-1.00
2765.00,-4.38,2.15,-8.16,-13.43,-3.50,3.29,-14.77,-29.45,24.15,-1.00
2777.00,-3.47,4.40,-6.58,-11.56,-3.67,2.86,-14.77,-29.45,24.15,-1.00
2791.00,-3.08,5.73,-5.75,-8.72,-3.22,2.06,-14.77,-29.45,24.15,-1.00
2803.00,-3.08,5.73,-5.75,-8.72,-3.22,2.06,-14.77,-29.45,24.15,-1.00
2815.00,-4.85,5.20,-4.56,-5.78,-2.37,1.46,-26.22,14.76,-3.53,-1.00
2829.00,-4.85,5.20,-4.56,-5.78,-2.37,1.46,-26.22,14.76,-3.53,-1.00
2841.00,-5.57,6.07,-4.65,-4.64,-1.61,0.90,-26.22,14.76,-3.53,-1.00
2853.00,-5.38,7.55,-6.12,-4.24,-1.20,0.37,-26.22,14.76,-3.53,-1.00
2865.00,-5.38,7.55,-6.12,-4.24,-1.20,0.37,-26.22,14.76,-3.53,-1.00
2879.00,-4.86,8.08,-6.76,-3.56,-0.82,-0.23,-26.22,14.76,-3.53,-1.00
2891.00,-4.59,6.69,-6.10,-2.39,-0.42,-0.80,-26.22,14.76,-3.53,-1.00
2903.00,-4.59,6.69,-6.10,-2.39,-0.42,-0.80,-26.22,14.76,-3.53,-1.00
2915.00,-5.03,5.03,-6.07,-1.92,-0.00,-1.05,-26.22,14.76,-3.53,-1.00
2930.00,-5.03,5.03,-6.07,-1.92,-0.00,-1.05,-26.22,14.76,-3.53,-1.00
2941.00,-6.17,3.87,-6.86,-2.46,0.15,-1.06,-25.80,16.02,-6.43,-1.00
2953.00,-5.15,3.35,-11.90,-3.05,0.07,-0.85,-25.80,16.02,-6.43,-1.00
2965.00,-5.15,3.35,-11.90,-3.05,0.07,-0.85,-25.80,16.02,-6.43,-1.00
2979.00,-6.28,1.81,-11.55,-0.43,-0.14,0.13,-25.80,16.02,-6.43,-1.00
2991.00,-4.89,3.54,-10.46,-0.55,-1.11,0.96,-25.80,16.02,-6.43,-1.00
3003.00,-4.89,3.54,-10.46,-0.55,-1.11,0.96,-25.80,16.02,-6.43,-1.00
3017.00,-3.97,6.53,-8.27,-0.34,-2.12,1.41,-25.80,16.02,-6.43,-1.00
3029.00,-3.97,6.53,-8.27,-0.34,-2.12,1.41,-25.80,16.02,-6.43,-1.00
3041.00,-4.31,7.96,-6.68,0.43,-2.39,1.28,-25.80,16.02,-6.43,-1.00
3053.00,-5.36,6.73,-6.22,1.90,-2.28,0.98,-25.80,16.02,-6.43,-1.00
3067.00,-5.36,6.73,-6.22,1.90,-2.28,0.98,-25.80,16.02,-6.43,-1.00
3079.00,-5.25,5.27,-3.79,3.73,-1.85,0.75,-26.50,15.48,-2.19,-1.00
3091.00,-7.20,6.12,-3.45,4.28,-1.25,0.56,-26.50,15.48,-2.19,-1.00
3103.00,-7.20,6.12,-3.45,4.28,-1.25,0.56,-26.50,15.48,-2.19,-1.00
3117.00,-10.18,5.10,-4.29,3.54,-0.54,0.04,-26.50,15.48,-2.19,-1.00
3129.00,-10.18,5.10,-4.29,3.54,-0.54,0.04,-26.50,15.48,-2.19,-1.00
3141.00,-8.29,2.89,-6.20,2.95,0.08,-0.40,-26.50,15.48,-2.19,-1.00
3153.00,-6.40,0.97,-7.61,2.27,0.34,-0.59,-26.50,15.48,-2.19,-1.00
3167.00,-6.40,0.97,-7.61,2.27,0.34,-0.59,-26.50,15.48,-2.19,-1.00
3179.00,-5.55,0.74,-9.47,1.59,0.32,-0.45,-26.50,15.48,-2.19,-1.00
3191.00,-5.13,1.24,-9.90,1.63,0.14,-0.08,-22.31,-2.49,-10.67,-1.00
3206.00,-5.13,1.24,-9.90,1.63,0.14,-0.08,-22.31,-2.49,-10.67,-1.00
3217.00,-5.14,2.15,-11.36,1.65,-0.03,0.08,-22.31,-2.49,-10.67,-1.00
3229.00,-5.14,2.15,-11.36,1.65,-0.03,0.08,-22.31,-2.49,-10.67,-1.00
3241.00,-6.46,-1.56,-8.29,2.11,-0.41,0.19,-22.31,-2.49,-10.67,-1.00
3255.00,-1.61,0.58,-11.08,-0.23,-1.10,0.18,-22.31,-2.49,-10.67,-1.00
3267.00,-1.61,0.58,-11.08,-0.23,-1.10,0.18,-22.31,-2.49,-10.67,-1.00
3279.00,-6.08,0.80,-8.76,-0.71,-1.43,0.46,-22.31,-2.49,-10.67,-1.00
3291.00,-5.42,1.67,-10.54,-1.18,-1.29,0.62,-22.31,-2.49,-10.67,-1.00
3305.00,-5.42,1.67,-10.54,-1.18,-1.29,0.62,-22.31,-2.49,-10.67,-1.00
3317.00,-4.89,1.11,-9.32,-1.02,-1.66,0.77,-19.52,-8.24,-11.56,-1.00
3329.00,-4.89,1.11,-9.32,-1.02,-1.66,0.77,-19.52,-8.24,-11.56,-1.00
3343.00,-4.89,-0.52,-8.16,-1.60,-2.13,0.79,-19.52,-8.24,-11.56,-1.00
3355.00,-5.58,-0.21,-7.44,-3.33,-2.69,0.89,-19.52,-8.24,-11.56,-1.00
3367.00,-5.58,-0.21,-7.44,-3.33,-2.69,0.89,-19.52,-8.24,-11.56,-1.00
3379.00,-6.78,2.50,-6.54,-5.47,-3.22,0.77,-19.52,-8.24,-11.56,-1.00
3394.00,-6.22,3.36,-4.90,-7.16,-3.43,0.38,-19.52,-8.24,-11.56,-1.00
3405.00,-6.22,3.36,-4.90,-7.16,-3.43,0.38,-19.52,-8.24,-11.56,-1.00
3417.00,-6.25,2.89,-4.93,-8.82,-3.32,0.28,-19.52,-8.24,-11.56,-1.00
3429.00,-6.25,2.89,-4.93,-8.82,-3.32,0.28,-19.52,-8.24,-11.56,-1.00
3443.00,-6.76,4.41,-4.98,-9.44,-3.22,0.73,-25.66,14.76,-6.65,-1.00
3455.00,-6.88,6.15,-3.18,-8.35,-3.26,1.30,-25.66,14.76,-6.65,-1.00
3467.00,-6.88,6.15,-3.18,-8.35,-3.26,1.30,-25.66,14.76,-6.65,-1.00
3479.00,-7.19,7.41,-0.96,-6.79,-3.00,1.58,-25.66,14.76,-6.65,-1.00
3493.00,-7.33,8.60,-1.52,-5.23,-2.53,1.37,-25.66,14.76,-6.65,-1.00
3506.00,-7.33,8.60,-1.52,-5.23,-2.53,1.37,-25.66,14.76,-6.65,-1.00
3517.00,-7.38,8.09,-0.63,-2.88,-2.06,1.12,-25.66,14.76,-6.65,-1.00
3531.00,-8.11,7.86,0.50,-1.73,-1.82,1.06,-25.66,14.76,-6.65,-1.00
3543.00,-8.11,7.86,0.50,-1.73,-1.82,1.06,-25.66,14.76,-6.65,-1.00
3555.00,-7.35,7.87,0.70,-1.24,-1.37,1.37,-25.66,14.76,-6.65,-1.00
3567.00,-7.35,7.87,0.70,-1.24,-1.37,1.37,-25.66,14.76,-6.65,-1.00
3581.00,-7.39,7.42,1.15,-0.92,-0.95,1.45,-28.60,29.67,7.41,-1.00
3593.00,-7.54,6.87,1.65,-1.07,-0.64,1.35,-28.60,29.67,7.41,-1.00
3605.00,-7.54,6.87,1.65,-1.07,-0.64,1.35,-28.60,29.67,7.41,-1.00
3617.00,-6.54,6.36,1.28,-1.78,-0.38,1.43,-28.60,29.67,7.41,-1.00
3631.00,-6.06,5.92,0.36,-1.98,-0.31,1.80,-28.60,29.67,7.41,-1.00
3643.00,-6.06,5.92,0.36,-1.98,-0.31,1.80,-28.60,29.67,7.41,-1.00
3655.00,-5.11,4.74,-0.37,-0.52,-0.14,2.47,-28.60,29.67,7.41,-1.00
3667.00,-5.11,4.74,-0.37,-0.52,-0.14,2.47,-28.60,29.67,7.41,-1.00
3681.00,-4.95,5.09,-1.69,0.71,0.07,3.16,-28.60,29.67,7.41,-1.00
3769.00,-5.34,11.53,-4.00,2.12,-0.83,2.42,-24.13,38.66,3.39,-1.00
3859.00,-5.45,6.77,-1.75,2.48,-1.01,1.13,-19.24,33.09,-11.12,-1.00
3947.00,-4.93,7.44,-4.06,1.22,-0.97,0.80,-19.24,33.09,-11.12,-1.00
3960.00,-5.17,7.24,-4.91,1.33,-1.07,0.65,-19.94,26.80,-16.70,-1.00
3972.00,-5.30,5.86,-4.96,1.12,-1.23,0.48,-19.94,26.80,-16.70,-1.00
3984.00,-5.30,5.86,-4.96,1.12,-1.23,0.48,-19.94,26.80,-16.70,-1.00
3996.00,-4.59,5.25,-5.45,0.39,-1.44,0.46,-19.94,26.80,-16.70,-1.00
4010.00,-4.59,5.25,-5.45,0.39,-1.44,0.46,-19.94,26.80,-16.70,-1.00
4022.00,-7.16,4.96,-5.57,-0.35,-1.74,0.38,-19.94,26.80,-16.70,-1.00
4034.00,-7.16,5.51,-4.66,-0.92,-1.72,0.24,-19.94,26.80,-16.70,-1.00
4048.00,-7.16,5.51,-4.66,-0.92,-1.72,0.24,-19.94,26.80,-16.70,-1.00
4060.00,-6.37,6.73,-5.65,-1.39,-1.35,0.48,-19.94,26.80,-16.70,-1.00
4072.00,-4.61,7.51,-6.49,-1.46,-1.00,0.76,-21.33,23.56,-17.59,-1.00
4084.00,-4.61,7.51,-6.49,-1.46,-1.00,0.76,-21.33,23.56,-17.59,-1.00
4098.00,-4.53,8.52,-7.35,-1.75,-0.98,0.88,-21.33,23.56,-17.59,-1.00
4110.00,-4.53,8.52,-7.35,-1.75,-0.98,0.88,-21.33,23.56,-17.59,-1.00
4122.00,-4.39,9.72,-7.19,-2.00,-1.24,0.54,-21.33,23.56,-17.59,-1.00
4134.00,-4.15,9.02,-6.82,-1.58,-1.59,0.04,-21.33,23.56,-17.59,-1.00
4149.00,-4.15,9.02,-6.82,-1.58,-1.59,0.04,-21.33,23.56,-17.59,-1.00
4160.00,-4.98,7.46,-5.52,-0.94,-1.87,-0.01,-21.33,23.56,-17.59,-1.00
4172.00,-4.67,6.65,-3.78,-0.81,-1.99,0.22,-21.33,23.56,-17.59,-1.00
4186.00,-4.67,6.65,-3.78,-0.81,-1.99,0.22,-21.33,23.56,-17.59,-1.00
4198.00,-4.77,7.95,-3.81,-0.98,-2.13,0.35,-21.61,26.80,-8.21,-1.00
4210.00,-4.77,7.95,-3.81,-0.98,-2.13,0.35,-21.61,26.80,-8.21,-1.00
4222.00,-5.13,7.62,-3.16,0.02,-2.03,0.52,-21.61,26.80,-8.21,-1.00
4236.00,-4.69,7.05,-3.02,0.27,-1.94,0.54,-21.61,26.80,-8.21,-1.00
4248.00,-4.69,7.05,-3.02,0.27,-1.94,0.54,-21.61,26.80,-8.21,-1.00
4260.00,-5.55,7.15,-2.19,0.29,-1.99,0.37,-21.61,26.80,-8.21,-1.00
4272.00,-6.37,5.93,-1.40,1.01,-1.88,0.10,-21.61,26.80,-8.21,-1.00
4286.00,-6.37,5.93,-1.40,1.01,-1.88,0.10,-21.61,26.80,-8.21,-1.00
4298.00,-6.54,4.41,-1.48,1.37,-1.76,0.06,-21.61,26.80,-8.21,-1.00
4310.00,-6.54,4.41,-1.48,1.37,-1.76,0.06,-21.61,26.80,-8.21,-1.00
4322.00,-6.64,4.95,-1.57,0.96,-1.77,0.45,-25.80,19.61,-2.86,-1.00
4336.00,-7.99,7.38,-1.23,0.26,-1.80,0.84,-25.80,19.61,-2.86,-1.00
4348.00,-7.99,7.38,-1.23,0.26,-1.80,0.84,-25.80,19.61,-2.86,-1.00
4360.00,-8.66,9.06,-1.11,0.01,-1.70,0.75,-25.80,19.61,-2.86,-1.00
4372.00,-8.48,8.36,-2.41,0.02,-1.53,0.27,-25.80,19.61,-2.86,-1.00
4387.00,-8.48,8.36,-2.41,0.02,-1.53,0.27,-25.80,19.61,-2.86,-1.00
4399.00,-8.44,6.17,-2.69,0.16,-1.54,0.14,-25.80,19.61,-2.86,-1.00
4411.00,-7.68,4.70,-2.22,-0.14,-1.58,0.43,-25.80,19.61,-2.86,-1.00
4426.00,-7.68,4.70,-2.22,-0.14,-1.58,0.43,-25.80,19.61,-2.86,-1.00
4437.00,-7.03,4.67,-2.66,-0.59,-1.52,0.59,-25.80,19.61,-2.86,-1.00
4449.00,-7.03,4.67,-2.66,-0.59,-1.52,0.59,-25.80,19.61,-2.86,-1.00
4461.00,-6.94,4.99,-3.02,-0.59,-1.42,0.55,-26.22,18.71,-0.85,-1.00
4475.00,-8.03,5.87,-3.01,-0.29,-1.33,0.62,-26.22,18.71,-0.85,-1.00
4487.00,-8.03,5.87,-3.01,-0.29,-1.33,0.62,-26.22,18.71,-0.85,-1.00
4499.00,-8.85,6.60,-2.91,-0.23,-1.29,0.66,-26.22,18.71,-0.85,-1.00
4511.00,-8.85,6.60,-2.91,-0.23,-1.29,0.66,-26.22,18.71,-0.85,-1.00
4525.00,-7.82,6.06,-2.81,-0.12,-1.25,0.61,-26.22,18.71,-0.85,-1.00
4537.00,-7.90,5.39,-2.69,-0.05,-1.23,0.63,-26.22,18.71,-0.85,-1.00
4549.00,-7.90,5.39,-2.69,-0.05,-1.23,0.63,-26.22,18.71,-0.85,-1.00
4561.00,-8.04,5.66,-2.22,-0.18,-1.24,0.69,-26.22,18.71,-0.85,-1.00
4576.00,-7.66,6.38,-2.52,-0.26,-1.19,0.72,-27.34,17.99,1.38,-1.00
4587.00,-7.66,6.38,-2.52,-0.26,-1.19,0.72,-27.34,17.99,1.38,-1.00
4599.00,-7.09,6.68,-3.27,-0.10,-1.15,0.79,-27.34,17.99,1.38,-1.00
4614.00,-6.19,6.50,-3.91,-0.03,-1.28,0.84,-27.34,17.99,1.38,-1.00
4625.00,-6.19,6.50,-3.91,-0.03,-1.28,0.84,-27.34,17.99,1.38,-1.00
4637.00,-6.81,6.82,-3.29,-0.04,-1.61,0.87,-27.34,17.99,1.38,-1.00
4649.00,-6.81,6.82,-3.29,-0.04,-1.61,0.87,-27.34,17.99,1.38,-1.00
4663.00,-8.69,6.60,-1.64,-0.01,-1.82,0.71,-27.34,17.99,1.38,-1.00
4675.00,-8.07,5.09,-1.90,0.11,-1.63,0.65,-27.34,17.99,1.38,-1.00
4687.00,-8.07,5.09,-1.90,0.11,-1.63,0.65,-27.34,17.99,1.38,-1.00
4699.00,-7.87,4.81,-2.33,0.03,-1.46,0.84,-26.36,14.94,2.50,-1.00
4713.00,-8.04,5.39,-2.05,-0.09,-1.43,1.01,-26.36,14.94,2.50,-1.00
4725.00,-8.04,5.39,-2.05,-0.09,-1.43,1.01,-26.36,14.94,2.50,-1.00
4737.00,-9.36,5.91,-1.67,0.00,-1.38,1.05,-26.36,14.94,2.50,-1.00
4749.00,-9.36,5.91,-1.67,0.00,-1.38,1.05,-26.36,14.94,2.50,-1.00
4763.00,-9.39,5.13,-1.36,0.06,-1.21,0.94,-26.36,14.94,2.50,-1.00
4775.00,-8.40,4.82,-1.44,0.06,-0.92,0.86,-26.36,14.94,2.50,-1.00
4787.00,-8.40,4.82,-1.44,0.06,-0.92,0.86,-26.36,14.94,2.50,-1.00
4799.00,-7.01,5.17,-2.49,-0.03,-0.69,0.91,-26.36,14.94,2.50,-1.00
4813.00,-6.12,5.97,-3.51,-0.09,-0.77,1.06,-26.78,14.76,1.38,-1.00
4825.00,-6.12,5.97,-3.51,-0.09,-0.77,1.06,-26.78,14.76,1.38,-1.00
4837.00,-6.12,6.49,-3.73,-0.07,-1.11,1.39,-26.78,14.76,1.38,-1.00
4849.00,-6.12,6.49,-3.73,-0.07,-1.11,1.39,-26.78,14.76,1.38,-1.00
4864.00,-6.72,8.11,-2.76,-0.22,-1.50,1.60,-26.78,14.76,1.38,-1.00
4875.00,-6.13,8.43,-2.61,-0.05,-1.69,1.48,-26.78,14.76,1.38,-1.00
4887.00,-6.13,8.43,-2.61,-0.05,-1.69,1.48,-26.78,14.76,1.38,-1.00
4899.00,-6.11,8.03,-3.04,0.49,-1.78,1.41,-26.78,14.76,1.38,-1.00
4913.00,-9.54,6.80,-1.96,0.59,-2.04,1.16,-26.78,14.76,1.38,-1.00
4925.00,-9.54,6.80,-1.96,0.59,-2.04,1.16,-26.78,14.76,1.38,-1.00
4937.00,-10.98,3.52,-0.18,0.34,-2.04,0.41,-26.78,14.76,1.38,-1.00
4951.00,-10.98,3.52,-0.18,0.34,-2.04,0.41,-26.78,14.76,1.38,-1.00
4963.00,-8.88,2.31,-0.10,-0.02,-1.39,0.32,-27.76,17.45,4.29,-1.00
4975.00,-8.21,4.67,-2.46,-0.38,-0.68,0.95,-27.76,17.45,4.29,-1.00
4987.00,-8.21,4.67,-2.46,-0.38,-0.68,0.95,-27.76,17.45,4.29,-1.00
5001.00,-7.55,6.56,-2.64,-0.51,-0.54,1.27,-27.76,17.45,4.29,-1.00
5013.00,-7.41,7.24,-3.22,-0.30,-0.60,1.26,-27.76,17.45,4.29,-1.00
5025.00,-7.41,7.24,-3.22,-0.30,-0.60,1.26,-27.76,17.45,4.29,-1.00
5037.00,-6.73,7.34,-2.84,-0.31,-0.86,1.07,-27.76,17.45,4.29,-1.00
5051.00,-6.73,7.34,-2.84,-0.31,-0.86,1.07,-27.76,17.45,4.29,-1.00
5063.00,-6.29,6.83,-2.99,-0.29,-1.09,0.99,-27.76,17.45,4.29,-1.00
5075.00,-6.47,6.86,-2.57,-0.34,-1.34,0.99,-26.36,18.89,1.61,-1.00
5087.00,-6.47,6.86,-2.57,-0.34,-1.34,0.99,-26.36,18.89,1.61,-1.00
5101.00,-7.06,7.02,-2.60,-0.56,-1.59,1.04,-26.36,18.89,1.61,-1.00
5113.00,-7.77,6.09,-1.61,-0.66,-1.76,1.12,-26.36,18.89,1.61,-1.00
5125.00,-7.77,6.09,-1.61,-0.66,-1.76,1.12,-26.36,18.89,1.61,-1.00
5137.00,-7.48,5.92,-1.55,-0.44,-1.67,1.19,-26.36,18.89,1.61,-1.00
5151.00,-7.48,5.92,-1.55,-0.44,-1.67,1.19,-26.36,18.89,1.61,-1.00
5163.00,-7.74,5.92,-0.98,0.21,-1.44,1.18,-26.36,18.89,1.61,-1.00
5175.00,-9.47,5.56,-1.97,0.31,-1.28,1.15,-26.36,18.89,1.61,-1.00
5187.00,-9.47,5.56,-1.97,0.31,-1.28,1.15,-26.36,18.89,1.61,-1.00
5201.00,-9.08,5.50,-1.28,-0.02,-1.26,1.11,-28.32,21.05,5.18,-1.00
5213.00,-8.73,5.83,-1.91,0.19,-1.01,1.03,-28.32,21.05,5.18,-1.00
5225.00,-8.73,5.83,-1.91,0.19,-1.01,1.03,-28.32,21.05,5.18,-1.00
5239.00,-5.13,6.98,-15.17,1.52,-0.67,1.13,-28.32,21.05,5.18,-1.00
5251.00,-5.13,6.98,-15.17,1.52,-0.67,1.13,-28.32,21.05,5.18,-1.00
5263.00,-5.96,4.29,-5.77,3.96,-0.89,1.57,-28.32,21.05,5.18,-1.00
5275.00,-6.40,4.56,-2.81,1.51,-1.99,1.65,-28.32,21.05,5.18,-1.00
5290.00,-6.40,4.56,-2.81,1.51,-1.99,1.65,-28.32,21.05,5.18,-1.00
5301.00,-6.37,6.63,-2.67,0.45,-2.40,2.03,-28.32,21.05,5.18,-1.00
5313.00,-7.53,8.90,-1.46,0.24,-2.61,2.30,-27.48,19.61,6.07,-1.00
5325.00,-7.53,8.90,-1.46,0.24,-2.61,2.30,-27.48,19.61,6.07,-1.00
5339.00,-7.24,11.48,-1.09,-0.33,-2.37,1.83,-27.48,19.61,6.07,-1.00
5351.00,-7.24,11.48,-1.09,-0.33,-2.37,1.83,-27.48,19.61,6.07,-1.00
5363.00,-7.40,10.30,-1.32,0.29,-1.84,0.95,-27.48,19.61,6.07,-1.00
5375.00,-6.38,8.58,-0.90,0.85,-1.53,0.25,-27.48,19.61,6.07,-1.00
5389.00,-6.38,8.58,-0.90,0.85,-1.53,0.25,-27.48,19.61,6.07,-1.00
5401.00,-7.09,6.56,-1.49,1.32,-1.26,0.00,-27.48,19.61,6.07,-1.00
5413.00,-8.00,5.17,-2.82,1.51,-1.04,0.12,-27.48,19.61,6.07,-1.00
5425.00,-8.00,5.17,-2.82,1.51,-1.04,0.12,-27.48,19.61,6.07,-1.00
5440.00,-7.87,4.03,-2.60,1.37,-1.10,0.34,-27.48,19.61,6.07,-1.00
5451.00,-7.87,4.03,-2.60,1.37,-1.10,0.34,-27.48,19.61,6.07,-1.00
5463.00,-8.15,4.02,-2.17,1.15,-1.11,0.71,-29.16,17.10,7.86,-1.00
5475.00,-7.91,4.51,-2.50,0.89,-1.00,1.05,-29.16,17.10,7.86,-1.00
5489.00,-7.91,4.51,-2.50,0.89,-1.00,1.05,-29.16,17.10,7.86,-1.00
5501.00,-7.35,4.95,-2.69,0.46,-0.95,1.31,-29.16,17.10,7.86,-1.00
5513.00,-7.51,5.57,-3.83,-0.04,-1.00,1.49,-29.16,17.10,7.86,-1.00
5525.00,-7.51,5.57,-3.83,-0.04,-1.00,1.49,-29.16,17.10,7.86,-1.00
5539.00,-7.11,6.68,-3.77,-0.13,-1.10,1.38,-29.16,17.10,7.86,-1.00
5551.00,-7.11,6.68,-3.77,-0.13,-1.10,1.38,-29.16,17.10,7.86,-1.00
5563.00,-6.85,7.27,-4.41,0.01,-1.14,1.15,-29.16,17.10,7.86,-1.00
5577.00,-6.67,7.24,-4.28,0.10,-1.27,0.97,-29.99,17.81,6.07,-1.00
5589.00,-6.67,7.24,-4.28,0.10,-1.27,0.97,-29.99,17.81,6.07,-1.00
5601.00,-7.36,7.01,-3.76,0.25,-1.39,0.82,-29.99,17.81,6.07,-1.00
5613.00,-8.08,6.64,-2.78,0.20,-1.43,0.66,-29.99,17.81,6.07,-1.00
5628.00,-8.08,6.64,-2.78,0.20,-1.43,0.66,-29.99,17.81,6.07,-1.00
5639.00,-7.69,5.67,-2.59,0.22,-1.26,0.53,-29.99,17.81,6.07,-1.00
5651.00,-7.69,5.67,-2.59,0.22,-1.26,0.53,-29.99,17.81,6.07,-1.00
5663.00,-7.27,4.73,-3.23,0.15,-1.12,0.56,-29.99,17.81,6.07,-1.00
5677.00,-7.58,5.00,-2.95,-0.19,-1.18,0.78,-29.99,17.81,6.07,-1.00
5689.00,-7.58,5.00,-2.95,-0.19,-1.18,0.78,-29.99,17.81,6.07,-1.00
5701.00,-7.81,6.06,-2.76,-0.49,-1.17,0.99,-28.04,16.74,4.73,-1.00
5713.00,-7.29,6.43,-3.07,-0.50,-1.08,1.01,-28.04,16.74,4.73,-1.00
5727.00,-7.29,6.43,-3.07,-0.50,-1.08,1.01,-28.04,16.74,4.73,-1.00
5739.00,-7.15,6.37,-3.43,-0.31,-1.00,0.94,-28.04,16.74,4.73,-1.00
5751.00,-7.15,6.37,-3.43,-0.31,-1.00,0.94,-28.04,16.74,4.73,-1.00
5763.00,-7.49,5.79,-3.18,-0.26,-1.04,0.84,-28.04,16.74,4.73,-1.00
5778.00,-7.75,5.64,-2.93,-0.37,-1.06,0.75,-28.04,16.74,4.73,-1.00
5789.00,-7.75,5.64,-2.93,-0.37,-1.06,0.75,-28.04,16.74,4.73,-1.00
5801.00,-7.85,6.22,-2.82,-0.46,-0.97,0.66,-28.04,16.74,4.73,-1.00
5813.00,-6.58,6.15,-4.17,-0.36,-0.83,0.65,-28.04,16.74,4.73,-1.00
5827.00,-6.58,6.15,-4.17,-0.36,-0.83,0.65,-28.04,16.74,4.73,-1.00
5839.00,-6.13,6.27,-4.82,-0.30,-1.00,0.77,-28.46,15.84,6.29,-1.00
5851.00,-6.13,6.27,-4.82,-0.30,-1.00,0.77,-28.46,15.84,6.29,-1.00
5865.00,-7.17,6.35,-3.77,-0.20,-1.36,0.84,-28.46,15.84,6.29,-1.00
5877.00,-8.02,5.83,-2.70,-0.12,-1.52,0.81,-28.46,15.84,6.29,-1.00
5889.00,-8.02,5.83,-2.70,-0.12,-1.52,0.81,-28.46,15.84,6.29,-1.00
5902.00,-8.07,5.32,-2.39,-0.07,-1.42,0.78,-28.46,15.84,6.29,-1.00
5915.00,-7.77,5.06,-2.95,-0.09,-1.28,0.91,-28.46,15.84,6.29,-1.00
5927.00,-7.77,5.06,-2.95,-0.09,-1.28,0.91,-28.46,15.84,6.29,-1.00
5939.00,-7.86,5.70,-2.74,-0.19,-1.27,1.07,-28.46,15.84,6.29,-1.00
5951.00,-7.86,5.70,-2.74,-0.19,-1.27,1.07,-28.46,15.84,6.29,-1.00
5965.00,-8.06,6.21,-2.65,-0.14,-1.26,1.05,-27.76,16.74,6.96,-1.00
5977.00,-7.69,6.25,-2.74,-0.03,-1.18,0.94,-27.76,16.74,6.96,-1.00
5989.00,-7.69,6.25,-2.74,-0.03,-1.18,0.94,-27.76,16.74,6.96,-1.00
6001.00,-6.97,6.07,-3.20,0.00,-1.11,0.90,-27.76,16.74,6.96,-1.00
6015.00,-6.48,6.19,-3.98,-0.06,-1.19,0.92,-27.76,16.74,6.96,-1.00
6027.00,-6.48,6.19,-3.98,-0.06,-1.19,0.92,-27.76,16.74,6.96,-1.00
6039.00,-7.14,6.41,-3.53,-0.11,-1.42,0.92,-27.76,16.74,6.96,-1.00
6051.00,-7.14,6.41,-3.53,-0.11,-1.42,0.92,-27.76,16.74,6.96,-1.00
6065.00,-7.94,6.49,-2.79,-0.05,-1.54,0.77,-27.76,16.74,6.96,-1.00
6153.00,-7.79,4.28,-2.18,-0.10,-1.28,0.85,-28.18,16.92,8.53,-1.00
6243.00,-7.80,5.17,-2.71,0.09,-1.22,0.77,-29.44,14.22,7.86,-1.00
6331.00,-8.05,6.16,-2.68,-0.08,-1.32,0.92,-29.44,14.22,7.86,-1.00
6345.00,-8.28,5.76,-2.64,-0.03,-1.36,0.84,-29.85,16.20,8.53,-1.00
6357.00,-8.72,5.66,-2.12,-0.10,-1.45,0.74,-29.85,16.20,8.53,-1.00
6369.00,-8.72,5.66,-2.12,-0.10,-1.45,0.74,-29.85,16.20,8.53,-1.00
6383.00,-8.43,5.70,-2.51,-0.16,-1.42,0.64,-29.85,16.20,8.53,-1.00
6395.00,-8.80,5.80,-2.28,-0.11,-1.41,0.53,-29.85,16.20,8.53,-1.00
6407.00,-8.80,5.80,-2.28,-0.11,-1.41,0.53,-29.85,16.20,8.53,-1.00
6419.00,-8.45,5.31,-1.60,-0.02,-1.35,0.36,-29.85,16.20,8.53,-1.00
6433.00,-8.45,5.31,-1.60,-0.02,-1.35,0.36,-29.85,16.20,8.53,-1.00
6445.00,-8.49,5.01,-2.39,0.10,-1.20,0.29,-29.85,16.20,8.53,-1.00
6457.00,-8.72,4.78,-2.29,0.14,-1.08,0.30,-27.90,12.96,10.76,-1.00
6469.00,-8.72,4.78,-2.29,0.14,-1.08,0.30,-27.90,12.96,10.76,-1.00
6483.00,-8.44,4.80,-2.60,0.21,-0.91,0.32,-27.90,12.96,10.76,-1.00
6495.00,-8.11,5.70,-2.39,0.30,-0.79,0.30,-27.90,12.96,10.76,-1.00
6507.00,-8.11,5.70,-2.39,0.30,-0.79,0.30,-27.90,12.96,10.76,-1.00
6519.00,-7.87,4.87,-3.51,0.39,-0.67,0.24,-27.90,12.96,10.76,-1.00
6533.00,-7.87,4.87,-3.51,0.39,-0.67,0.24,-27.90,12.96,10.76,-1.00
6545.00,-8.14,4.21,-2.76,0.42,-0.69,0.30,-27.90,12.96,10.76,-1.00
6557.00,-7.83,3.80,-2.89,0.41,-0.61,0.48,-27.90,12.96,10.76,-1.00
6569.00,-7.83,3.80,-2.89,0.41,-0.61,0.48,-27.90,12.96,10.76,-1.00
6583.00,-7.92,4.07,-3.36,0.20,-0.60,0.69,-27.62,7.93,6.74,-1.00
6595.00,-7.77,4.11,-3.47,-0.07,-0.72,0.92,-27.62,7.93,6.74,-1.00
6607.00,-7.77,4.11,-3.47,-0.07,-0.72,0.92,-27.62,7.93,6.74,-1.00
6619.00,-8.17,4.61,-3.51,-0.12,-0.83,1.08,-27.62,7.93,6.74,-1.00
6633.00,-8.17,4.61,-3.51,-0.12,-0.83,1.08,-27.62,7.93,6.74,-1.00
6645.00,-8.09,4.74,-3.33,-0.05,-0.91,1.16,-27.62,7.93,6.74,-1.00
6657.00,-8.15,5.08,-3.37,0.09,-0.93,1.24,-27.62,7.93,6.74,-1.00
6672.00,-8.15,5.08,-3.37,0.09,-0.93,1.24,-27.62,7.93,6.74,-1.00
6683.00,-7.72,4.86,-3.89,0.09,-0.98,1.28,-27.62,7.93,6.74,-1.00
6696.00,-7.38,4.44,-4.15,0.01,-1.09,1.41,-26.92,9.55,4.29,-1.00
6708.00,-7.38,4.44,-4.15,0.01,-1.09,1.41,-26.92,9.55,4.29,-1.00
6722.00,-8.04,5.40,-3.60,-0.19,-1.29,1.57,-26.92,9.55,4.29,-1.00
6734.00,-8.26,5.55,-3.87,-0.33,-1.44,1.51,-26.92,9.55,4.29,-1.00
6746.00,-8.26,5.55,-3.87,-0.33,-1.44,1.51,-26.92,9.55,4.29,-1.00
6758.00,-8.92,5.74,-3.16,-0.34,-1.55,1.43,-26.92,9.55,4.29,-1.00
6772.00,-8.92,5.74,-3.16,-0.34,-1.55,1.43,-26.92,9.55,4.29,-1.00
6784.00,-7.85,5.53,-2.54,-0.23,-1.55,1.33,-26.92,9.55,4.29,-1.00
6796.00,-8.10,5.36,-2.80,-0.16,-1.51,1.28,-26.92,9.55,4.29,-1.00
6808.00,-8.10,5.36,-2.80,-0.16,-1.51,1.28,-26.92,9.55,4.29,-1.00
6823.00,-7.82,5.16,-2.60,-0.20,-1.55,1.22,-26.92,9.55,4.29,-1.00
6834.00,-8.27,5.39,-2.78,-0.10,-1.48,1.22,-28.18,12.24,4.06,-1.00
6846.00,-8.27,5.39,-2.78,-0.10,-1.48,1.22,-28.18,12.24,4.06,-1.00
6858.00,-8.17,5.47,-2.87,-0.07,-1.42,1.15,-28.18,12.24,4.06,-1.00
6872.00,-8.17,5.47,-2.87,-0.07,-1.42,1.15,-28.18,12.24,4.06,-1.00
6884.00,-7.71,5.04,-2.85,-0.09,-1.39,1.10,-28.18,12.24,4.06,-1.00
6896.00,-7.91,5.25,-3.08,-0.17,-1.42,1.16,-28.18,12.24,4.06,-1.00
6908.00,-7.91,5.25,-3.08,-0.17,-1.42,1.16,-28.18,12.24,4.06,-1.00
6922.00,-8.39,5.78,-2.93,-0.15,-1.41,1.18,-28.18,12.24,4.06,-1.00
6934.00,-8.18,5.58,-2.83,-0.04,-1.38,1.09,-28.18,12.24,4.06,-1.00
6946.00,-8.18,5.58,-2.83,-0.04,-1.38,1.09,-28.18,12.24,4.06,-1.00
6958.00,-7.97,5.25,-2.84,-0.05,-1.42,1.09,-28.46,14.40,6.74,-1.00
6973.00,-7.97,5.25,-2.84,-0.05,-1.42,1.09,-28.46,14.40,6.74,-1.00
6984.00,-7.77,4.90,-2.46,-0.15,-1.44,1.13,-28.46,14.40,6.74,-1.00
6996.00,-8.23,5.73,-2.17,-0.23,-1.42,1.15,-28.46,14.40,6.74,-1.00
7010.00,-8.23,5.73,-2.17,-0.23,-1.42,1.15,-28.46,14.40,6.74,-1.00
7022.00,-8.34,5.93,-1.93,-0.16,-1.38,1.08,-28.46,14.40,6.74,-1.00
7034.00,-8.02,5.36,-2.51,-0.07,-1.32,1.01,-28.46,14.40,6.74,-1.00
7046.00,-8.02,5.36,-2.51,-0.07,-1.32,1.01,-28.46,14.40,6.74,-1.00
7060.00,-8.10,5.60,-2.76,-0.11,-1.32,1.02,-28.46,14.40,6.74,-1.00
7072.00,-8.10,5.60,-2.76,-0.11,-1.32,1.02,-28.46,14.40,6.74,-1.00
7084.00,-8.11,5.89,-2.36,-0.12,-1.34,1.00,-28.32,15.30,8.30,-1.00
7096.00,-8.00,5.66,-2.63,-0.02,-1.28,0.96,-28.32,15.30,8.30,-1.00
7110.00,-8.00,5.66,-2.63,-0.02,-1.28,0.96,-28.32,15.30,8.30,-1.00
7122.00,-8.20,5.83,-2.24,-0.01,-1.29,0.92,-28.32,15.30,8.30,-1.00
7134.00,-8.28,5.51,-2.56,0.02,-1.29,0.87,-28.32,15.30,8.30,-1.00
7146.00,-8.28,5.51,-2.56,0.02,-1.29,0.87,-28.32,15.30,8.30,-1.00
7160.00,-8.23,5.40,-2.66,-0.02,-1.31,0.85,-28.32,15.30,8.30,-1.00
7172.00,-8.23,5.40,-2.66,-0.02,-1.31,0.85,-28.32,15.30,8.30,-1.00
7184.00,-8.49,5.76,-2.38,-0.04,-1.31,0.84,-28.32,15.30,8.30,-1.00
7196.00,-8.16,5.90,-2.40,-0.02,-1.24,0.77,-28.60,14.22,8.30,-1.00
7210.00,-8.16,5.90,-2.40,-0.02,-1.24,0.77,-28.60,14.22,8.30,-1.00
7222.00,-7.90,5.44,-2.86,0.02,-1.17,0.67,-28.60,14.22,8.30,-1.00
7234.00,-7.90,5.44,-2.86,0.02,-1.17,0.67,-28.60,14.22,8.30,-1.00
7246.00,-8.07,5.66,-2.15,0.06,-1.14,0.64,-28.60,14.22,8.30,-1.00
7261.00,-8.31,5.48,-2.74,0.20,-1.02,0.60,-28.60,14.22,8.30,-1.00
7272.00,-8.31,5.48,-2.74,0.20,-1.02,0.60,-28.60,14.22,8.30,-1.00
7284.00,-8.39,5.86,-2.32,0.32,-0.96,0.49,-28.60,14.22,8.30,-1.00
7298.00,-8.34,5.31,-2.72,0.44,-0.86,0.34,-28.60,14.22,8.30,-1.00
7310.00,-8.34,5.31,-2.72,0.44,-0.86,0.34,-28.60,14.22,8.30,-1.00
7322.00,-8.15,4.73,-2.16,0.41,-0.81,0.27,-28.60,14.22,8.30,-1.00
7334.00,-8.15,4.73,-2.16,0.41,-0.81,0.27,-28.60,14.22,8.30,-1.00
7348.00,-7.49,4.63,-3.23,0.32,-0.74,0.29,-28.60,9.91,6.07,-1.00
7360.00,-7.64,4.34,-3.40,0.20,-0.77,0.47,-28.60,9.91,6.07,-1.00
7373.00,-7.64,4.34,-3.40,0.20,-0.77,0.47,-28.60,9.91,6.07,-1.00
7385.00,-8.06,4.88,-3.36,0.09,-0.83,0.65,-28.60,9.91,6.07,-1.00
7399.00,-8.23,4.93,-2.91,0.08,-0.83,0.74,-28.60,9.91,6.07,-1.00
7411.00,-8.23,4.93,-2.91,0.08,-0.83,0.74,-28.60,9.91,6.07,-1.00
7423.00,-8.05,4.51,-2.40,-0.01,-0.78,0.79,-28.60,9.91,6.07,-1.00
7435.00,-7.61,4.68,-3.66,-0.13,-0.78,0.93,-28.60,9.91,6.07,-1.00
7449.00,-7.61,4.68,-3.66,-0.13,-0.78,0.93,-28.60,9.91,6.07,-1.00
7461.00,-7.84,4.65,-3.44,-0.09,-0.90,1.11,-27.62,9.01,4.06,-1.00
7473.00,-7.84,4.65,-3.44,-0.09,-0.90,1.11,-27.62,9.01,4.06,-1.00
7485.00,-8.26,4.96,-2.99,0.05,-0.96,1.23,-27.62,9.01,4.06,-1.00
7499.00,-7.19,4.67,-3.68,0.02,-1.01,1.27,-27.62,9.01,4.06,-1.00
7511.00,-7.19,4.67,-3.68,0.02,-1.01,1.27,-27.62,9.01,4.06,-1.00
7523.00,-7.18,4.42,-4.42,-0.07,-1.15,1.48,-27.62,9.01,4.06,-1.00
7535.00,-8.17,5.31,-3.51,-0.26,-1.38,1.73,-27.62,9.01,4.06,-1.00
7549.00,-8.17,5.31,-3.51,-0.26,-1.38,1.73,-27.62,9.01,4.06,-1.00
7561.00,-7.87,5.97,-3.24,-0.33,-1.46,1.70,-27.62,9.01,4.06,-1.00
7573.00,-7.87,5.97,-3.24,-0.33,-1.46,1.70,-27.62,9.01,4.06,-1.00
7585.00,-7.53,5.83,-3.79,-0.22,-1.52,1.57,-28.18,12.60,3.62,-1.00
7599.00,-8.26,5.71,-3.20,-0.09,-1.64,1.52,-28.18,12.60,3.62,-1.00
7611.00,-8.26,5.71,-3.20,-0.09,-1.64,1.52,-28.18,12.60,3.62,-1.00
7623.00,-8.13,5.81,-2.21,-0.03,-1.64,1.40,-28.18,12.60,3.62,-1.00
7635.00,-7.93,5.85,-2.91,0.03,-1.54,1.29,-28.18,12.60,3.62,-1.00
7649.00,-7.93,5.85,-2.91,0.03,-1.54,1.29,-28.18,12.60,3.62,-1.00
7661.00,-7.81,5.66,-2.84,0.04,-1.53,1.21,-28.18,12.60,3.62,-1.00
7673.00,-7.81,5.66,-2.84,0.04,-1.53,1.21,-28.18,12.60,3.62,-1.00
7685.00,-7.93,5.33,-2.65,0.12,-1.50,1.16,-28.18,12.60,3.62,-1.00
7699.00,-7.86,4.86,-2.46,0.05,-1.52,1.19,-28.18,12.60,3.62,-1.00
7711.00,-7.86,4.86,-2.46,0.05,-1.52,1.19,-28.18,12.60,3.62,-1.00
7723.00,-8.16,6.06,-2.78,-0.13,-1.50,1.24,-28.04,13.86,5.62,-1.00
7737.00,-8.05,5.58,-2.17,-0.16,-1.54,1.10,-28.04,13.86,5.62,-1.00
7749.00,-8.05,5.58,-2.17,-0.16,-1.54,1.10,-28.04,13.86,5.62,-1.00
7761.00,-8.02,6.37,-2.46,-0.08,-1.48,1.07,-28.04,13.86,5.62,-1.00
7773.00,-8.02,6.37,-2.46,-0.08,-1.48,1.07,-28.04,13.86,5.62,-1.00
7787.00,-7.98,5.73,-2.96,0.05,-1.40,0.98,-28.04,13.86,5.62,-1.00
7799.00,-7.99,5.91,-2.63,-0.01,-1.42,0.93,-28.04,13.86,5.62,-1.00
7811.00,-7.99,5.91,-2.63,-0.01,-1.42,0.93,-28.04,13.86,5.62,-1.00
7823.00,-8.03,5.83,-2.04,-0.02,-1.46,0.92,-28.04,13.86,5.62,-1.00
7838.00,-7.93,5.73,-2.79,-0.07,-1.44,0.89,-27.62,14.76,7.19,-1.00
7849.00,-7.93,5.73,-2.79,-0.07,-1.44,0.89,-27.62,14.76,7.19,-1.00
7861.00,-8.13,6.15,-2.63,-0.15,-1.44,0.83,-27.62,14.76,7.19,-1.00
7873.00,-8.13,6.15,-2.63,-0.15,-1.44,0.83,-27.62,14.76,7.19,-1.00
7887.00,-7.98,5.61,-2.66,-0.21,-1.44,0.72,-27.62,14.76,7.19,-1.00
7899.00,-8.13,5.49,-2.14,-0.24,-1.45,0.70,-27.62,14.76,7.19,-1.00
7911.00,-8.13,5.49,-2.14,-0.24,-1.45,0.70,-27.62,14.76,7.19,-1.00
7923.00,-7.90,5.18,-2.29,-0.17,-1.39,0.72,-27.62,14.76,7.19,-1.00
7937.00,-8.46,5.84,-2.42,-0.15,-1.36,0.77,-27.62,14.76,7.19,-1.00
7949.00,-8.46,5.84,-2.42,-0.15,-1.36,0.77,-27.62,14.76,7.19,-1.00
7961.00,-8.79,6.15,-2.65,-0.20,-1.36,0.65,-27.62,14.40,9.87,-1.00
7975.00,-8.96,5.75,-1.74,-0.19,-1.40,0.46,-27.62,14.40,9.87,-1.00
7987.00,-8.96,5.75,-1.74,-0.19,-1.40,0.46,-27.62,14.40,9.87,-1.00
7999.00,-8.74,5.70,-1.61,-0.15,-1.31,0.26,-27.62,14.40,9.87,-1.00
8011.00,-8.74,5.70,-1.61,-0.15,-1.31,0.26,-27.62,14.40,9.87,-1.00
8026.00,-7.86,5.61,-1.64,-0.10,-1.19,0.16,-27.62,14.40,9.87,-1.00
8037.00,-7.90,5.18,-2.25,0.02,-1.09,0.19,-27.62,14.40,9.87,-1.00
8049.00,-7.90,5.18,-2.25,0.02,-1.09,0.19,-27.62,14.40,9.87,-1.00
8061.00,-8.41,4.56,-1.75,0.20,-1.03,0.25,-27.62,14.40,9.87,-1.00
8075.00,-8.33,4.77,-1.99,0.30,-0.89,0.28,-27.62,14.40,9.87,-1.00
8087.00,-8.33,4.77,-1.99,0.30,-0.89,0.28,-27.76,9.91,9.20,-1.00
8099.00,-8.02,5.14,-2.57,0.39,-0.76,0.30,-27.76,9.91,9.20,-1.00
8111.00,-8.02,5.14,-2.57,0.39,-0.76,0.30,-27.76,9.91,9.20,-1.00
8125.00,-8.10,4.77,-2.27,0.41,-0.74,0.31,-27.76,9.91,9.20,-1.00
8137.00,-8.58,4.18,-2.32,0.41,-0.73,0.33,-27.76,9.91,9.20,-1.00
8149.00,-8.58,4.18,-2.32,0.41,-0.73,0.33,-27.76,9.91,9.20,-1.00
8161.00,-8.25,3.81,-2.13,0.28,-0.65,0.40,-27.76,9.91,9.20,-1.00
8176.00,-7.54,3.55,-3.70,0.11,-0.54,0.55,-27.76,9.91,9.20,-1.00
8187.00,-7.54,3.55,-3.70,0.11,-0.54,0.55,-27.76,9.91,9.20,-1.00
8199.00,-8.13,3.96,-3.57,-0.10,-0.67,0.78,-27.76,9.91,9.20,-1.00
8211.00,-8.13,3.96,-3.57,-0.10,-0.67,0.78,-27.76,9.91,9.20,-1.00
8225.00,-8.07,3.86,-2.95,-0.06,-0.78,0.96,-27.90,8.29,4.51,-1.00
8237.00,-8.25,4.16,-3.24,-0.01,-0.80,1.18,-27.90,8.29,4.51,-1.00
8249.00,-8.25,4.16,-3.24,-0.01,-0.80,1.18,-27.90,8.29,4.51,-1.00
8261.00,-8.34,4.39,-3.45,0.08,-0.85,1.35,-27.90,8.29,4.51,-1.00
8275.00,-8.34,4.39,-3.45,0.08,-0.85,1.35,-27.90,8.29,4.51,-1.00
8287.00,-7.67,3.75,-3.39,0.08,-0.96,1.50,-27.90,8.29,4.51,-1.00
8299.00,-8.36,4.46,-3.27,-0.17,-1.07,1.80,-27.90,8.29,4.51,-1.00
8311.00,-8.36,4.46,-3.27,-0.17,-1.07,1.80,-27.90,8.29,4.51,-1.00
8326.00,-8.87,6.33,-3.93,-0.40,-1.18,1.92,-27.90,8.29,4.51,-1.00
8337.00,-7.74,5.99,-3.78,-0.34,-1.36,1.70,-27.20,9.55,4.29,-1.00
8349.00,-7.74,5.99,-3.78,-0.34,-1.36,1.70,-27.20,9.55,4.29,-1.00
8361.00,-7.63,5.61,-3.26,-0.17,-1.48,1.54,-27.20,9.55,4.29,-1.00
8375.00,-7.63,5.61,-3.26,-0.17,-1.48,1.54,-27.20,9.55,4.29,-1.00
8387.00,-8.49,5.69,-2.52,-0.07,-1.56,1.41,-27.20,9.55,4.29,-1.00
8399.00,-7.96,5.42,-2.72,0.03,-1.50,1.28,-27.20,9.55,4.29,-1.00
8413.00,-7.96,5.42,-2.72,0.03,-1.50,1.28,-27.20,9.55,4.29,-1.00
8425.00,-7.87,5.22,-2.68,-0.02,-1.53,1.32,-27.20,9.55,4.29,-1.00
8437.00,-8.63,5.78,-2.29,-0.07,-1.54,1.28,-27.20,9.55,4.29,-1.00
8449.00,-8.63,5.78,-2.29,-0.07,-1.54,1.28,-27.20,9.55,4.29,-1.00
8463.00,-8.25,5.31,-1.59,-0.12,-1.48,1.17,-27.62,13.68,4.96,-1.00
8475.00,-8.25,5.31,-1.59,-0.12,-1.48,1.17,-27.62,13.68,4.96,-1.00
8487.00,-8.07,4.97,-2.50,-0.12,-1.38,1.11,-27.62,13.68,4.96,-1.00
8499.00,-7.95,5.10,-2.48,-0.14,-1.36,1.07,-27.62,13.68,4.96,-1.00
8513.00,-7.95,5.10,-2.48,-0.14,-1.36,1.07,-27.62,13.68,4.96,-1.00
8602.00,-8.12,5.50,-2.77,-0.05,-1.35,1.06,-29.02,12.24,6.74,-1.00
8691.00,-7.95,5.44,-2.32,-0.27,-1.41,0.89,-29.02,12.24,6.74,-1.00
8780.00,-7.92,5.22,-1.63,-0.27,-1.33,0.84,-28.46,14.40,8.53,-1.00
8794.00,-7.92,5.22,-1.63,-0.27,-1.33,0.84,-28.46,14.40,8.53,-1.00
8806.00,-8.49,6.05,-2.33,-0.12,-1.22,0.91,-28.46,14.40,8.53,-1.00
8818.00,-8.53,6.11,-1.78,-0.04,-1.18,0.81,-28.46,14.40,8.53,-1.00
8830.00,-8.53,6.11,-1.78,-0.04,-1.18,0.81,-28.46,14.40,8.53,-1.00
8844.00,-8.32,5.81,-1.94,0.01,-1.12,0.65,-28.18,15.84,8.08,-1.00
8856.00,-7.72,5.11,-2.55,0.04,-1.04,0.60,-28.18,15.84,8.08,-1.00
8868.00,-7.72,5.11,-2.55,0.04,-1.04,0.60,-28.18,15.84,8.08,-1.00
8880.00,-8.15,5.52,-2.42,0.14,-0.99,0.66,-28.18,15.84,8.08,-1.00
8894.00,-8.15,5.52,-2.42,0.14,-0.99,0.66,-28.18,15.84,8.08,-1.00
8906.00,-7.84,5.76,-2.67,0.21,-0.95,0.63,-28.18,15.84,8.08,-1.00
8919.00,-8.22,5.72,-2.20,0.20,-0.98,0.59,-28.18,15.84,8.08,-1.00
8930.00,-8.22,5.72,-2.20,0.20,-0.98,0.59,-28.18,15.84,8.08,-1.00
8944.00,-8.34,4.89,-1.40,0.27,-0.95,0.50,-28.18,15.84,8.08,-1.00
8956.00,-8.00,4.82,-2.10,0.33,-0.82,0.47,-28.18,15.84,8.08,-1.00
8968.00,-8.00,4.82,-2.10,0.33,-0.82,0.47,-28.88,10.63,8.30,-1.00
8982.00,-7.22,4.23,-3.32,0.32,-0.68,0.57,-28.88,10.63,8.30,-1.00
8994.00,-7.22,4.23,-3.32,0.32,-0.68,0.57,-28.88,10.63,8.30,-1.00
9006.00,-7.88,4.88,-2.92,0.12,-0.74,0.83,-28.88,10.63,8.30,-1.00
9018.00,-8.11,5.05,-2.65,0.11,-0.77,0.92,-28.88,10.63,8.30,-1.00
9032.00,-8.11,5.05,-2.65,0.11,-0.77,0.92,-28.88,10.63,8.30,-1.00
9044.00,-8.02,4.53,-3.06,0.18,-0.72,0.93,-28.88,10.63,8.30,-1.00
9056.00,-8.02,4.53,-3.06,0.18,-0.72,0.93,-28.88,10.63,8.30,-1.00
9068.00,-8.10,4.95,-2.76,0.15,-0.67,0.99,-28.88,10.63,8.30,-1.00
9083.00,-8.23,5.72,-3.91,0.01,-0.68,1.02,-27.06,10.09,1.83,-1.00
9094.00,-8.23,5.72,-3.91,0.01,-0.68,1.02,-27.06,10.09,1.83,-1.00
9106.00,-8.14,5.09,-3.14,0.02,-0.89,0.98,-27.06,10.09,1.83,-1.00
9118.00,-7.92,4.64,-2.62,0.10,-0.94,0.99,-27.06,10.09,1.83,-1.00
9132.00,-7.92,4.64,-2.62,0.10,-0.94,0.99,-27.06,10.09,1.83,-1.00
9144.00,-7.89,5.03,-3.22,0.08,-0.92,1.12,-27.06,10.09,1.83,-1.00
9156.00,-7.89,5.03,-3.22,0.08,-0.92,1.12,-27.06,10.09,1.83,-1.00
9168.00,-8.30,5.50,-3.87,0.03,-0.97,1.20,-27.06,10.09,1.83,-1.00
9182.00,-7.29,4.42,-3.52,-0.05,-1.12,1.19,-27.06,10.09,1.83,-1.00
9194.00,-7.29,4.42,-3.52,-0.05,-1.12,1.19,-27.06,10.09,1.83,-1.00
9206.00,-7.36,4.73,-3.46,-0.13,-1.21,1.41,-27.06,10.09,1.83,-1.00
9218.00,-7.48,6.09,-3.71,-0.26,-1.33,1.61,-26.22,11.53,0.94,-1.00
9233.00,-7.48,6.09,-3.71,-0.26,-1.33,1.61,-26.22,11.53,0.94,-1.00
9244.00,-7.90,6.07,-4.03,-0.20,-1.47,1.53,-26.22,11.53,0.94,-1.00
9256.00,-7.90,6.07,-4.03,-0.20,-1.47,1.53,-26.22,11.53,0.94,-1.00
9268.00,-8.22,5.70,-3.26,-0.06,-1.64,1.39,-26.22,11.53,0.94,-1.00
9282.00,-8.54,5.73,-2.92,0.02,-1.68,1.32,-26.22,11.53,0.94,-1.00
9294.00,-8.54,5.73,-2.92,0.02,-1.68,1.32,-26.22,11.53,0.94,-1.00
9306.00,-8.24,5.83,-3.08,0.09,-1.70,1.23,-26.22,11.53,0.94,-1.00
9320.00,-8.39,5.80,-2.89,0.08,-1.64,1.20,-26.22,11.53,0.94,-1.00
9332.00,-8.39,5.80,-2.89,0.08,-1.64,1.20,-26.22,11.53,0.94,-1.00
9344.00,-7.87,5.46,-2.22,0.01,-1.62,1.23,-27.20,13.14,3.39,-1.00
9357.00,-7.87,5.46,-2.22,0.01,-1.62,1.23,-27.20,13.14,3.39,-1.00
9370.00,-8.27,5.79,-2.34,0.00,-1.61,1.26,-27.20,13.14,3.39,-1.00
9382.00,-8.36,5.78,-2.31,0.03,-1.56,1.21,-27.20,13.14,3.39,-1.00
9394.00,-8.36,5.78,-2.31,0.03,-1.56,1.21,-27.20,13.14,3.39,-1.00
9406.00,-8.20,5.77,-2.52,0.02,-1.52,1.14,-27.20,13.14,3.39,-1.00
9420.00,-7.94,5.83,-2.75,-0.02,-1.50,1.08,-27.20,13.14,3.39,-1.00
9432.00,-7.94,5.83,-2.75,-0.02,-1.50,1.08,-27.20,13.14,3.39,-1.00
9444.00,-8.10,6.01,-2.41,-0.01,-1.48,1.04,-27.20,13.14,3.39,-1.00
9456.00,-8.10,6.01,-2.41,-0.01,-1.48,1.04,-27.20,13.14,3.39,-1.00
9470.00,-7.77,5.83,-2.99,0.01,-1.44,0.97,-27.76,14.94,7.41,-1.00
9482.00,-8.18,5.86,-2.18,-0.01,-1.49,0.93,-27.76,14.94,7.41,-1.00
9494.00,-8.18,5.86,-2.18,-0.01,-1.49,0.93,-27.76,14.94,7.41,-1.00
9508.00,-8.03,5.35,-2.22,0.03,-1.43,0.90,-27.76,14.94,7.41,-1.00
9521.00,-8.13,5.59,-2.39,-0.08,-1.44,0.92,-27.76,14.94,7.41,-1.00
9533.00,-8.13,5.59,-2.39,-0.08,-1.44,0.92,-27.76,14.94,7.41,-1.00
9545.00,-7.93,5.52,-1.86,-0.17,-1.47,0.90,-27.76,14.94,7.41,-1.00
9557.00,-8.28,5.56,-2.07,-0.13,-1.45,0.90,-27.76,14.94,7.41,-1.00
9571.00,-8.28,5.56,-2.07,-0.13,-1.45,0.90,-27.76,14.94,7.41,-1.00
9583.00,-8.54,5.72,-2.18,-0.12,-1.45,0.91,-28.18,15.12,7.19,-1.00
9595.00,-8.54,5.72,-2.18,-0.12,-1.45,0.91,-28.18,15.12,7.19,-1.00
9607.00,-8.25,5.53,-1.88,-0.24,-1.49,0.81,-28.18,15.12,7.19,-1.00
9621.00,-8.39,5.81,-1.69,-0.26,-1.47,0.73,-28.18,15.12,7.19,-1.00
9633.00,-8.39,5.81,-1.69,-0.26,-1.47,0.73,-28.18,15.12,7.19,-1.00
9645.00,-8.44,5.22,-1.50,-0.17,-1.44,0.65,-28.18,15.12,7.19,-1.00
9660.00,-8.49,4.88,-1.73,-0.10,-1.42,0.61,-28.18,15.12,7.19,-1.00
9672.00,-8.49,4.88,-1.73,-0.10,-1.42,0.61,-28.18,15.12,7.19,-1.00
9684.00,-8.50,5.21,-1.81,-0.04,-1.34,0.63,-28.18,15.12,7.19,-1.00
9696.00,-8.50,5.21,-1.81,-0.04,-1.34,0.63,-28.18,15.12,7.19,-1.00
9710.00,-7.96,5.27,-2.32,-0.02,-1.19,0.66,-28.18,15.12,7.19,-1.00
9722.00,-7.33,5.38,-1.99,0.07,-1.09,0.71,-29.16,12.42,9.64,-1.00
9734.00,-7.33,5.38,-1.99,0.07,-1.09,0.71,-29.16,12.42,9.64,-1.00
9746.00,-7.92,6.12,-3.10,0.26,-0.93,0.85,-29.16,12.42,9.64,-1.00
9760.00,-8.04,6.44,-2.18,0.23,-0.94,0.87,-29.16,12.42,9.64,-1.00
9772.00,-8.04,6.44,-2.18,0.23,-0.94,0.87,-29.16,12.42,9.64,-1.00
9784.00,-8.63,6.29,-2.46,0.33,-0.92,0.66,-29.16,12.42,9.64,-1.00
9796.00,-8.63,6.29,-2.46,0.33,-0.92,0.66,-29.16,12.42,9.64,-1.00
9810.00,-8.31,5.64,-2.34,0.33,-0.83,0.43,-29.16,12.42,9.64,-1.00
9822.00,-7.68,4.39,-3.01,0.21,-0.75,0.41,-29.16,12.42,9.64,-1.00
9834.00,-7.68,4.39,-3.01,0.21,-0.75,0.41,-29.16,12.42,9.64,-1.00
9846.00,-7.38,4.89,-2.32,0.08,-0.79,0.61,-27.34,11.53,5.85,-1.00
9860.00,-7.79,4.51,-2.45,0.11,-0.79,0.82,-27.34,11.53,5.85,-1.00
9872.00,-7.79,4.51,-2.45,0.11,-0.79,0.82,-27.34,11.53,5.85,-1.00
9884.00,-7.91,5.44,-2.63,-0.01,-0.79,0.97,-27.34,11.53,5.85,-1.00
9896.00,-7.91,5.44,-2.63,-0.01,-0.79,0.97,-27.34,11.53,5.85,-1.00
9910.00,-8.07,5.33,-2.89,0.06,-0.82,1.02,-27.34,11.53,5.85,-1.00
9922.00,-8.07,5.33,-2.62,0.10,-0.92,1.06,-27.34,11.53,5.85,-1.00
9934.00,-8.07,5.33,-2.62,0.10,-0.92,1.06,-27.34,11.53,5.85,-1.00
9948.00,-8.00,4.90,-2.25,0.19,-0.93,1.12,-27.34,11.53,5.85,-1.00
9960.00,-7.89,4.88,-2.67,0.16,-0.89,1.26,-28.04,9.91,3.39,-1.00
9972.00,-7.89,4.88,-2.67,0.16,-0.89,1.26,-28.04,9.91,3.39,-1.00
9984.00,-7.77,5.02,-3.25,0.06,-0.94,1.35,-28.04,9.91,3.39,-1.00
9998.00,-7.81,5.26,-3.16,-0.05,-1.05,1.43,-28.04,9.91,3.39,-1.00
10010.00,-7.81,5.26,-3.16,-0.05,-1.05,1.43,-28.04,9.91,3.39,-1.00
10022.00,-7.62,5.52,-3.40,-0.09,-1.14,1.48,-28.04,9.91,3.39,-1.00
10034.00,-7.62,5.52,-3.40,-0.09,-1.14,1.48,-28.04,9.91,3.39,-1.00
10048.00,-7.99,6.58,-3.00,-0.16,-1.27,1.51,-28.04,9.91,3.39,-1.00
10060.00,-7.34,6.27,-3.52,-0.15,-1.38,1.39,-28.04,9.91,3.39,-1.00
10072.00,-7.34,6.27,-3.52,-0.15,-1.38,1.39,-28.04,9.91,3.39,-1.00
10084.00,-7.75,5.85,-3.32,-0.09,-1.52,1.29,-28.04,9.91,3.39,-1.00
10099.00,-7.55,5.29,-2.76,0.03,-1.58,1.26,-28.04,13.86,2.50,-1.00
10110.00,-7.55,5.29,-2.76,0.03,-1.58,1.26,-28.04,13.86,2.50,-1.00
10122.00,-7.89,5.58,-2.28,-0.00,-1.62,1.31,-28.04,13.86,2.50,-1.00
10134.00,-7.89,5.58,-2.28,-0.00,-1.62,1.31,-28.04,13.86,2.50,-1.00
10148.00,-8.06,5.66,-2.78,-0.09,-1.61,1.29,-28.04,13.86,2.50,-1.00
10160.00,-8.44,6.36,-2.32,-0.14,-1.63,1.28,-28.04,13.86,2.50,-1.00
10172.00,-8.44,6.36,-2.32,-0.14,-1.63,1.28,-28.04,13.86,2.50,-1.00
10184.00,-8.09,5.87,-3.00,-0.10,-1.60,1.24,-28.04,13.86,2.50,-1.00
10198.00,-8.45,6.22,-2.13,-0.16,-1.66,1.21,-28.04,13.86,2.50,-1.00
10210.00,-8.45,6.22,-2.13,-0.16,-1.66,1.21,-28.04,13.86,2.50,-1.00
10222.00,-8.01,5.85,-2.73,-0.09,-1.58,1.12,-28.60,16.74,7.41,-1.00
10236.00,-8.01,5.85,-2.73,-0.09,-1.58,1.12,-28.60,16.74,7.41,-1.00
10248.00,-7.62,6.10,-2.40,-0.17,-1.56,1.07,-28.60,16.74,7.41,-1.00
10260.00,-7.97,6.29,-2.97,-0.16,-1.58,1.05,-28.60,16.74,7.41,-1.00
10272.00,-7.97,6.29,-2.97,-0.16,-1.58,1.05,-28.60,16.74,7.41,-1.00
10286.00,-7.74,6.00,-2.07,-0.14,-1.63,0.99,-28.60,16.74,7.41,-1.00
10298.00,-7.83,5.81,-1.93,-0.08,-1.55,0.93,-28.60,16.74,7.41,-1.00
10310.00,-7.83,5.81,-1.93,-0.08,-1.55,0.93,-28.60,16.74,7.41,-1.00
10322.00,-7.95,5.97,-2.10,-0.02,-1.48,0.94,-28.60,16.74,7.41,-1.00
10336.00,-7.95,5.97,-2.10,-0.02,-1.48,0.94,-28.60,16.74,7.41,-1.00
10348.00,-8.24,6.16,-1.89,0.04,-1.47,0.94,-27.90,16.92,9.87,-1.00
10360.00,-8.23,6.02,-1.55,0.06,-1.48,0.88,-27.90,16.92,9.87,-1.00
10372.00,-8.23,6.02,-1.55,0.06,-1.48,0.88,-27.90,16.92,9.87,-1.00
10386.00,-8.13,5.78,-1.66,0.04,-1.43,0.82,-27.90,16.92,9.87,-1.00
10398.00,-8.02,6.22,-1.26,-0.08,-1.44,0.78,-27.90,16.92,9.87,-1.00
10410.00,-8.02,6.22,-1.26,-0.08,-1.44,0.78,-27.90,16.92,9.87,-1.00
10422.00,-8.29,5.86,-1.85,-0.04,-1.33,0.73,-27.90,16.92,9.87,-1.00
10437.00,-8.29,5.86,-1.85,-0.04,-1.33,0.73,-27.90,16.92,9.87,-1.00
10448.00,-8.61,5.88,-1.78,-0.09,-1.34,0.67,-27.90,16.92,9.87,-1.00
10460.00,-8.35,5.50,-1.84,-0.11,-1.37,0.57,-28.18,16.20,10.76,-1.00
10474.00,-8.35,5.50,-1.84,-0.11,-1.37,0.57,-28.18,16.20,10.76,-1.00
10486.00,-8.41,5.34,-1.70,-0.09,-1.33,0.56,-28.18,16.20,10.76,-1.00
10498.00,-8.61,5.66,-1.12,-0.20,-1.33,0.51,-28.18,16.20,10.76,-1.00
10510.00,-8.61,5.66,-1.12,-0.20,-1.33,0.51,-28.18,16.20,10.76,-1.00
10524.00,-8.67,5.66,-1.98,-0.17,-1.24,0.41,-28.18,16.20,10.76,-1.00
10536.00,-8.67,5.66,-1.98,-0.17,-1.24,0.41,-28.18,16.20,10.76,-1.00
10548.00,-8.33,5.55,-1.18,-0.10,-1.17,0.32,-28.18,16.20,10.76,-1.00
10560.00,-7.92,4.98,-1.24,0.07,-0.99,0.32,-28.18,16.20,10.76,-1.00
10574.00,-7.92,4.98,-1.24,0.07,-0.99,0.32,-28.18,16.20,10.76,-1.00
10586.00,-7.52,4.82,-2.43,0.20,-0.80,0.45,-28.18,16.20,10.76,-1.00
10598.00,-7.97,5.40,-2.43,0.26,-0.76,0.59,-28.74,13.32,8.08,-1.00
10612.00,-7.97,5.40,-2.43,0.26,-0.76,0.59,-28.74,13.32,8.08,-1.00
10624.00,-8.31,5.77,-2.53,0.21,-0.78,0.61,-28.74,13.32,8.08,-1.00
10636.00,-8.31,5.77,-2.53,0.21,-0.78,0.61,-28.74,13.32,8.08,-1.00
10648.00,-8.46,5.46,-2.13,0.24,-0.74,0.56,-28.74,13.32,8.08,-1.00
10663.00,-7.36,4.57,-1.97,0.28,-0.60,0.51,-28.74,13.32,8.08,-1.00
10675.00,-7.36,4.57,-1.97,0.28,-0.60,0.51,-28.74,13.32,8.08,-1.00
10687.00,-7.26,4.23,-1.90,0.06,-0.56,0.78,-28.74,13.32,8.08,-1.00
10700.00,-7.68,4.96,-2.76,-0.06,-0.53,1.09,-28.74,13.32,8.08,-1.00
10714.00,-7.68,4.96,-2.76,-0.06,-0.53,1.09,-28.74,13.32,8.08,-1.00
10726.00,-8.10,5.60,-2.81,-0.03,-0.59,1.27,-27.34,10.81,4.96,-1.00
10738.00,-7.93,5.84,-2.54,0.01,-0.71,1.31,-27.34,10.81,4.96,-1.00
10750.00,-7.93,5.84,-2.54,0.01,-0.71,1.31,-27.34,10.81,4.96,-1.00
10764.00,-7.30,4.90,-2.66,0.08,-0.77,1.31,-27.34,10.81,4.96,-1.00
10776.00,-7.30,4.90,-2.66,0.08,-0.77,1.31,-27.34,10.81,4.96,-1.00
10788.00,-7.69,5.24,-3.11,-0.01,-0.86,1.43,-27.34,10.81,4.96,-1.00
10800.00,-7.14,5.85,-3.41,-0.21,-1.05,1.57,-27.34,10.81,4.96,-1.00
10814.00,-7.14,5.85,-3.41,-0.21,-1.05,1.57,-27.34,10.81,4.96,-1.00
10826.00,-7.85,6.14,-3.29,-0.29,-1.28,1.62,-27.34,10.81,4.96,-1.00
10838.00,-7.85,6.14,-3.29,-0.29,-1.28,1.62,-27.34,10.81,4.96,-1.00
10853.00,-7.89,6.23,-3.09,-0.28,-1.49,1.55,-26.92,13.86,2.95,-1.00
10864.00,-8.25,5.98,-2.76,-0.20,-1.63,1.47,-26.92,13.86,2.95,-1.00
10876.00,-8.25,5.98,-2.76,-0.20,-1.63,1.47,-26.92,13.86,2.95,-1.00
10888.00,-8.62,6.13,-2.21,-0.09,-1.68,1.37,-26.92,13.86,2.95,-1.00
10902.00,-8.00,5.73,-2.03,0.02,-1.66,1.28,-26.92,13.86,2.95,-1.00
10990.00,-7.60,6.03,-2.10,-0.12,-1.58,1.19,-28.60,17.10,7.41,-1.00
11079.00,-7.93,6.35,-1.94,-0.11,-1.50,0.98,-28.60,17.10,7.41,-1.00
11167.00,-8.10,6.30,-1.39,0.05,-1.42,0.76,-28.74,16.92,9.87,-1.00
11181.00,-8.24,6.28,-1.54,-0.08,-1.43,0.68,-28.74,16.92,9.87,-1.00
11192.00,-8.24,6.28,-1.54,-0.08,-1.43,0.68,-28.74,16.92,9.87,-1.00
11204.00,-7.75,5.52,-1.25,-0.16,-1.50,0.60,-28.74,16.92,9.87,-1.00
11216.00,-7.75,5.52,-1.25,-0.16,-1.50,0.60,-28.74,16.92,9.87,-1.00
11230.00,-8.28,5.53,-1.21,-0.10,-1.46,0.65,-28.88,15.66,11.87,-1.00
11242.00,-8.82,5.77,-1.02,-0.09,-1.44,0.62,-28.88,15.66,11.87,-1.00
11254.00,-8.82,5.77,-1.02,-0.09,-1.44,0.62,-28.88,15.66,11.87,-1.00
11268.00,-8.70,5.73,-1.06,-0.02,-1.35,0.52,-28.88,15.66,11.87,-1.00
11280.00,-8.67,6.12,-0.87,-0.09,-1.27,0.43,-28.88,15.66,11.87,-1.00
11292.00,-8.67,6.12,-0.87,-0.09,-1.27,0.43,-28.88,15.66,11.87,-1.00
11304.00,-7.98,5.81,-1.56,-0.05,-1.11,0.33,-28.88,15.66,11.87,-1.00
11318.00,-7.98,5.81,-1.56,-0.05,-1.11,0.33,-28.88,15.66,11.87,-1.00
11330.00,-8.26,5.60,-1.72,0.18,-0.98,0.31,-28.88,15.66,11.87,-1.00
11342.00,-7.96,4.73,-1.39,0.39,-0.92,0.29,-28.74,12.96,10.31,-1.00
11355.00,-7.96,4.73,-1.39,0.39,-0.92,0.29,-28.74,12.96,10.31,-1.00
11368.00,-8.65,4.72,-1.27,0.44,-0.83,0.37,-28.74,12.96,10.31,-1.00
11380.00,-8.54,5.17,-1.53,0.40,-0.65,0.42,-28.74,12.96,10.31,-1.00
11392.00,-8.54,5.17,-1.53,0.40,-0.65,0.42,-28.74,12.96,10.31,-1.00
11404.00,-7.82,4.94,-2.08,0.48,-0.37,0.46,-28.74,12.96,10.31,-1.00
11418.00,-7.82,4.94,-2.08,0.48,-0.37,0.46,-28.74,12.96,10.31,-1.00
11430.00,-7.11,5.11,-3.90,0.44,-0.30,0.56,-28.74,12.96,10.31,-1.00
11442.00,-7.68,5.04,-2.79,0.24,-0.57,0.75,-28.74,12.96,10.31,-1.00
11456.00,-7.68,5.04,-2.79,0.24,-0.57,0.75,-28.74,12.96,10.31,-1.00
11468.00,-7.76,3.95,-2.30,0.13,-0.70,0.86,-29.30,10.09,6.74,-1.00
11480.00,-8.26,4.12,-1.87,0.03,-0.63,1.06,-29.30,10.09,6.74,-1.00
11492.00,-8.26,4.12,-1.87,0.03,-0.63,1.06,-29.30,10.09,6.74,-1.00
11506.00,-8.08,4.74,-2.51,-0.09,-0.49,1.23,-29.30,10.09,6.74,-1.00
11518.00,-8.08,4.74,-2.51,-0.09,-0.49,1.23,-29.30,10.09,6.74,-1.00
11530.00,-7.64,5.09,-3.47,-0.09,-0.55,1.39,-29.30,10.09,6.74,-1.00
11542.00,-8.26,5.12,-2.79,0.01,-0.73,1.49,-29.30,10.09,6.74,-1.00
11556.00,-8.26,5.12,-2.79,0.01,-0.73,1.49,-29.30,10.09,6.74,-1.00
11568.00,-8.06,5.70,-2.64,-0.12,-0.82,1.48,-29.30,10.09,6.74,-1.00
11580.00,-7.83,6.52,-3.24,-0.19,-0.86,1.42,-29.30,10.09,6.74,-1.00
11592.00,-7.83,6.52,-3.24,-0.19,-0.86,1.42,-29.30,10.09,6.74,-1.00
11607.00,-7.20,5.74,-3.61,-0.25,-1.01,1.32,-26.08,13.50,2.05,-1.00
11619.00,-7.51,5.30,-4.09,-0.43,-1.27,1.40,-26.08,13.50,2.05,-1.00
11631.00,-7.51,5.30,-4.09,-0.43,-1.27,1.40,-26.08,13.50,2.05,-1.00
11643.00,-7.88,5.94,-3.09,-0.51,-1.57,1.50,-26.08,13.50,2.05,-1.00
11657.00,-7.88,5.94,-3.09,-0.51,-1.57,1.50,-26.08,13.50,2.05,-1.00
11669.00,-8.28,6.10,-2.77,-0.34,-1.68,1.44,-26.08,13.50,2.05,-1.00
11681.00,-7.82,5.72,-2.28,-0.14,-1.75,1.36,-26.08,13.50,2.05,-1.00
11695.00,-7.82,5.72,-2.28,-0.14,-1.75,1.36,-26.08,13.50,2.05,-1.00
11707.00,-8.16,5.88,-1.25,-0.13,-1.77,1.31,-26.08,13.50,2.05,-1.00
11719.00,-8.16,5.88,-1.25,-0.13,-1.77,1.31,-26.08,13.50,2.05,-1.00
11731.00,-8.76,6.66,-1.59,-0.08,-1.67,1.24,-29.44,15.66,5.18,-1.00
11745.00,-8.19,5.70,-1.74,0.15,-1.58,1.12,-29.44,15.66,5.18,-1.00
11758.00,-8.19,5.70,-1.74,0.15,-1.58,1.12,-29.44,15.66,5.18,-1.00
11770.00,-8.48,5.37,-2.23,0.11,-1.57,1.13,-29.44,15.66,5.18,-1.00
11782.00,-8.23,5.82,-2.04,-0.00,-1.58,1.11,-29.44,15.66,5.18,-1.00
11796.00,-8.23,5.82,-2.04,-0.00,-1.58,1.11,-29.44,15.66,5.18,-1.00
11808.00,-8.19,5.93,-2.30,-0.03,-1.56,1.07,-29.44,15.66,5.18,-1.00
11820.00,-8.15,5.76,-1.95,-0.07,-1.56,0.97,-29.44,15.66,5.18,-1.00
11832.00,-8.15,5.76,-1.95,-0.07,-1.56,0.97,-29.44,15.66,5.18,-1.00
11846.00,-8.28,5.66,-1.48,-0.14,-1.54,0.91,-28.88,17.10,7.86,-1.00
11858.00,-8.28,5.66,-1.48,-0.14,-1.54,0.91,-28.88,17.10,7.86,-1.00
11870.00,-8.20,5.89,-1.30,-0.19,-1.50,0.92,-28.88,17.10,7.86,-1.00
11885.00,-8.27,6.14,-1.37,-0.08,-1.38,0.92,-28.88,17.10,7.86,-1.00
11896.00,-8.27,6.14,-1.37,-0.08,-1.38,0.92,-28.88,17.10,7.86,-1.00
11908.00,-8.07,6.00,-2.17,-0.09,-1.32,0.87,-28.88,17.10,7.86,-1.00
11920.00,-8.15,5.87,-1.88,-0.11,-1.36,0.86,-28.88,17.10,7.86,-1.00
11934.00,-8.15,5.87,-1.88,-0.11,-1.36,0.86,-28.88,17.10,7.86,-1.00
11946.00,-8.24,5.78,-1.65,-0.07,-1.36,0.82,-28.88,17.10,7.86,-1.00
11958.00,-8.24,5.78,-1.65,-0.07,-1.36,0.82,-28.88,17.10,7.86,-1.00
11970.00,-8.37,5.77,-1.41,-0.08,-1.34,0.74,-28.88,17.10,7.86,-1.00
11984.00,-8.39,6.09,-1.32,-0.10,-1.27,0.69,-28.88,17.81,8.30,-1.00
11996.00,-8.39,6.09,-1.32,-0.10,-1.27,0.69,-28.88,17.81,8.30,-1.00
12008.00,-7.99,5.52,-2.39,-0.09,-1.17,0.62,-28.88,17.81,8.30,-1.00
12020.00,-8.67,5.71,-1.58,-0.00,-1.14,0.59,-28.88,17.81,8.30,-1.00
12035.00,-8.67,5.71,-1.58,-0.00,-1.14,0.59,-28.88,17.81,8.30,-1.00
12046.00,-8.12,5.51,-1.60,0.01,-1.10,0.48,-28.88,17.81,8.30,-1.00
12058.00,-8.12,5.51,-1.60,0.01,-1.10,0.48,-28.88,17.81,8.30,-1.00
12070.00,-7.65,4.91,-1.75,0.12,-1.01,0.42,-28.88,17.81,8.30,-1.00
12084.00,-7.65,5.44,-1.89,0.25,-0.87,0.52,-28.88,17.81,8.30,-1.00
12096.00,-7.65,5.44,-1.89,0.25,-0.87,0.52,-28.88,17.81,8.30,-1.00
12108.00,-7.62,6.06,-2.71,0.31,-0.79,0.65,-29.58,13.32,5.40,-1.00
12122.00,-8.16,6.16,-2.22,0.36,-0.75,0.73,-29.58,13.32,5.40,-1.00
12134.00,-8.16,6.16,-2.22,0.36,-0.75,0.73,-29.58,13.32,5.40,-1.00
12146.00,-8.48,5.79,-1.57,0.28,-0.70,0.64,-29.58,13.32,5.40,-1.00
12158.00,-8.48,5.79,-1.57,0.28,-0.70,0.64,-29.58,13.32,5.40,-1.00
12172.00,-7.86,4.73,-1.99,0.24,-0.50,0.57,-29.58,13.32,5.40,-1.00
12184.00,-7.73,4.72,-1.94,0.13,-0.42,0.69,-29.58,13.32,5.40,-1.00
12196.00,-7.73,4.72,-1.94,0.13,-0.42,0.69,-29.58,13.32,5.40,-1.00
12208.00,-7.48,4.69,-2.83,-0.09,-0.34,0.87,-29.58,13.32,5.40,-1.00
12223.00,-8.02,5.55,-3.15,-0.21,-0.37,1.05,-28.18,12.60,3.17,-1.00
12234.00,-8.02,5.55,-3.15,-0.21,-0.37,1.05,-28.18,12.60,3.17,-1.00
12246.00,-7.48,6.13,-3.50,-0.21,-0.55,1.12,-28.18,12.60,3.17,-1.00
12258.00,-7.48,6.13,-3.50,-0.21,-0.55,1.12,-28.18,12.60,3.17,-1.00
12272.00,-7.37,5.60,-3.13,-0.18,-0.84,1.12,-28.18,12.60,3.17,-1.00
12284.00,-8.19,5.37,-3.41,-0.08,-0.99,1.18,-28.18,12.60,3.17,-1.00
12296.00,-8.19,5.37,-3.41,-0.08,-0.99,1.18,-28.18,12.60,3.17,-1.00
12310.00,-7.55,5.46,-3.12,-0.10,-1.18,1.19,-28.18,12.60,3.17,-1.00
12322.00,-7.78,5.05,-3.35,-0.13,-1.32,1.26,-28.18,12.60,3.17,-1.00
12334.00,-7.78,5.05,-3.35,-0.13,-1.32,1.26,-28.18,12.60,3.17,-1.00
12346.00,-7.89,5.06,-3.08,-0.20,-1.52,1.39,-29.16,14.94,0.27,-1.00
12360.00,-8.81,5.86,-2.63,-0.26,-1.69,1.51,-29.16,14.94,0.27,-1.00
12372.00,-8.81,5.86,-2.63,-0.26,-1.69,1.51,-29.16,14.94,0.27,-1.00
12384.00,-8.14,6.09,-2.31,-0.16,-1.68,1.46,-29.16,14.94,0.27,-1.00
12396.00,-8.14,6.09,-2.31,-0.16,-1.68,1.46,-29.16,14.94,0.27,-1.00
12410.00,-7.83,6.01,-2.13,-0.08,-1.69,1.38,-29.16,14.94,0.27,-1.00
12422.00,-7.78,5.85,-2.17,-0.09,-1.73,1.33,-29.16,14.94,0.27,-1.00
12434.00,-7.78,5.85,-2.17,-0.09,-1.73,1.33,-29.16,14.94,0.27,-1.00
12446.00,-8.71,6.57,-1.93,-0.09,-1.73,1.31,-29.16,14.94,0.27,-1.00
12460.00,-7.94,6.44,-2.08,-0.01,-1.67,1.19,-29.16,14.94,0.27,-1.00
12472.00,-7.94,6.44,-2.08,-0.01,-1.67,1.19,-29.16,14.94,0.27,-1.00
12484.00,-8.00,5.64,-1.52,-0.01,-1.69,1.13,-28.88,16.38,3.39,-1.00
12496.00,-8.00,5.64,-1.52,-0.01,-1.69,1.13,-28.88,16.38,3.39,-1.00
12510.00,-8.39,6.19,-2.12,-0.07,-1.73,1.13,-28.88,16.38,3.39,-1.00
12522.00,-7.91,6.02,-2.63,0.02,-1.69,1.04,-28.88,16.38,3.39,-1.00
12534.00,-7.91,6.02,-2.63,0.02,-1.69,1.04,-28.88,16.38,3.39,-1.00
12548.00,-8.11,5.92,-2.01,0.02,-1.72,0.99,-28.88,16.38,3.39,-1.00
12560.00,-8.14,5.93,-1.53,-0.09,-1.71,0.97,-28.88,16.38,3.39,-1.00
12572.00,-8.14,5.93,-1.53,-0.09,-1.71,0.97,-28.88,16.38,3.39,-1.00
12584.00,-8.10,5.80,-1.57,-0.11,-1.65,0.92,-28.88,16.38,3.39,-1.00
12598.00,-8.10,5.80,-1.57,-0.11,-1.65,0.92,-28.88,16.38,3.39,-1.00
12688.00,-8.24,5.53,-0.82,-0.17,-1.54,0.56,-29.16,17.81,7.41,-1.00
12776.00,-8.47,5.49,-0.71,0.00,-1.05,0.44,-30.13,15.12,11.65,-1.00
12866.00,-8.08,5.02,-1.92,0.31,-0.55,0.67,-29.16,13.86,7.41,-1.00
12880.00,-8.08,5.02,-1.92,0.31,-0.55,0.67,-29.16,13.86,7.41,-1.00
12892.00,-8.07,4.72,-2.74,0.24,-0.39,0.71,-29.16,13.86,7.41,-1.00
12904.00,-7.96,4.49,-2.58,0.06,-0.45,0.79,-29.16,13.86,7.41,-1.00
12916.00,-7.96,4.49,-2.58,0.06,-0.45,0.79,-29.16,13.86,7.41,-1.00
12930.00,-8.06,4.38,-2.53,0.07,-0.44,0.90,-29.16,13.86,7.41,-1.00
12942.00,-7.99,5.15,-2.18,0.05,-0.44,1.02,-29.16,13.86,7.41,-1.00
12954.00,-7.99,5.15,-2.18,0.05,-0.44,1.02,-29.16,13.86,7.41,-1.00
12968.00,-7.82,5.60,-3.08,0.05,-0.45,1.08,-29.16,13.86,7.41,-1.00
12980.00,-7.82,5.60,-3.08,0.05,-0.45,1.08,-29.16,13.86,7.41,-1.00
12992.00,-8.19,5.57,-3.68,-0.03,-0.62,1.10,-28.18,12.96,1.83,-1.00
13004.00,-7.73,4.93,-2.83,-0.01,-0.86,1.08,-28.18,12.96,1.83,-1.00
13018.00,-7.73,4.93,-2.83,-0.01,-0.86,1.08,-28.18,12.96,1.83,-1.00
13030.00,-8.28,5.08,-2.72,0.03,-0.96,1.13,-28.18,12.96,1.83,-1.00
13042.00,-7.83,5.28,-3.11,0.06,-1.06,1.19,-28.18,12.96,1.83,-1.00
13054.00,-7.83,5.28,-3.11,0.06,-1.06,1.19,-28.18,12.96,1.83,-1.00
13068.00,-8.14,5.30,-2.83,0.02,-1.19,1.25,-28.18,12.96,1.83,-1.00
13080.00,-8.14,5.30,-2.83,0.02,-1.19,1.25,-28.18,12.96,1.83,-1.00
13092.00,-7.84,4.90,-2.94,-0.13,-1.33,1.32,-28.18,12.96,1.83,-1.00
13104.00,-7.50,5.42,-2.63,-0.17,-1.39,1.37,-28.18,13.68,1.38,-1.00
13118.00,-7.50,5.42,-2.63,-0.17,-1.39,1.37,-28.18,13.68,1.38,-1.00
13130.00,-8.37,6.58,-2.64,-0.17,-1.43,1.37,-28.18,13.68,1.38,-1.00
13142.00,-7.89,5.40,-3.07,-0.05,-1.44,1.27,-28.18,13.68,1.38,-1.00
13154.00,-7.89,5.40,-3.07,-0.05,-1.44,1.27,-28.18,13.68,1.38,-1.00
13168.00,-7.95,5.54,-2.22,-0.03,-1.50,1.25,-28.18,13.68,1.38,-1.00
13180.00,-7.95,5.54,-2.22,-0.03,-1.50,1.25,-28.18,13.68,1.38,-1.00
13192.00,-8.17,5.82,-2.21,0.06,-1.48,1.24,-28.18,13.68,1.38,-1.00
13206.00,-7.91,5.54,-2.40,0.03,-1.50,1.23,-28.18,13.68,1.38,-1.00
13218.00,-7.91,5.54,-2.40,0.03,-1.50,1.23,-28.18,13.68,1.38,-1.00
13230.00,-7.91,5.64,-2.20,0.02,-1.52,1.19,-28.60,15.66,2.50,-1.00
13242.00,-7.95,5.75,-1.72,0.01,-1.50,1.13,-28.60,15.66,2.50,-1.00
13257.00,-7.95,5.75,-1.72,0.01,-1.50,1.13,-28.60,15.66,2.50,-1.00
13268.00,-8.33,5.77,-2.37,-0.01,-1.47,1.11,-28.60,15.66,2.50,-1.00
13280.00,-8.33,5.77,-2.37,-0.01,-1.47,1.11,-28.60,15.66,2.50,-1.00
13292.00,-8.33,5.91,-1.92,-0.03,-1.47,1.09,-28.60,15.66,2.50,-1.00
13306.00,-7.39,5.44,-2.47,-0.02,-1.42,1.05,-28.60,15.66,2.50,-1.00
13318.00,-7.39,5.44,-2.47,-0.02,-1.42,1.05,-28.60,15.66,2.50,-1.00
13330.00,-7.95,5.62,-2.21,-0.07,-1.45,1.05,-28.60,15.66,2.50,-1.00
13342.00,-8.19,5.54,-1.56,-0.05,-1.45,1.02,-28.32,14.94,3.39,-1.00
13356.00,-8.19,5.54,-1.56,-0.05,-1.45,1.02,-28.32,14.94,3.39,-1.00
13368.00,-7.93,5.44,-1.81,-0.05,-1.43,1.06,-28.32,14.94,3.39,-1.00
13380.00,-7.93,5.44,-1.81,-0.05,-1.43,1.06,-28.32,14.94,3.39,-1.00
13392.00,-8.12,6.02,-1.74,-0.15,-1.45,1.07,-28.32,14.94,3.39,-1.00
13406.00,-7.93,5.49,-2.46,-0.16,-1.43,1.02,-28.32,14.94,3.39,-1.00
13418.00,-7.93,5.49,-2.46,-0.16,-1.43,1.02,-28.32,14.94,3.39,-1.00
13430.00,-8.27,5.97,-1.27,-0.20,-1.52,1.02,-28.32,14.94,3.39,-1.00
13445.00,-7.93,5.61,-1.30,-0.05,-1.45,0.99,-28.32,14.94,3.39,-1.00
13456.00,-7.93,5.61,-1.30,-0.05,-1.45,0.99,-28.32,14.94,3.39,-1.00
13468.00,-8.10,5.56,-1.65,-0.01,-1.41,0.99,-28.32,14.94,3.39,-1.00
13480.00,-8.10,5.56,-1.65,-0.01,-1.41,0.99,-28.32,14.94,3.39,-1.00
13494.00,-8.38,6.10,-1.67,-0.09,-1.42,0.99,-29.02,16.56,5.40,-1.00
13506.00,-8.34,5.93,-1.86,-0.08,-1.42,0.89,-29.02,16.56,5.40,-1.00
13518.00,-8.34,5.93,-1.86,-0.08,-1.42,0.89,-29.02,16.56,5.40,-1.00
13530.00,-8.31,5.61,-1.46,-0.08,-1.46,0.80,-29.02,16.56,5.40,-1.00
13544.00,-8.49,5.46,-1.37,-0.02,-1.42,0.75,-29.02,16.56,5.40,-1.00
13635.00,-8.39,5.44,-1.34,0.20,-0.95,0.62,-29.72,16.02,6.96,-1.00
13722.00,-8.34,5.51,-2.28,0.29,-0.82,0.58,-28.60,13.86,5.18,-1.00
13809.00,-7.82,4.77,-2.12,-0.14,-0.76,1.18,-28.60,13.86,5.18,-1.00
13823.00,-7.31,4.93,-2.23,-0.14,-0.72,1.33,-28.60,13.86,5.18,-1.00
13835.00,-7.31,4.93,-2.23,-0.14,-0.72,1.33,-28.60,13.86,5.18,-1.00
13847.00,-8.27,5.96,-2.92,-0.29,-0.73,1.47,-28.60,13.86,5.18,-1.00
13861.00,-8.27,5.96,-2.92,-0.29,-0.73,1.47,-28.60,13.86,5.18,-1.00
13873.00,-8.09,5.82,-3.95,-0.34,-0.87,1.50,-27.06,13.68,-0.85,-1.00
13885.00,-7.68,6.38,-3.21,-0.31,-1.13,1.53,-27.06,13.68,-0.85,-1.00
13897.00,-7.68,6.38,-3.21,-0.31,-1.13,1.53,-27.06,13.68,-0.85,-1.00
13911.00,-7.79,6.53,-2.99,-0.26,-1.30,1.45,-27.06,13.68,-0.85,-1.00
13923.00,-8.19,5.89,-2.96,-0.24,-1.49,1.33,-27.06,13.68,-0.85,-1.00
13935.00,-8.19,5.89,-2.96,-0.24,-1.49,1.33,-27.06,13.68,-0.85,-1.00
13947.00,-8.10,5.78,-2.22,-0.13,-1.57,1.30,-27.06,13.68,-0.85,-1.00
13961.00,-8.10,5.78,-2.22,-0.13,-1.57,1.30,-27.06,13.68,-0.85,-1.00
13973.00,-8.10,6.09,-2.17,-0.14,-1.61,1.27,-27.06,13.68,-0.85,-1.00
13985.00,-7.83,5.89,-1.74,-0.20,-1.63,1.20,-29.44,17.45,-0.62,-1.00
13997.00,-7.83,5.89,-1.74,-0.20,-1.63,1.20,-29.44,17.45,-0.62,-1.00
14011.00,-8.05,5.68,-2.10,-0.25,-1.62,1.16,-29.44,17.45,-0.62,-1.00
14023.00,-7.89,6.10,-1.71,-0.25,-1.57,1.11,-29.44,17.45,-0.62,-1.00
14035.00,-7.89,6.10,-1.71,-0.25,-1.57,1.11,-29.44,17.45,-0.62,-1.00
14049.00,-7.86,6.32,-2.49,-0.16,-1.50,1.10,-29.44,17.45,-0.62,-1.00
14061.00,-7.86,6.32,-2.49,-0.16,-1.50,1.10,-29.44,17.45,-0.62,-1.00
14073.00,-8.16,5.89,-2.15,-0.13,-1.56,1.03,-29.44,17.45,-0.62,-1.00
14085.00,-8.20,5.97,-1.40,-0.06,-1.56,1.00,-29.44,17.45,-0.62,-1.00
14099.00,-8.20,5.97,-1.40,-0.06,-1.56,1.00,-29.44,17.45,-0.62,-1.00
14111.00,-7.40,5.40,-1.76,0.03,-1.48,1.00,-30.41,17.99,3.62,-1.00
14123.00,-7.91,5.90,-1.93,-0.01,-1.51,1.03,-30.41,17.99,3.62,-1.00
14136.00,-7.91,5.90,-1.93,-0.01,-1.51,1.03,-30.41,17.99,3.62,-1.00
14150.00,-8.16,6.00,-1.59,0.11,-1.51,1.04,-30.41,17.99,3.62,-1.00
14162.00,-8.10,6.18,-1.09,0.04,-1.55,1.00,-30.41,17.99,3.62,-1.00
14174.00,-8.10,6.18,-1.09,0.04,-1.55,1.00,-30.41,17.99,3.62,-1.00
14188.00,-7.92,6.13,-1.52,0.12,-1.47,0.96,-30.41,17.99,3.62,-1.00
14200.00,-7.92,6.13,-1.52,0.12,-1.47,0.96,-30.41,17.99,3.62,-1.00
14212.00,-7.95,6.13,-1.81,-0.01,-1.53,0.92,-30.41,17.99,3.62,-1.00
14224.00,-8.48,6.26,-1.34,-0.05,-1.52,0.85,-30.97,20.51,7.19,-1.00
14238.00,-8.48,6.26,-1.34,-0.05,-1.52,0.85,-30.97,20.51,7.19,-1.00
14250.00,-8.26,6.07,-1.30,-0.01,-1.46,0.77,-30.97,20.51,7.19,-1.00
14262.00,-8.58,5.93,-1.61,-0.02,-1.44,0.70,-30.97,20.51,7.19,-1.00
14274.00,-8.58,5.93,-1.61,-0.02,-1.44,0.70,-30.97,20.51,7.19,-1.00
14289.00,-8.57,6.40,-1.06,-0.10,-1.46,0.59,-30.97,20.51,7.19,-1.00
14300.00,-8.57,6.40,-1.06,-0.10,-1.46,0.59,-30.97,20.51,7.19,-1.00
14312.00,-8.26,6.03,-1.30,-0.06,-1.38,0.45,-30.97,20.51,7.19,-1.00
14324.00,-8.08,5.66,-1.03,-0.01,-1.34,0.40,-30.97,20.51,7.19,-1.00
14338.00,-8.08,5.66,-1.03,-0.01,-1.34,0.40,-30.97,20.51,7.19,-1.00
14350.00,-8.87,5.45,-1.33,0.11,-1.29,0.42,-30.97,20.51,7.19,-1.00
14362.00,-8.50,5.20,-0.78,0.13,-1.24,0.38,-30.97,20.51,7.19,-1.00
14374.00,-8.50,5.20,-0.78,0.13,-1.24,0.38,-30.55,17.10,8.30,-1.00
14388.00,-8.45,5.01,-0.40,0.24,-1.11,0.37,-30.55,17.10,8.30,-1.00
14400.00,-8.45,5.01,-0.40,0.24,-1.11,0.37,-30.55,17.10,8.30,-1.00
14412.00,-8.00,5.17,-1.75,0.31,-0.91,0.37,-30.55,17.10,8.30,-1.00
14426.00,-7.50,4.68,-2.05,0.30,-0.85,0.50,-30.55,17.10,8.30,-1.00
14438.00,-7.50,4.68,-2.05,0.30,-0.85,0.50,-30.55,17.10,8.30,-1.00
14450.00,-7.81,5.11,-2.03,0.20,-0.90,0.72,-30.55,17.10,8.30,-1.00
14462.00,-7.81,5.11,-2.03,0.20,-0.90,0.72,-30.55,17.10,8.30,-1.00
14477.00,-8.33,5.30,-1.33,0.20,-0.89,0.80,-30.55,17.10,8.30,-1.00
14488.00,-8.34,5.01,-1.24,0.23,-0.77,0.80,-29.85,13.68,4.06,-1.00
14500.00,-8.34,5.01,-1.24,0.23,-0.77,0.80,-29.85,13.68,4.06,-1.00
14512.00,-7.86,4.28,-1.10,0.20,-0.61,0.86,-29.85,13.68,4.06,-1.00
14526.00,-7.65,4.84,-2.49,0.10,-0.44,1.07,-29.85,13.68,4.06,-1.00
14538.00,-7.65,4.84,-2.49,0.10,-0.44,1.07,-29.85,13.68,4.06,-1.00
14550.00,-8.21,6.13,-2.91,-0.03,-0.54,1.25,-29.85,13.68,4.06,-1.00
14562.00,-8.21,6.13,-2.91,-0.03,-0.54,1.25,-29.85,13.68,4.06,-1.00
14576.00,-8.01,5.85,-2.56,0.05,-0.76,1.20,-29.85,13.68,4.06,-1.00
14588.00,-7.92,5.36,-2.49,0.18,-0.83,1.15,-29.85,13.68,4.06,-1.00
14600.00,-7.92,5.36,-2.49,0.18,-0.83,1.15,-29.85,13.68,4.06,-1.00
14612.00,-7.92,5.39,-2.47,0.14,-0.84,1.20,-29.16,14.58,-0.62,-1.00
14627.00,-8.20,5.35,-3.07,0.06,-0.87,1.23,-29.16,14.58,-0.62,-1.00
14638.00,-8.20,5.35,-3.07,0.06,-0.87,1.23,-29.16,14.58,-0.62,-1.00
14650.00,-7.98,5.25,-3.51,0.02,-1.00,1.24,-29.16,14.58,-0.62,-1.00
14664.00,-7.87,5.44,-2.41,-0.02,-1.21,1.30,-29.16,14.58,-0.62,-1.00
14676.00,-7.87,5.44,-2.41,-0.02,-1.21,1.30,-29.16,14.58,-0.62,-1.00
14688.00,-7.90,5.81,-2.68,-0.08,-1.25,1.36,-29.16,14.58,-0.62,-1.00
14700.00,-7.90,5.81,-2.68,-0.08,-1.25,1.36,-29.16,14.58,-0.62,-1.00
14714.00,-7.96,6.04,-2.96,-0.20,-1.37,1.35,-29.16,14.58,-0.62,-1.00
14726.00,-7.90,5.78,-2.19,-0.18,-1.55,1.32,-29.99,16.74,0.71,-1.00
14738.00,-7.90,5.78,-2.19,-0.18,-1.55,1.32,-29.99,16.74,0.71,-1.00
14750.00,-8.20,6.20,-1.67,-0.11,-1.60,1.33,-29.99,16.74,0.71,-1.00
14764.00,-7.99,5.81,-1.67,-0.19,-1.62,1.27,-29.99,16.74,0.71,-1.00
14776.00,-7.99,5.81,-1.67,-0.19,-1.62,1.27,-29.99,16.74,0.71,-1.00
14788.00,-7.93,5.91,-1.61,-0.21,-1.62,1.26,-29.99,16.74,0.71,-1.00
14800.00,-7.93,5.91,-1.61,-0.21,-1.62,1.26,-29.99,16.74,0.71,-1.00
14814.00,-8.78,6.18,-1.70,-0.20,-1.65,1.20,-29.99,16.74,0.71,-1.00
14826.00,-7.31,5.08,-1.20,-0.14,-1.60,1.17,-29.99,16.74,0.71,-1.00
14838.00,-7.31,5.08,-1.20,-0.14,-1.60,1.17,-29.99,16.74,0.71,-1.00
14852.00,-8.40,6.23,-1.62,-0.23,-1.55,1.22,-29.99,16.74,0.71,-1.00
14864.00,-8.20,5.99,-1.60,-0.14,-1.47,1.08,-29.58,20.15,4.96,-1.00
14876.00,-8.20,5.99,-1.60,-0.14,-1.47,1.08,-29.58,20.15,4.96,-1.00
14888.00,-8.13,5.89,-1.76,-0.08,-1.48,1.02,-29.58,20.15,4.96,-1.00
14903.00,-8.13,5.89,-1.76,-0.08,-1.48,1.02,-29.58,20.15,4.96,-1.00
14914.00,-8.58,6.01,-1.66,-0.11,-1.54,0.96,-29.58,20.15,4.96,-1.00
14926.00,-8.60,5.90,-1.72,-0.19,-1.58,0.85,-29.58,20.15,4.96,-1.00
14938.00,-8.60,5.90,-1.72,-0.19,-1.58,0.85,-29.58,20.15,4.96,-1.00
14952.00,-8.32,5.76,-1.37,-0.18,-1.55,0.75,-29.58,20.15,4.96,-1.00
14964.00,-8.66,6.12,-1.33,-0.18,-1.54,0.64,-29.58,20.15,4.96,-1.00
14976.00,-8.66,6.12,-1.33,-0.18,-1.54,0.64,-29.58,20.15,4.96,-1.00
14988.00,-8.28,5.62,-1.00,-0.12,-1.46,0.50,-30.55,21.05,5.62,-1.00
15002.00,-8.28,5.62,-1.00,-0.12,-1.46,0.50,-30.55,21.05,5.62,-1.00
15014.00,-8.24,5.41,-1.79,-0.03,-1.32,0.43,-30.55,21.05,5.62,-1.00
15026.00,-8.57,5.43,-0.94,0.18,-1.17,0.45,-30.55,21.05,5.62,-1.00
15040.00,-8.57,5.43,-0.94,0.18,-1.17,0.45,-30.55,21.05,5.62,-1.00
15052.00,-8.42,5.12,-1.14,0.33,-0.95,0.41,-30.55,21.05,5.62,-1.00
15064.00,-8.53,5.14,-1.28,0.32,-0.80,0.39,-30.55,21.05,5.62,-1.00
15076.00,-8.53,5.14,-1.28,0.32,-0.80,0.39,-30.55,21.05,5.62,-1.00
15091.00,-7.93,5.34,-2.38,0.17,-0.70,0.36,-30.55,21.05,5.62,-1.00
15102.00,-7.93,5.34,-2.38,0.17,-0.70,0.36,-30.55,21.05,5.62,-1.00
15114.00,-7.45,5.17,-2.78,0.12,-0.64,0.46,-31.25,16.56,5.85,-1.00
15126.00,-7.50,5.07,-2.47,0.02,-0.71,0.64,-31.25,16.56,5.85,-1.00
15140.00,-7.50,5.07,-2.47,0.02,-0.71,0.64,-31.25,16.56,5.85,-1.00
15152.00,-7.84,5.18,-2.45,-0.03,-0.77,0.85,-31.25,16.56,5.85,-1.00
15164.00,-7.84,4.83,-2.05,-0.06,-0.80,1.00,-31.25,16.56,5.85,-1.00
15176.00,-7.84,4.83,-2.05,-0.06,-0.80,1.00,-31.25,16.56,5.85,-1.00
15190.00,-8.10,5.17,-2.12,-0.01,-0.77,1.16,-31.25,16.56,5.85,-1.00
15202.00,-8.10,5.17,-2.12,-0.01,-0.77,1.16,-31.25,16.56,5.85,-1.00
15214.00,-7.91,5.84,-1.87,-0.08,-0.82,1.25,-31.25,16.56,5.85,-1.00
15226.00,-8.32,5.80,-2.42,-0.01,-0.84,1.26,-30.83,16.38,0.27,-1.00
15241.00,-8.32,5.80,-2.42,-0.01,-0.84,1.26,-30.83,16.38,0.27,-1.00
15328.00,-7.79,6.08,-2.32,-0.08,-1.35,1.32,-30.83,16.38,0.27,-1.00
15418.00,-8.28,5.41,-1.59,-0.02,-1.48,1.18,-29.72,16.38,-0.18,-1.00
15432.00,-8.13,5.73,-2.13,-0.05,-1.45,1.21,-29.72,16.38,-0.18,-1.00
15444.00,-7.76,5.98,-1.91,-0.03,-1.49,1.19,-29.72,16.38,-0.18,-1.00
15456.00,-7.76,5.98,-1.91,-0.03,-1.49,1.19,-29.72,16.38,-0.18,-1.00
15468.00,-7.64,5.55,-1.60,-0.05,-1.55,1.17,-29.72,16.38,-0.18,-1.00
15482.00,-7.64,5.55,-1.60,-0.05,-1.55,1.17,-29.72,16.38,-0.18,-1.00
15494.00,-7.94,5.91,-1.15,-0.07,-1.55,1.16,-31.53,18.35,1.38,-1.00
15506.00,-8.25,6.15,-1.40,-0.08,-1.51,1.12,-31.53,18.35,1.38,-1.00
15518.00,-8.25,6.15,-1.40,-0.08,-1.51,1.12,-31.53,18.35,1.38,-1.00
15532.00,-7.93,5.80,-2.16,-0.09,-1.50,1.06,-31.53,18.35,1.38,-1.00
15545.00,-8.26,5.79,-0.93,-0.11,-1.56,1.07,-31.53,18.35,1.38,-1.00
15557.00,-8.26,5.79,-0.93,-0.11,-1.56,1.07,-31.53,18.35,1.38,-1.00
15569.00,-8.14,6.14,-1.19,-0.14,-1.49,1.11,-31.53,18.35,1.38,-1.00
15583.00,-8.14,6.14,-1.19,-0.14,-1.49,1.11,-31.53,18.35,1.38,-1.00
15595.00,-8.01,5.71,-1.42,-0.10,-1.46,1.06,-31.53,18.35,1.38,-1.00
15607.00,-7.93,5.88,-1.51,-0.03,-1.46,1.02,-28.74,22.31,4.96,-1.00
15621.00,-7.93,5.88,-1.51,-0.03,-1.46,1.02,-28.74,22.31,4.96,-1.00
15633.00,-8.05,6.07,-1.48,-0.10,-1.51,0.98,-28.74,22.31,4.96,-1.00
15645.00,-8.16,6.26,-1.17,-0.10,-1.53,0.93,-28.74,22.31,4.96,-1.00
15657.00,-8.16,6.26,-1.17,-0.10,-1.53,0.93,-28.74,22.31,4.96,-1.00
15672.00,-8.13,6.18,-1.50,-0.07,-1.52,0.85,-28.74,22.31,4.96,-1.00
15683.00,-8.13,6.18,-1.50,-0.07,-1.52,0.85,-28.74,22.31,4.96,-1.00
15695.00,-8.27,6.13,-1.53,-0.08,-1.52,0.78,-28.74,22.31,4.96,-1.00
15707.00,-8.49,5.99,-1.27,-0.11,-1.52,0.70,-28.74,22.31,4.96,-1.00
15721.00,-8.49,5.99,-1.27,-0.11,-1.52,0.70,-28.74,22.31,4.96,-1.00
15733.00,-8.41,5.96,-1.13,-0.14,-1.55,0.62,-28.74,22.31,4.96,-1.00
15745.00,-8.21,5.93,-1.05,-0.02,-1.47,0.62,-32.09,19.79,5.40,-1.00
15757.00,-8.21,5.93,-1.05,-0.02,-1.47,0.62,-32.09,19.79,5.40,-1.00
15771.00,-8.34,5.74,-1.19,0.08,-1.35,0.60,-32.09,19.79,5.40,-1.00
15783.00,-8.34,5.74,-1.19,0.08,-1.35,0.60,-32.09,19.79,5.40,-1.00
15795.00,-8.29,6.11,-1.29,0.13,-1.26,0.52,-32.09,19.79,5.40,-1.00
15809.00,-8.19,6.08,-0.92,0.31,-1.12,0.38,-32.09,19.79,5.40,-1.00
15821.00,-8.19,6.08,-0.92,0.31,-1.12,0.38,-32.09,19.79,5.40,-1.00
15833.00,-7.85,5.13,-1.21,0.48,-0.97,0.28,-32.09,19.79,5.40,-1.00
15845.00,-8.39,5.12,-1.21,0.53,-0.87,0.38,-32.09,19.79,5.40,-1.00
15860.00,-8.39,5.12,-1.21,0.53,-0.87,0.38,-32.09,19.79,5.40,-1.00
15871.00,-8.76,5.19,-1.03,0.45,-0.76,0.40,-31.81,16.20,5.85,-1.00
15883.00,-8.76,5.19,-1.03,0.45,-0.76,0.40,-31.81,16.20,5.85,-1.00
15895.00,-8.45,5.13,-1.20,0.38,-0.57,0.35,-31.81,16.20,5.85,-1.00
15909.00,-7.65,4.74,-1.41,0.49,-0.34,0.38,-31.81,16.20,5.85,-1.00
15921.00,-7.65,4.74,-1.41,0.49,-0.34,0.38,-31.81,16.20,5.85,-1.00
15933.00,-6.83,4.90,-3.91,0.29,-0.35,0.57,-31.81,16.20,5.85,-1.00
15945.00,-7.71,5.40,-2.58,-0.02,-0.73,0.82,-31.81,16.20,5.85,-1.00
15959.00,-7.71,5.40,-2.58,-0.02,-0.73,0.82,-31.81,16.20,5.85,-1.00
15972.00,-7.35,3.62,-2.35,0.10,-0.80,0.97,-31.81,16.20,5.85,-1.00
15983.00,-7.35,3.62,-2.35,0.10,-0.80,0.97,-31.81,16.20,5.85,-1.00
15995.00,-8.05,3.95,-1.52,-0.07,-0.77,1.29,-30.97,15.48,0.94,-1.00
16009.00,-7.86,5.00,-2.31,-0.34,-0.73,1.57,-30.97,15.48,0.94,-1.00
16021.00,-7.86,5.00,-2.31,-0.34,-0.73,1.57,-30.97,15.48,0.94,-1.00
16033.00,-8.74,6.32,-3.07,-0.27,-0.85,1.67,-30.97,15.48,0.94,-1.00
16047.00,-7.86,6.01,-2.55,-0.25,-1.06,1.50,-30.97,15.48,0.94,-1.00
16059.00,-7.86,6.01,-2.55,-0.25,-1.06,1.50,-30.97,15.48,0.94,-1.00
16071.00,-7.55,5.95,-2.77,-0.16,-1.18,1.44,-30.97,15.48,0.94,-1.00
16083.00,-7.55,5.95,-2.77,-0.16,-1.18,1.44,-30.97,15.48,0.94,-1.00
16097.00,-8.16,6.12,-2.91,-0.22,-1.37,1.42,-30.97,15.48,0.94,-1.00
16185.00,-8.24,6.12,-1.62,-0.26,-1.57,1.22,-30.69,19.43,-0.40,-1.00
16274.00,-8.25,6.09,-1.06,-0.16,-1.52,1.08,-30.13,20.51,2.72,-1.00
16362.00,-7.83,5.91,-1.82,-0.02,-1.32,1.01,-30.13,20.51,2.72,-1.00
16375.00,-8.00,6.13,-1.49,-0.09,-1.41,1.03,-31.39,22.13,4.73,-1.00
16387.00,-8.13,6.13,-0.68,-0.11,-1.43,1.00,-31.39,22.13,4.73,-1.00
16399.00,-8.13,6.13,-0.68,-0.11,-1.43,1.00,-31.39,22.13,4.73,-1.00
16411.00,-8.07,6.11,-0.89,-0.11,-1.39,0.96,-31.39,22.13,4.73,-1.00
16425.00,-8.01,6.19,-1.34,-0.07,-1.37,0.94,-31.39,22.13,4.73,-1.00
16437.00,-8.01,6.19,-1.34,-0.07,-1.37,0.94,-31.39,22.13,4.73,-1.00
16449.00,-7.92,5.99,-1.21,-0.02,-1.36,0.92,-31.39,22.13,4.73,-1.00
16461.00,-7.92,5.99,-1.21,-0.02,-1.36,0.92,-31.39,22.13,4.73,-1.00
16475.00,-8.58,6.27,-0.99,-0.05,-1.43,0.92,-31.39,22.13,4.73,-1.00
16487.00,-7.90,5.87,-1.44,-0.04,-1.42,0.83,-31.39,22.49,6.07,-1.00
16499.00,-7.90,5.87,-1.44,-0.04,-1.42,0.83,-31.39,22.49,6.07,-1.00
16513.00,-8.14,5.88,-1.41,0.01,-1.37,0.83,-31.39,22.49,6.07,-1.00
16525.00,-8.16,6.10,-1.00,-0.02,-1.37,0.77,-31.39,22.49,6.07,-1.00
16537.00,-8.16,6.10,-1.00,-0.02,-1.37,0.77,-31.39,22.49,6.07,-1.00
16549.00,-8.84,6.25,-0.92,0.02,-1.35,0.65,-31.39,22.49,6.07,-1.00
16564.00,-8.84,6.25,-0.92,0.02,-1.35,0.65,-31.39,22.49,6.07,-1.00
16575.00,-8.93,6.18,-0.85,0.05,-1.27,0.53,-31.39,22.49,6.07,-1.00
16587.00,-8.66,5.78,-1.13,0.17,-1.12,0.41,-31.39,22.49,6.07,-1.00
16599.00,-8.66,5.78,-1.13,0.17,-1.12,0.41,-31.39,22.49,6.07,-1.00
16613.00,-8.40,5.22,-0.99,0.16,-1.02,0.31,-31.95,20.33,6.96,-1.00
16625.00,-7.96,4.71,-0.79,0.11,-0.97,0.32,-31.95,20.33,6.96,-1.00
16637.00,-7.96,4.71,-0.79,0.11,-0.97,0.32,-31.95,20.33,6.96,-1.00
16649.00,-8.24,5.04,-1.23,0.14,-0.85,0.45,-31.95,20.33,6.96,-1.00
16663.00,-8.24,5.04,-1.23,0.14,-0.85,0.45,-31.95,20.33,6.96,-1.00
16675.00,-8.14,5.10,-1.40,0.17,-0.70,0.53,-31.95,20.33,6.96,-1.00
16687.00,-8.32,5.35,-1.01,0.20,-0.52,0.61,-31.95,20.33,6.96,-1.00
16699.00,-8.32,5.35,-1.01,0.20,-0.52,0.61,-31.95,20.33,6.96,-1.00
16713.00,-7.27,4.62,-2.22,0.12,-0.33,0.72,-31.95,20.33,6.96,-1.00
16725.00,-7.23,4.95,-2.97,-0.12,-0.37,0.98,-31.95,20.33,6.96,-1.00
16737.00,-7.23,4.95,-2.97,-0.12,-0.37,0.98,-31.95,20.33,6.96,-1.00
16751.00,-7.83,6.46,-1.87,-0.18,-0.56,1.23,-33.07,17.81,1.61,-1.00
16763.00,-7.83,6.46,-1.87,-0.18,-0.56,1.23,-33.07,17.81,1.61,-1.00
16775.00,-7.78,5.84,-2.27,0.09,-0.58,1.20,-33.07,17.81,1.61,-1.00
16787.00,-7.61,5.78,-2.12,0.11,-0.68,1.20,-33.07,17.81,1.61,-1.00
16801.00,-7.61,5.78,-2.12,0.11,-0.68,1.20,-33.07,17.81,1.61,-1.00
16813.00,-8.26,5.94,-2.31,-0.04,-0.81,1.21,-33.07,17.81,1.61,-1.00
16825.00,-7.63,5.64,-2.20,-0.08,-0.91,1.21,-33.07,17.81,1.61,-1.00
16837.00,-7.63,5.64,-2.20,-0.08,-0.91,1.21,-33.07,17.81,1.61,-1.00
16851.00,-7.30,5.76,-3.38,-0.12,-0.99,1.29,-33.07,17.81,1.61,-1.00
16863.00,-7.30,5.76,-3.38,-0.12,-0.99,1.29,-33.07,17.81,1.61,-1.00
16875.00,-7.80,5.88,-3.00,-0.41,-1.32,1.42,-31.53,20.15,0.04,-1.00
16887.00,-7.70,6.22,-2.03,-0.48,-1.57,1.46,-31.53,20.15,0.04,-1.00
16901.00,-7.70,6.22,-2.03,-0.48,-1.57,1.46,-31.53,20.15,0.04,-1.00
16913.00,-8.39,6.67,-2.68,-0.23,-1.64,1.36,-31.53,20.15,0.04,-1.00
16925.00,-7.92,6.11,-1.93,-0.03,-1.70,1.23,-31.53,20.15,0.04,-1.00
16939.00,-7.92,6.11,-1.93,-0.03,-1.70,1.23,-31.53,20.15,0.04,-1.00
16951.00,-7.97,5.75,-1.44,0.04,-1.73,1.22,-31.53,20.15,0.04,-1.00
16963.00,-7.97,5.75,-1.44,0.04,-1.73,1.22,-31.53,20.15,0.04,-1.00
16975.00,-8.35,5.98,-1.01,0.02,-1.74,1.24,-31.53,20.15,0.04,-1.00
16990.00,-8.04,6.03,-1.39,-0.03,-1.68,1.19,-32.79,22.13,2.95,-1.00
17001.00,-8.04,6.03,-1.39,-0.03,-1.68,1.19,-32.79,22.13,2.95,-1.00
17013.00,-7.93,6.19,-1.55,0.08,-1.58,1.14,-32.79,22.13,2.95,-1.00
17025.00,-8.09,5.81,-1.19,0.18,-1.55,1.05,-32.79,22.13,2.95,-1.00
17039.00,-8.09,5.81,-1.19,0.18,-1.55,1.05,-32.79,22.13,2.95,-1.00
17051.00,-8.03,5.84,-1.81,0.24,-1.49,1.00,-32.79,22.13,2.95,-1.00
17063.00,-8.03,5.84,-1.81,0.24,-1.49,1.00,-32.79,22.13,2.95,-1.00
17075.00,-7.78,5.86,-2.07,0.13,-1.54,0.97,-32.79,22.13,2.95,-1.00
17089.00,-8.24,6.09,-1.37,0.07,-1.63,0.95,-32.79,22.13,2.95,-1.00
17101.00,-8.24,6.09,-1.37,0.07,-1.63,0.95,-32.79,22.13,2.95,-1.00
17113.00,-8.15,5.78,-1.55,0.19,-1.54,0.93,-32.51,22.13,3.39,-1.00
17125.00,-8.15,5.78,-1.55,0.19,-1.54,0.93,-32.51,22.13,3.39,-1.00
17139.00,-7.89,6.01,-1.95,0.05,-1.61,0.92,-32.51,22.13,3.39,-1.00
17151.00,-8.30,6.54,-1.26,-0.03,-1.71,0.88,-32.51,22.13,3.39,-1.00
17163.00,-8.30,6.54,-1.26,-0.03,-1.71,0.88,-32.51,22.13,3.39,-1.00
17178.00,-8.29,6.24,-1.42,0.07,-1.66,0.76,-32.51,22.13,3.39,-1.00
17189.00,-8.26,6.07,-1.05,-0.04,-1.75,0.63,-32.51,22.13,3.39,-1.00
17201.00,-8.26,6.07,-1.05,-0.04,-1.75,0.63,-32.51,22.13,3.39,-1.00
17213.00,-8.44,5.73,-0.55,-0.13,-1.81,0.54,-32.51,22.13,3.39,-1.00
17227.00,-8.47,5.54,0.09,-0.17,-1.82,0.50,-32.51,22.13,3.39,-1.00
17239.00,-8.47,5.54,0.09,-0.17,-1.82,0.50,-32.51,22.13,3.39,-1.00
17251.00,-8.66,5.59,-0.30,-0.07,-1.68,0.47,-33.21,20.15,9.87,-1.00
17263.00,-8.66,5.59,-0.30,-0.07,-1.68,0.47,-33.21,20.15,9.87,-1.00
17277.00,-8.74,5.38,-0.36,-0.07,-1.60,0.37,-33.21,20.15,9.87,-1.00
17289.00,-9.02,6.02,-0.82,-0.23,-1.53,0.29,-33.21,20.15,9.87,-1.00
17301.00,-9.02,6.02,-0.82,-0.23,-1.53,0.29,-33.21,20.15,9.87,-1.00
17313.00,-8.60,5.16,-0.26,-0.27,-1.43,0.12,-33.21,20.15,9.87,-1.00
17328.00,-8.39,5.32,-0.09,0.07,-1.17,0.12,-33.21,20.15,9.87,-1.00
17339.00,-8.39,5.32,-0.09,0.07,-1.17,0.12,-33.21,20.15,9.87,-1.00
17351.00,-8.41,5.16,-0.34,0.58,-0.80,0.22,-33.21,20.15,9.87,-1.00
17363.00,-8.41,5.16,-0.34,0.58,-0.80,0.22,-33.21,20.15,9.87,-1.00
17377.00,-8.61,5.30,-0.59,0.83,-0.60,0.28,-32.23,16.02,9.20,-1.00
17389.00,-7.82,4.56,-1.12,1.02,-0.39,0.32,-32.23,16.02,9.20,-1.00
17401.00,-7.82,4.56,-1.12,1.02,-0.39,0.32,-32.23,16.02,9.20,-1.00
17415.00,-7.42,3.64,-2.69,0.80,-0.38,0.51,-32.23,16.02,9.20,-1.00
17427.00,-8.16,3.86,-1.66,0.28,-0.68,0.83,-32.23,16.02,9.20,-1.00
17439.00,-8.16,3.86,-1.66,0.28,-0.68,0.83,-32.23,16.02,9.20,-1.00
17451.00,-8.37,3.83,-0.32,-0.03,-0.74,1.07,-32.23,16.02,9.20,-1.00
17465.00,-8.37,3.83,-0.32,-0.03,-0.74,1.07,-32.23,16.02,9.20,-1.00
17478.00,-8.40,4.35,-2.10,0.05,-0.50,1.30,-32.23,16.02,9.20,-1.00
17489.00,-8.34,5.49,-3.05,0.11,-0.57,1.44,-31.81,15.12,4.06,-1.00
17501.00,-8.34,5.49,-3.05,0.11,-0.57,1.44,-31.81,15.12,4.06,-1.00
17516.00,-8.18,5.27,-2.29,0.08,-0.83,1.42,-31.81,15.12,4.06,-1.00
17528.00,-8.13,4.81,-2.60,0.15,-0.94,1.44,-31.81,15.12,4.06,-1.00
17540.00,-8.13,4.81,-2.60,0.15,-0.94,1.44,-31.81,15.12,4.06,-1.00
17552.00,-8.26,5.65,-1.99,0.02,-1.12,1.52,-31.81,15.12,4.06,-1.00
17566.00,-8.76,6.12,-2.39,-0.05,-1.23,1.52,-31.81,15.12,4.06,-1.00
17578.00,-8.76,6.12,-2.39,-0.05,-1.23,1.52,-31.81,15.12,4.06,-1.00
17590.00,-7.85,5.49,-2.15,-0.12,-1.35,1.37,-31.81,15.12,4.06,-1.00
17602.00,-7.85,5.49,-2.15,-0.12,-1.35,1.37,-31.81,15.12,4.06,-1.00
17616.00,-8.43,5.88,-2.10,-0.20,-1.47,1.35,-31.81,15.12,4.06,-1.00
17628.00,-8.37,6.06,-1.93,-0.18,-1.53,1.33,-32.65,16.92,2.28,-1.00
17640.00,-8.37,6.06,-1.93,-0.18,-1.53,1.33,-32.65,16.92,2.28,-1.00
17654.00,-8.18,5.51,-1.64,-0.28,-1.60,1.26,-32.65,16.92,2.28,-1.00
17666.00,-8.58,6.00,-1.58,-0.39,-1.62,1.25,-32.65,16.92,2.28,-1.00
17678.00,-8.58,6.00,-1.58,-0.39,-1.62,1.25,-32.65,16.92,2.28,-1.00
17690.00,-8.00,5.69,-1.59,-0.28,-1.61,1.18,-32.65,16.92,2.28,-1.00
17704.00,-8.00,5.69,-1.59,-0.28,-1.61,1.18,-32.65,16.92,2.28,-1.00
17716.00,-8.64,6.19,-1.24,-0.18,-1.62,1.19,-32.65,16.92,2.28,-1.00
17728.00,-8.58,5.71,-0.09,-0.17,-1.64,1.14,-32.65,16.92,2.28,-1.00
17740.00,-8.58,5.71,-0.09,-0.17,-1.64,1.14,-32.65,16.92,2.28,-1.00
17755.00,-8.05,5.99,-1.18,-0.09,-1.47,1.13,-31.39,19.25,6.96,-1.00
17843.00,-8.57,5.96,-1.15,-0.01,-1.29,0.96,-31.39,19.25,6.96,-1.00
17932.00,-9.13,5.94,-1.20,-0.25,-1.30,0.36,-34.18,19.25,6.96,-1.00
18021.00,-9.19,5.48,-0.44,-0.01,-0.93,0.30,-33.49,16.56,7.63,-1.00
18035.00,-8.87,5.57,0.16,0.35,-0.67,0.22,-33.49,16.56,7.63,-1.00
18047.00,-8.26,4.51,-0.93,0.74,-0.27,0.09,-33.49,16.56,7.63,-1.00
18059.00,-8.26,4.51,-0.93,0.74,-0.27,0.09,-33.49,16.56,7.63,-1.00
18073.00,-7.97,3.81,-2.88,0.94,-0.06,0.22,-33.49,16.56,7.63,-1.00
18085.00,-7.97,3.81,-2.88,0.94,-0.06,0.22,-33.49,16.56,7.63,-1.00
18097.00,-7.90,3.19,-3.35,0.72,-0.19,0.49,-33.49,16.56,7.63,-1.00
18109.00,-8.12,3.00,-2.13,0.26,-0.48,0.78,-33.49,16.56,7.63,-1.00
18123.00,-8.12,3.00,-2.13,0.26,-0.48,0.78,-33.49,16.56,7.63,-1.00
18135.00,-8.17,3.73,-2.73,-0.10,-0.63,1.11,-32.51,12.42,2.50,-1.00
18147.00,-8.36,4.57,-2.41,0.20,-0.71,1.40,-32.51,12.42,2.50,-1.00
18159.00,-8.36,4.57,-2.41,0.20,-0.71,1.40,-32.51,12.42,2.50,-1.00
18173.00,-7.96,4.29,-2.93,0.43,-0.81,1.52,-32.51,12.42,2.50,-1.00
18185.00,-7.96,4.29,-2.93,0.43,-0.81,1.52,-32.51,12.42,2.50,-1.00
18197.00,-7.30,3.90,-2.97,0.17,-0.96,1.72,-32.51,12.42,2.50,-1.00
18209.00,-8.47,6.35,-2.75,-0.19,-1.13,1.94,-32.51,12.42,2.50,-1.00
18223.00,-8.47,6.35,-2.75,-0.19,-1.13,1.94,-32.51,12.42,2.50,-1.00
18235.00,-8.34,6.39,-4.16,-0.25,-1.32,1.72,-32.51,12.42,2.50,-1.00
18247.00,-7.56,5.47,-2.55,-0.20,-1.59,1.57,-33.49,15.48,0.49,-1.00
18259.00,-7.56,5.47,-2.55,-0.20,-1.59,1.57,-33.49,15.48,0.49,-1.00
18273.00,-8.25,5.43,-1.52,-0.20,-1.75,1.55,-33.49,15.48,0.49,-1.00
18285.00,-8.25,5.43,-1.52,-0.20,-1.75,1.55,-33.49,15.48,0.49,-1.00
18297.00,-8.87,5.33,-1.58,-0.23,-1.79,1.51,-33.49,15.48,0.49,-1.00
18311.00,-8.07,5.62,-0.82,-0.35,-1.82,1.50,-33.49,15.48,0.49,-1.00
18323.00,-8.07,5.62,-0.82,-0.35,-1.82,1.50,-33.49,15.48,0.49,-1.00
18335.00,-8.54,6.08,-1.63,-0.44,-1.78,1.43,-33.49,15.48,0.49,-1.00
18347.00,-8.33,5.32,-1.38,-0.46,-1.75,1.23,-33.49,15.48,0.49,-1.00
18362.00,-8.33,5.32,-1.38,-0.46,-1.75,1.23,-33.49,15.48,0.49,-1.00
18373.00,-8.76,5.36,-0.63,-0.38,-1.73,1.16,-34.32,20.51,4.51,-1.00
18385.00,-8.76,5.36,-0.63,-0.38,-1.73,1.16,-34.32,20.51,4.51,-1.00
18397.00,-8.44,5.60,-0.17,-0.40,-1.67,1.13,-34.32,20.51,4.51,-1.00
18411.00,-8.54,5.93,-0.47,-0.27,-1.49,1.08,-34.32,20.51,4.51,-1.00
18423.00,-8.54,5.93,-0.47,-0.27,-1.49,1.08,-34.32,20.51,4.51,-1.00
18435.00,-8.02,5.50,-1.84,-0.13,-1.32,1.01,-34.32,20.51,4.51,-1.00
18447.00,-8.53,5.74,-1.48,-0.17,-1.35,1.02,-34.32,20.51,4.51,-1.00
18461.00,-8.53,5.74,-1.48,-0.17,-1.35,1.02,-34.32,20.51,4.51,-1.00
18473.00,-8.78,5.84,-0.97,-0.15,-1.37,0.96,-34.32,20.51,4.51,-1.00
18485.00,-8.78,5.84,-0.97,-0.15,-1.37,0.96,-34.32,20.51,4.51,-1.00
18497.00,-8.54,6.00,-1.29,-0.12,-1.39,0.85,-35.16,22.31,6.74,-1.00
18512.00,-8.60,6.26,-1.67,-0.18,-1.43,0.73,-35.16,22.31,6.74,-1.00
18523.00,-8.60,6.26,-1.67,-0.18,-1.43,0.73,-35.16,22.31,6.74,-1.00
18535.00,-8.35,5.52,-1.43,-0.35,-1.54,0.57,-35.16,22.31,6.74,-1.00
18549.00,-8.83,5.81,-1.11,-0.37,-1.54,0.51,-35.16,22.31,6.74,-1.00
18561.00,-8.83,5.81,-1.11,-0.37,-1.54,0.51,-35.16,22.31,6.74,-1.00
18573.00,-8.87,5.49,-0.34,-0.37,-1.52,0.40,-35.16,22.31,6.74,-1.00
18585.00,-8.87,5.49,-0.34,-0.37,-1.52,0.40,-35.16,22.31,6.74,-1.00
18599.00,-9.20,5.14,0.41,-0.31,-1.40,0.26,-35.16,22.31,6.74,-1.00
18611.00,-8.64,4.83,0.09,-0.12,-1.13,0.14,-35.16,22.31,6.74,-1.00
18623.00,-8.64,4.83,0.09,-0.12,-1.13,0.14,-35.16,22.31,6.74,-1.00
18635.00,-8.40,4.63,-0.78,0.03,-0.89,0.19,-35.58,18.53,9.20,-1.00
18649.00,-7.94,4.81,-1.67,0.05,-0.75,0.32,-35.58,18.53,9.20,-1.00
18661.00,-7.94,4.81,-1.67,0.05,-0.75,0.32,-35.58,18.53,9.20,-1.00
18673.00,-8.91,5.53,-0.88,0.23,-0.67,0.41,-35.58,18.53,9.20,-1.00
18685.00,-8.91,5.53,-0.88,0.23,-0.67,0.41,-35.58,18.53,9.20,-1.00
18699.00,-9.22,5.09,-0.55,0.48,-0.46,0.25,-35.58,18.53,9.20,-1.00
18711.00,-7.65,4.09,-0.99,0.69,-0.20,0.12,-35.58,18.53,9.20,-1.00
18723.00,-7.65,4.09,-0.99,0.69,-0.20,0.12,-35.58,18.53,9.20,-1.00
18737.00,-7.75,3.71,-2.70,0.61,-0.13,0.36,-35.58,18.53,9.20,-1.00
18749.00,-8.18,3.17,-1.79,0.19,-0.40,0.62,-34.32,12.96,1.83,-1.00
18761.00,-8.18,3.17,-1.79,0.19,-0.40,0.62,-34.32,12.96,1.83,-1.00
18773.00,-8.36,3.31,-0.96,-0.05,-0.51,0.89,-34.32,12.96,1.83,-1.00
18788.00,-7.95,3.87,-2.98,0.12,-0.43,1.15,-34.32,12.96,1.83,-1.00
18799.00,-7.95,3.87,-2.98,0.12,-0.43,1.15,-34.32,12.96,1.83,-1.00
18811.00,-8.29,4.70,-3.41,0.10,-0.67,1.42,-34.32,12.96,1.83,-1.00
18823.00,-8.29,4.70,-3.41,0.10,-0.67,1.42,-34.32,12.96,1.83,-1.00
18837.00,-7.82,4.01,-2.41,0.26,-0.98,1.56,-34.32,12.96,1.83,-1.00
18849.00,-7.54,4.71,-2.63,0.21,-1.06,1.82,-34.32,12.96,1.83,-1.00
18861.00,-7.54,4.71,-2.63,0.21,-1.06,1.82,-34.32,12.96,1.83,-1.00
18873.00,-7.48,5.80,-3.31,-0.12,-1.22,2.00,-33.35,16.38,-1.07,-1.00
18887.00,-8.52,6.02,-3.53,-0.34,-1.53,1.96,-33.35,16.38,-1.07,-1.00
18899.00,-8.52,6.02,-3.53,-0.34,-1.53,1.96,-33.35,16.38,-1.07,-1.00
18911.00,-8.55,5.59,-2.13,-0.35,-1.79,1.87,-33.35,16.38,-1.07,-1.00
18923.00,-8.55,5.59,-2.13,-0.35,-1.79,1.87,-33.35,16.38,-1.07,-1.00
18938.00,-8.57,5.69,-0.93,-0.26,-1.84,1.66,-33.35,16.38,-1.07,-1.00
18949.00,-8.15,5.73,-1.53,-0.25,-1.76,1.51,-33.35,16.38,-1.07,-1.00
18961.00,-8.15,5.73,-1.53,-0.25,-1.76,1.51,-33.35,16.38,-1.07,-1.00
18976.00,-8.10,5.33,-1.36,-0.47,-1.88,1.46,-33.35,16.38,-1.07,-1.00
18987.00,-8.19,5.76,-1.25,-0.59,-1.94,1.45,-33.35,16.38,-1.07,-1.00
18999.00,-8.19,5.76,-1.25,-0.59,-1.94,1.45,-34.74,21.05,4.29,-1.00
19011.00,-8.34,6.43,-0.80,-0.55,-1.98,1.29,-34.74,21.05,4.29,-1.00
19025.00,-8.34,6.43,-0.80,-0.55,-1.98,1.29,-34.74,21.05,4.29,-1.00
19037.00,-8.40,6.05,-1.62,-0.45,-2.01,1.12,-34.74,21.05,4.29,-1.00
19049.00,-8.61,6.23,-2.13,-0.42,-2.05,1.07,-34.74,21.05,4.29,-1.00
19061.00,-8.61,6.23,-2.13,-0.42,-2.05,1.07,-34.74,21.05,4.29,-1.00
19075.00,-8.30,6.80,-0.66,-0.68,-2.24,0.81,-34.74,21.05,4.29,-1.00
19087.00,-8.30,6.80,-0.66,-0.68,-2.24,0.81,-34.74,21.05,4.29,-1.00
19099.00,-9.02,6.23,0.45,-0.44,-2.33,0.58,-34.74,21.05,4.29,-1.00
19111.00,-10.05,7.13,2.40,-0.44,-2.22,0.26,-34.74,21.05,4.29,-1.00
19126.00,-10.05,7.13,2.40,-0.44,-2.22,0.26,-34.74,21.05,4.29,-1.00
19137.00,-10.74,6.83,3.09,-0.03,-1.72,-0.24,-34.88,20.87,13.88,-1.00
19149.00,-14.10,1.00,6.36,1.24,-1.08,-0.43,-34.88,20.87,13.88,-1.00
19163.00,-14.10,1.00,6.36,1.24,-1.08,-0.43,-34.88,20.87,13.88,-1.00
19175.00,-12.01,-1.40,8.66,2.04,0.25,0.93,-34.88,20.87,13.88,-1.00
19187.00,-12.01,-1.40,8.66,2.04,0.25,0.93,-34.88,20.87,13.88,-1.00
19199.00,-12.08,2.46,7.21,1.67,1.85,2.27,-34.88,20.87,13.88,-1.00
19213.00,-8.98,5.24,0.90,1.11,3.25,2.53,-34.88,20.87,13.88,-1.00
19225.00,-8.98,5.24,0.90,1.11,3.25,2.53,-34.88,20.87,13.88,-1.00
19237.00,-5.46,5.15,-3.25,0.75,3.99,2.75,-34.88,20.87,13.88,-1.00
19249.00,-1.28,5.52,-8.97,-0.15,3.99,3.24,-32.65,25.18,-8.44,-1.00
19263.00,-1.28,5.52,-8.97,-0.15,3.99,3.24,-32.65,25.18,-8.44,-1.00
19275.00,0.38,6.17,-13.59,-1.35,2.86,4.05,-32.65,25.18,-8.44,-1.00
19287.00,0.38,6.17,-13.59,-1.35,2.86,4.05,-32.65,25.18,-8.44,-1.00
19299.00,0.31,9.13,-12.51,-2.12,0.73,4.19,-32.65,25.18,-8.44,-1.00
19313.00,-3.41,14.29,-8.35,-1.55,-0.96,3.10,-32.65,25.18,-8.44,-1.00
19325.00,-3.41,14.29,-8.35,-1.55,-0.96,3.10,-32.65,25.18,-8.44,-1.00
19337.00,-3.64,13.59,-7.20,-0.42,-2.11,1.06,-32.65,25.18,-8.44,-1.00
19351.00,-2.71,7.91,-6.22,0.92,-2.80,-0.45,-32.65,25.18,-8.44,-1.00
19363.00,-2.71,7.91,-6.22,0.92,-2.80,-0.45,-32.65,25.18,-8.44,-1.00
19375.00,-2.69,3.44,-5.01,1.53,-3.24,-0.66,-29.30,30.57,-7.10,-1.00
19387.00,-2.69,3.44,-5.01,1.53,-3.24,-0.66,-29.30,30.57,-7.10,-1.00
19402.00,-3.70,2.95,-3.47,1.06,-3.31,0.02,-29.30,30.57,-7.10,-1.00
19413.00,-5.61,5.10,-1.37,0.23,-3.12,0.63,-29.30,30.57,-7.10,-1.00
19426.00,-5.61,5.10,-1.37,0.23,-3.12,0.63,-29.30,30.57,-7.10,-1.00
19437.00,-6.77,6.58,-0.26,-0.29,-2.53,0.75,-29.30,30.57,-7.10,-1.00
19451.00,-6.12,5.27,-1.48,-0.14,-1.78,0.73,-29.30,30.57,-7.10,-1.00
19463.00,-6.12,5.27,-1.48,-0.14,-1.78,0.73,-29.30,30.57,-7.10,-1.00
19475.00,-4.99,4.35,-3.48,-0.04,-1.41,0.98,-29.30,30.57,-7.10,-1.00
19487.00,-4.99,4.35,-3.48,-0.04,-1.41,0.98,-29.30,30.57,-7.10,-1.00
19501.00,-5.10,5.91,-4.44,-0.25,-1.57,1.34,-29.30,30.57,-7.10,-1.00
19513.00,-6.32,7.61,-3.15,-0.16,-1.91,1.41,-30.97,29.49,0.04,-1.00
19525.00,-6.32,7.61,-3.15,-0.16,-1.91,1.41,-30.97,29.49,0.04,-1.00
19539.00,-7.65,8.39,-1.78,-0.01,-2.03,1.15,-30.97,29.49,0.04,-1.00
19551.00,-7.25,7.18,-2.01,0.25,-1.82,0.82,-30.97,29.49,0.04,-1.00
19563.00,-7.25,7.18,-2.01,0.25,-1.82,0.82,-30.97,29.49,0.04,-1.00
19575.00,-6.52,6.05,-2.71,0.43,-1.61,0.77,-30.97,29.49,0.04,-1.00
19590.00,-6.32,6.26,-3.09,0.34,-1.54,1.02,-30.97,29.49,0.04,-1.00
19601.00,-6.32,6.26,-3.09,0.34,-1.54,1.02,-30.97,29.49,0.04,-1.00
19613.00,-6.64,6.96,-3.29,0.19,-1.54,1.25,-30.97,29.49,0.04,-1.00
19625.00,-6.64,6.96,-3.29,0.19,-1.54,1.25,-30.97,29.49,0.04,-1.00
19639.00,-7.06,7.47,-2.84,0.12,-1.61,1.28,-31.67,29.31,2.95,-1.00
19651.00,-7.09,7.59,-2.62,0.18,-1.63,1.16,-31.67,29.31,2.95,-1.00
19663.00,-7.09,7.59,-2.62,0.18,-1.63,1.16,-31.67,29.31,2.95,-1.00
19675.00,-6.82,6.70,-2.55,0.35,-1.62,1.00,-31.67,29.31,2.95,-1.00
19689.00,-6.55,6.24,-2.60,0.37,-1.62,1.01,-31.67,29.31,2.95,-1.00
19701.00,-6.55,6.24,-2.60,0.37,-1.62,1.01,-31.67,29.31,2.95,-1.00
19713.00,-6.45,6.47,-2.49,0.29,-1.64,1.13,-31.67,29.31,2.95,-1.00
19725.00,-6.45,6.47,-2.49,0.29,-1.64,1.13,-31.67,29.31,2.95,-1.00
19740.00,-6.77,7.10,-2.15,0.28,-1.59,1.30,-31.67,29.31,2.95,-1.00
19751.00,-6.79,7.24,-2.23,0.33,-1.46,1.39,-31.39,29.67,5.18,-1.00
19763.00,-6.79,7.24,-2.23,0.33,-1.46,1.39,-31.39,29.67,5.18,-1.00
19777.00,-6.48,6.68,-2.20,0.63,-1.25,1.46,-31.39,29.67,5.18,-1.00
19789.00,-5.83,6.60,-2.80,0.88,-0.99,1.57,-31.39,29.67,5.18,-1.00
19801.00,-5.83,6.60,-2.80,0.88,-0.99,1.57,-31.39,29.67,5.18,-1.00
19813.00,-5.88,6.59,-3.38,1.00,-0.83,1.72,-31.39,29.67,5.18,-1.00
19827.00,-5.88,6.59,-3.38,1.00,-0.83,1.72,-31.39,29.67,5.18,-1.00
19839.00,-5.54,6.28,-3.18,1.21,-0.69,1.92,-31.39,29.67,5.18,-1.00
19851.00,-4.56,6.55,-3.34,2.07,-0.38,2.14,-31.39,29.67,5.18,-1.00
19863.00,-4.56,6.55,-3.34,2.07,-0.38,2.14,-31.39,29.67,5.18,-1.00
19877.00,-1.23,5.86,-5.68,2.48,-0.18,2.11,-29.72,32.19,-3.30,-1.00
19889.00,-3.96,5.17,-5.85,2.98,-0.30,2.17,-29.72,32.19,-3.30,-1.00
19901.00,-3.96,5.17,-5.85,2.98,-0.30,2.17,-29.72,32.19,-3.30,-1.00
19913.00,-4.01,5.37,-5.88,1.89,-1.09,1.79,-29.72,32.19,-3.30,-1.00
19927.00,-4.01,5.37,-5.88,1.89,-1.09,1.79,-29.72,32.19,-3.30,-1.00
19939.00,-5.68,6.68,-5.14,0.71,-2.11,1.40,-29.72,32.19,-3.30,-1.00
19951.00,-6.87,8.10,-4.51,-0.04,-2.68,1.25,-29.72,32.19,-3.30,-1.00
19965.00,-6.87,8.10,-4.51,-0.04,-2.68,1.25,-29.72,32.19,-3.30,-1.00
19977.00,-5.39,9.10,-4.93,-0.44,-2.75,1.31,-29.72,32.19,-3.30,-1.00
19989.00,-5.25,9.60,-4.99,0.06,-2.58,1.43,-29.72,32.19,-3.30,-1.00
20001.00,-5.25,9.60,-4.99,0.06,-2.58,1.43,-29.72,32.19,-3.30,-1.00
20016.00,-7.58,9.95,-5.55,0.66,-2.55,1.40,-29.44,30.03,-2.86,-1.00
20027.00,-7.58,9.95,-5.55,0.66,-2.55,1.40,-29.44,30.03,-2.86,-1.00
20039.00,-5.91,8.17,-10.73,1.78,-2.56,1.21,-29.44,30.03,-2.86,-1.00
20051.00,-6.99,5.68,-3.97,5.19,-2.68,1.63,-29.44,30.03,-2.86,-1.00
20065.00,-6.99,5.68,-3.97,5.19,-2.68,1.63,-29.44,30.03,-2.86,-1.00
20077.00,-6.86,5.74,-4.64,3.97,-2.63,2.07,-29.44,30.03,-2.86,-1.00
20089.00,-6.99,5.62,-6.18,2.27,-2.60,2.32,-29.44,30.03,-2.86,-1.00
20101.00,-6.99,5.62,-6.18,2.27,-2.60,2.32,-29.44,30.03,-2.86,-1.00
20115.00,-7.31,5.78,-6.07,1.44,-2.60,2.47,-29.44,30.03,-2.86,-1.00
20127.00,-7.31,5.78,-6.07,1.44,-2.60,2.47,-29.44,30.03,-2.86,-1.00
20139.00,-4.89,6.31,-5.69,0.91,-2.70,2.54,-30.13,26.26,1.83,-1.00
20151.00,-4.32,6.85,-6.13,0.56,-2.81,2.56,-30.13,26.26,1.83,-1.00
20166.00,-4.32,6.85,-6.13,0.56,-2.81,2.56,-30.13,26.26,1.83,-1.00
20255.00,-4.68,5.82,-5.15,0.85,-2.78,3.38,-27.62,34.53,11.65,-1.00
20343.00,-1.50,7.51,-2.82,-0.70,-3.69,4.52,-27.62,34.53,11.65,-1.00
20357.00,-1.60,8.58,-1.65,-1.21,-3.88,4.73,-27.62,34.53,11.65,-1.00
20369.00,-1.51,10.53,-2.39,-2.45,-3.98,4.72,-18.54,48.72,30.62,-1.00
20381.00,-1.51,10.53,-2.39,-2.45,-3.98,4.72,-18.54,48.72,30.62,-1.00
20393.00,0.00,11.98,-1.56,-1.81,-4.08,4.47,-18.54,48.72,30.62,-1.00
20407.00,0.00,11.98,-1.56,-1.81,-4.08,4.47,-18.54,48.72,30.62,-1.00
20419.00,-1.36,13.31,-1.37,-1.24,-3.91,3.67,-18.54,48.72,30.62,-1.00
20431.00,-3.41,12.03,0.65,-1.01,-3.70,2.65,-18.54,48.72,30.62,-1.00
20443.00,-3.41,12.03,0.65,-1.01,-3.70,2.65,-18.54,48.72,30.62,-1.00
20457.00,-4.64,11.97,1.62,-1.58,-3.36,2.08,-18.54,48.72,30.62,-1.00
20469.00,-4.92,12.33,0.12,-1.51,-2.44,1.90,-18.54,48.72,30.62,-1.00
20481.00,-4.92,12.33,0.12,-1.51,-2.44,1.90,-18.54,48.72,30.62,-1.00
20495.00,-4.70,13.35,-1.91,-0.36,-1.33,1.66,-18.54,48.72,30.62,-1.00
20507.00,-4.70,13.35,-1.91,-0.36,-1.33,1.66,-18.54,48.72,30.62,-1.00
20519.00,-4.44,12.45,-2.92,0.82,-0.52,1.14,-11.28,52.32,45.35,-1.00
20531.00,-4.09,10.79,-3.33,1.14,-0.22,0.65,-11.28,52.32,45.35,-1.00
20545.00,-4.09,10.79,-3.33,1.14,-0.22,0.65,-11.28,52.32,45.35,-1.00
20557.00,-3.74,9.39,-3.86,1.14,-0.14,0.41,-11.28,52.32,45.35,-1.00
20569.00,-3.41,8.17,-4.71,1.23,-0.12,0.31,-11.28,52.32,45.35,-1.00
20581.00,-3.41,8.17,-4.71,1.23,-0.12,0.31,-11.28,52.32,45.35,-1.00
20595.00,-3.22,7.35,-5.73,1.32,-0.24,0.30,-11.28,52.32,45.35,-1.00
20607.00,-3.22,7.35,-5.73,1.32,-0.24,0.30,-11.28,52.32,45.35,-1.00
20619.00,-3.16,7.11,-5.73,1.55,-0.53,0.44,-11.28,52.32,45.35,-1.00
20631.00,-3.21,7.59,-4.58,1.68,-0.90,0.70,-12.53,54.65,36.20,-1.00
20645.00,-3.21,7.59,-4.58,1.68,-0.90,0.70,-12.53,54.65,36.20,-1.00
20657.00,-2.96,7.95,-3.37,1.59,-0.97,0.85,-12.53,54.65,36.20,-1.00
20669.00,-2.66,7.83,-3.46,1.79,-0.90,0.81,-12.53,54.65,36.20,-1.00
20683.00,-2.66,7.83,-3.46,1.79,-0.90,0.81,-12.53,54.65,36.20,-1.00
20695.00,-2.59,7.38,-3.33,2.11,-0.77,0.76,-12.53,54.65,36.20,-1.00
20707.00,-2.59,7.38,-3.33,2.11,-0.77,0.76,-12.53,54.65,36.20,-1.00
20719.00,-2.04,7.82,-2.22,2.08,-0.73,0.87,-12.53,54.65,36.20,-1.00
20733.00,-2.52,8.17,-1.39,2.29,-0.53,0.93,-12.53,54.65,36.20,-1.00
20745.00,-2.52,8.17,-1.39,2.29,-0.53,0.93,-12.53,54.65,36.20,-1.00
20757.00,-1.87,7.62,-2.43,2.33,-0.09,0.86,-10.72,56.27,21.25,-1.00
20769.00,-1.51,7.24,-4.11,2.48,0.29,0.86,-10.72,56.27,21.25,-1.00
20783.00,-1.51,7.24,-4.11,2.48,0.29,0.86,-10.72,56.27,21.25,-1.00
20795.00,-0.89,6.76,-5.88,2.65,0.55,1.00,-10.72,56.27,21.25,-1.00
20807.00,-0.89,6.76,-5.88,2.65,0.55,1.00,-10.72,56.27,21.25,-1.00
20819.00,-0.57,7.15,-7.01,2.29,0.46,1.10,-10.72,56.27,21.25,-1.00
20833.00,-0.95,7.40,-6.52,1.84,0.14,1.11,-10.72,56.27,21.25,-1.00
20845.00,-0.95,7.40,-6.52,1.84,0.14,1.11,-10.72,56.27,21.25,-1.00
20857.00,-0.01,7.40,-6.82,1.48,-0.02,1.08,-10.72,56.27,21.25,-1.00
20871.00,-0.02,7.09,-6.96,1.61,-0.03,0.95,-8.90,55.01,5.40,-1.00
20884.00,-0.02,7.09,-6.96,1.61,-0.03,0.95,-8.90,55.01,5.40,-1.00
20896.00,-0.23,7.25,-8.19,1.25,-0.00,0.89,-8.90,55.01,5.40,-1.00
20908.00,-0.23,7.25,-8.19,1.25,-0.00,0.89,-8.90,55.01,5.40,-1.00
20923.00,0.26,7.56,-8.17,0.89,-0.16,0.91,-8.90,55.01,5.40,-1.00
20934.00,-0.01,8.26,-8.05,-0.01,-0.46,0.83,-8.90,55.01,5.40,-1.00
20946.00,-0.01,8.26,-8.05,-0.01,-0.46,0.83,-8.90,55.01,5.40,-1.00
20958.00,0.25,8.24,-8.07,-0.41,-0.55,0.68,-8.90,55.01,5.40,-1.00
20972.00,0.31,7.99,-7.61,-0.32,-0.51,0.54,-8.90,55.01,5.40,-1.00
20984.00,0.31,7.99,-7.61,-0.32,-0.51,0.54,-8.90,55.01,5.40,-1.00
20996.00,0.20,8.16,-7.56,-0.46,-0.51,0.49,-8.90,55.01,5.40,-1.00
21008.00,0.20,8.16,-7.56,-0.46,-0.51,0.49,-8.90,55.01,5.40,-1.00
21022.00,0.19,8.08,-7.55,-0.25,-0.54,0.44,-6.81,55.19,2.50,-1.00
21034.00,0.35,7.50,-7.67,-0.08,-0.57,0.31,-6.81,55.19,2.50,-1.00
21046.00,0.35,7.50,-7.67,-0.08,-0.57,0.31,-6.81,55.19,2.50,-1.00
21058.00,0.45,6.84,-7.42,0.03,-0.61,0.20,-6.81,55.19,2.50,-1.00
21073.00,0.21,6.23,-7.21,0.10,-0.61,0.16,-6.81,55.19,2.50,-1.00
21084.00,0.21,6.23,-7.21,0.10,-0.61,0.16,-6.81,55.19,2.50,-1.00
21096.00,-0.25,6.12,-6.98,0.28,-0.61,0.24,-6.81,55.19,2.50,-1.00
21108.00,-0.25,6.12,-6.98,0.28,-0.61,0.24,-6.81,55.19,2.50,-1.00
21122.00,-0.66,6.31,-6.98,0.44,-0.66,0.41,-6.81,55.19,2.50,-1.00
21134.00,-0.16,6.47,-7.85,0.15,-0.68,0.52,-8.90,52.50,0.94,-1.00
21146.00,-0.16,6.47,-7.85,0.15,-0.68,0.52,-8.90,52.50,0.94,-1.00
21158.00,0.22,6.49,-9.14,0.13,-0.74,0.52,-8.90,52.50,0.94,-1.00
21172.00,0.63,5.69,-7.53,0.56,-0.79,0.48,-8.90,52.50,0.94,-1.00
21184.00,0.63,5.69,-7.53,0.56,-0.79,0.48,-8.90,52.50,0.94,-1.00
21196.00,0.46,5.69,-7.53,-0.09,-0.85,0.45,-8.90,52.50,0.94,-1.00
21208.00,0.46,5.69,-7.53,-0.09,-0.85,0.45,-8.90,52.50,0.94,-1.00
21223.00,-0.09,5.89,-7.35,-0.35,-0.87,0.53,-8.90,52.50,0.94,-1.00
21234.00,0.07,6.22,-7.45,-0.39,-0.85,0.74,-8.90,52.50,0.94,-1.00
21246.00,0.07,6.22,-7.45,-0.39,-0.85,0.74,-8.90,52.50,0.94,-1.00
21258.00,-0.33,6.59,-7.38,-0.37,-0.86,0.91,-6.95,53.21,-0.40,-1.00
21272.00,-0.29,6.74,-7.07,-1.00,-0.96,1.00,-6.95,53.21,-0.40,-1.00
21284.00,-0.29,6.74,-7.07,-1.00,-0.96,1.00,-6.95,53.21,-0.40,-1.00
21296.00,0.04,7.33,-7.38,-1.69,-1.13,1.03,-6.95,53.21,-0.40,-1.00
21310.00,0.74,7.17,-6.89,-1.54,-1.23,0.96,-6.95,53.21,-0.40,-1.00
21322.00,0.74,7.17,-6.89,-1.54,-1.23,0.96,-6.95,53.21,-0.40,-1.00
21334.00,0.40,6.68,-6.37,-1.14,-1.20,0.85,-6.95,53.21,-0.40,-1.00
21346.00,0.40,6.68,-6.37,-1.14,-1.20,0.85,-6.95,53.21,-0.40,-1.00
21360.00,-0.28,6.24,-5.86,-1.22,-1.16,0.86,-6.95,53.21,-0.40,-1.00
21372.00,-0.92,7.46,-6.44,-2.08,-1.13,1.08,-6.95,53.21,-0.40,-1.00
21384.00,-0.92,7.46,-6.44,-2.08,-1.13,1.08,-6.95,53.21,-0.40,-1.00
21396.00,0.24,8.78,-5.47,-2.35,-1.09,1.31,-6.67,56.45,9.87,-1.00
21410.00,0.32,8.83,-5.92,-2.79,-0.97,1.18,-6.67,56.45,9.87,-1.00
21422.00,0.32,8.83,-5.92,-2.79,-0.97,1.18,-6.67,56.45,9.87,-1.00
21434.00,0.50,8.78,-4.85,-3.20,-0.97,1.08,-6.67,56.45,9.87,-1.00
21446.00,0.50,8.78,-4.85,-3.20,-0.97,1.08,-6.67,56.45,9.87,-1.00
21460.00,0.19,8.83,-3.96,-3.39,-0.96,1.08,-6.67,56.45,9.87,-1.00
21472.00,0.91,9.18,-4.65,-3.34,-0.93,1.18,-6.67,56.45,9.87,-1.00
21484.00,0.91,9.18,-4.65,-3.34,-0.93,1.18,-6.67,56.45,9.87,-1.00
21496.00,0.81,9.30,-3.09,-2.61,-0.73,1.33,-6.67,56.45,9.87,-1.00
21510.00,0.81,10.91,-5.42,-2.00,-0.71,1.56,-5.69,58.78,29.73,-1.00
21522.00,0.81,10.91,-5.42,-2.00,-0.71,1.56,-5.69,58.78,29.73,-1.00
21534.00,-1.58,15.67,-7.32,-0.28,-0.76,1.43,-5.69,58.78,29.73,-1.00
21548.00,-1.58,15.67,-7.32,-0.28,-0.76,1.43,-5.69,58.78,29.73,-1.00
21560.00,0.45,9.29,-1.66,1.26,-0.85,0.01,-5.69,58.78,29.73,-1.00
21572.00,-0.34,7.48,-1.52,0.71,-1.03,0.20,-5.69,58.78,29.73,-1.00
21584.00,-0.34,7.48,-1.52,0.71,-1.03,0.20,-5.69,58.78,29.73,-1.00
21598.00,-0.16,10.39,-3.04,-0.37,-1.13,0.60,-5.69,58.78,29.73,-1.00
21610.00,0.01,9.51,-3.06,-0.34,-1.22,0.48,-5.69,58.78,29.73,-1.00
21622.00,0.01,9.51,-3.06,-0.34,-1.22,0.48,-5.69,58.78,29.73,-1.00
21634.00,0.32,9.55,-2.92,-0.62,-1.24,0.40,-6.11,56.09,30.85,-1.00
21649.00,0.32,9.55,-2.92,-0.62,-1.24,0.40,-6.11,56.09,30.85,-1.00
21660.00,-0.74,9.41,-1.26,-0.75,-1.22,0.38,-6.11,56.09,30.85,-1.00
21672.00,-0.68,9.74,-3.01,-1.89,-1.24,0.49,-6.11,56.09,30.85,-1.00
21684.00,-0.68,9.74,-3.01,-1.89,-1.24,0.49,-6.11,56.09,30.85,-1.00
21698.00,-0.22,10.11,-2.17,-1.46,-1.28,0.66,-6.11,56.09,30.85,-1.00
21710.00,-0.22,10.11,-2.17,-1.46,-1.28,0.66,-6.11,56.09,30.85,-1.00
21722.00,-0.06,9.95,-1.71,-1.39,-1.27,0.63,-6.11,56.09,30.85,-1.00
21734.00,-0.26,10.46,-2.13,-0.73,-1.21,0.62,-6.11,56.09,30.85,-1.00
21748.00,-0.26,10.46,-2.13,-0.73,-1.21,0.62,-6.11,56.09,30.85,-1.00
21760.00,-0.51,9.50,-2.31,1.15,-1.13,0.51,-8.48,54.83,37.77,-1.00
21772.00,-0.40,9.37,-2.66,0.74,-1.19,0.62,-8.48,54.83,37.77,-1.00
21786.00,-0.40,9.37,-2.66,0.74,-1.19,0.62,-8.48,54.83,37.77,-1.00
21798.00,-0.51,9.76,-2.22,-0.15,-1.32,0.65,-8.48,54.83,37.77,-1.00
21810.00,-0.51,9.76,-2.22,-0.15,-1.32,0.65,-8.48,54.83,37.77,-1.00
21822.00,-0.51,9.80,-2.24,-0.06,-1.27,0.69,-8.48,54.83,37.77,-1.00
21837.00,-0.55,9.62,-2.36,0.03,-1.21,0.68,-8.48,54.83,37.77,-1.00
21848.00,-0.55,9.62,-2.36,0.03,-1.21,0.68,-8.48,54.83,37.77,-1.00
21860.00,-0.55,9.74,-2.28,-0.32,-1.14,0.49,-8.48,54.83,37.77,-1.00
21872.00,0.30,8.71,-0.95,-1.17,-0.86,-0.13,-8.48,54.83,37.77,-1.00
21886.00,0.30,8.71,-0.95,-1.17,-0.86,-0.13,-8.48,54.83,37.77,-1.00
21898.00,-2.28,9.72,-2.13,-2.31,-0.92,0.62,-11.14,53.21,38.88,-1.00
21910.00,-2.28,9.72,-2.13,-2.31,-0.92,0.62,-11.14,53.21,38.88,-1.00
21922.00,-1.21,9.84,-1.01,-2.13,-1.08,0.78,-11.14,53.21,38.88,-1.00
21936.00,-1.15,9.99,-0.58,-1.93,-1.04,0.81,-11.14,53.21,38.88,-1.00
21948.00,-1.15,9.99,-0.58,-1.93,-1.04,0.81,-11.14,53.21,38.88,-1.00
21960.00,-1.12,10.17,-0.11,-1.51,-0.99,0.84,-11.14,53.21,38.88,-1.00
21974.00,-1.08,9.98,-0.15,-0.48,-1.07,0.91,-11.14,53.21,38.88,-1.00
21986.00,-1.08,9.98,-0.15,-0.48,-1.07,0.91,-11.14,53.21,38.88,-1.00
21998.00,-0.98,9.89,-0.44,0.28,-1.17,0.98,-11.14,53.21,38.88,-1.00
22010.00,-0.98,9.89,-0.44,0.28,-1.17,0.98,-11.14,53.21,38.88,-1.00
22024.00,-0.94,9.81,-0.63,0.26,-1.19,0.97,-10.86,52.14,46.47,-1.00
22036.00,-0.97,9.91,-0.50,-0.10,-1.22,0.95,-10.86,52.14,46.47,-1.00
22048.00,-0.97,9.91,-0.50,-0.10,-1.22,0.95,-10.86,52.14,46.47,-1.00
22060.00,-1.03,9.93,-0.36,-0.13,-1.22,0.94,-10.86,52.14,46.47,-1.00
22074.00,-1.05,9.66,-0.56,0.04,-1.21,0.95,-10.86,52.14,46.47,-1.00
22086.00,-1.05,9.66,-0.56,0.04,-1.21,0.95,-10.86,52.14,46.47,-1.00
22098.00,-1.11,9.91,-0.32,-0.27,-1.23,0.95,-10.86,52.14,46.47,-1.00
22113.00,-1.16,9.98,-0.08,-0.32,-1.21,0.91,-10.86,52.14,46.47,-1.00
22124.00,-1.16,9.98,-0.08,-0.32,-1.21,0.91,-10.86,52.14,46.47,-1.00
22136.00,-1.15,9.91,-0.22,-0.02,-1.18,0.94,-11.56,51.60,47.59,-1.00
22148.00,-1.15,9.91,-0.22,-0.02,-1.18,0.94,-11.56,51.60,47.59,-1.00
22162.00,-1.10,9.87,-0.26,-0.02,-1.21,0.95,-11.56,51.60,47.59,-1.00
22174.00,-2.05,10.82,-0.17,0.89,-1.16,1.09,-11.56,51.60,47.59,-1.00
22186.00,-2.05,10.82,-0.17,0.89,-1.16,1.09,-11.56,51.60,47.59,-1.00
22198.00,-2.67,9.75,-1.38,2.73,-0.95,1.16,-11.56,51.60,47.59,-1.00
22212.00,-0.17,9.59,-1.93,2.55,-0.91,1.13,-11.56,51.60,47.59,-1.00
22224.00,-0.17,9.59,-1.93,2.55,-0.91,1.13,-11.56,51.60,47.59,-1.00
22236.00,0.20,9.04,-1.79,1.88,-1.00,1.09,-11.56,51.60,47.59,-1.00
22248.00,0.20,9.04,-1.79,1.88,-1.00,1.09,-11.56,51.60,47.59,-1.00
22263.00,-1.93,9.72,-4.77,1.13,-0.93,1.13,-11.56,55.55,33.75,-1.00
22274.00,-0.70,9.73,-2.40,1.66,-0.33,0.79,-11.56,55.55,33.75,-1.00
22287.00,-0.70,9.73,-2.40,1.66,-0.33,0.79,-11.56,55.55,33.75,-1.00
22300.00,-1.63,9.58,-2.05,0.90,0.58,0.31,-11.56,55.55,33.75,-1.00
22312.00,-0.44,9.62,-2.08,0.11,0.64,0.04,-11.56,55.55,33.75,-1.00
22324.00,-0.44,9.62,-2.08,0.11,0.64,0.04,-11.56,55.55,33.75,-1.00
22336.00,2.15,9.83,-2.18,0.06,-0.20,0.60,-11.56,55.55,33.75,-1.00
22350.00,2.15,9.83,-2.18,0.06,-0.20,0.60,-11.56,55.55,33.75,-1.00
22362.00,-1.63,9.80,-4.27,0.05,-0.90,1.04,-11.56,55.55,33.75,-1.00
22374.00,-2.27,10.89,-3.10,0.38,-0.59,0.75,-11.56,55.55,33.75,-1.00
22386.00,-2.27,10.89,-3.10,0.38,-0.59,0.75,-11.56,55.55,33.75,-1.00
22400.00,-1.89,10.61,-3.26,1.17,-0.33,0.76,-12.67,54.47,27.94,-1.00
22412.00,0.50,8.34,-3.11,1.76,-0.43,0.85,-12.67,54.47,27.94,-1.00
22424.00,0.50,8.34,-3.11,1.76,-0.43,0.85,-12.67,54.47,27.94,-1.00
22436.00,0.64,8.12,-2.96,1.35,-0.42,1.01,-12.67,54.47,27.94,-1.00
22451.00,0.64,8.12,-2.96,1.35,-0.42,1.01,-12.67,54.47,27.94,-1.00
22462.00,0.53,8.93,-4.42,0.34,-0.43,0.98,-12.67,54.47,27.94,-1.00
22474.00,-1.34,9.86,-3.46,-0.19,-0.66,1.12,-12.67,54.47,27.94,-1.00
22486.00,-1.34,9.86,-3.46,-0.19,-0.66,1.12,-12.67,54.47,27.94,-1.00
22500.00,-2.59,9.41,-2.84,-0.00,0.02,1.00,-12.67,54.47,27.94,-1.00
22589.00,-1.52,9.90,-1.65,-1.08,-0.32,0.18,-13.51,54.11,20.36,-1.00
22677.00,-0.59,9.36,-3.12,0.49,-1.11,0.84,-15.19,54.47,23.03,-1.00
22691.00,-0.59,9.36,-3.12,0.49,-1.11,0.84,-15.19,54.47,23.03,-1.00
22703.00,-0.92,9.38,-3.49,0.30,-1.17,1.33,-15.19,54.47,23.03,-1.00
22716.00,-1.08,9.53,-3.37,0.72,-1.26,1.59,-15.19,54.47,23.03,-1.00
22728.00,-1.08,9.53,-3.37,0.72,-1.26,1.59,-15.19,54.47,23.03,-1.00
22742.00,-0.76,9.39,-3.42,0.88,-1.27,1.41,-15.19,54.47,23.03,-1.00
22754.00,-0.61,9.40,-3.48,0.72,-1.17,1.15,-15.19,54.47,23.03,-1.00
22766.00,-0.61,9.40,-3.48,0.72,-1.17,1.15,-15.19,54.47,23.03,-1.00
22778.00,-1.48,8.91,-3.64,0.38,-0.91,1.03,-15.19,54.47,23.03,-1.00
22792.00,-1.14,9.63,-3.67,-1.12,-1.09,0.87,-15.19,54.47,23.03,-1.00
22804.00,-1.14,9.63,-3.67,-1.12,-1.09,0.87,-15.19,54.47,23.03,-1.00
22816.00,0.25,9.50,-3.36,-0.29,-1.00,0.74,-15.19,54.47,23.03,-1.00
22828.00,0.25,9.50,-3.36,-0.29,-1.00,0.74,-15.19,54.47,23.03,-1.00
22842.00,0.56,9.37,-3.65,0.36,-1.25,0.86,-15.19,54.47,23.03,-1.00
22854.00,-0.50,9.35,-3.59,0.01,-1.53,1.02,-15.19,54.47,23.03,-1.00
22866.00,-0.50,9.35,-3.59,0.01,-1.53,1.02,-15.19,54.47,23.03,-1.00
22880.00,-0.57,9.56,-3.28,-0.51,-1.42,0.97,-15.19,54.47,23.03,-1.00
22892.00,-0.58,9.33,-3.48,-0.05,-1.30,1.01,-12.25,55.37,24.15,-1.00
22904.00,-0.58,9.33,-3.48,-0.05,-1.30,1.01,-12.25,55.37,24.15,-1.00
22916.00,-0.51,9.46,-3.41,-0.11,-1.11,0.96,-12.25,55.37,24.15,-1.00
22930.00,-0.51,9.46,-3.41,-0.11,-1.11,0.96,-12.25,55.37,24.15,-1.00
22942.00,-0.59,9.39,-3.41,-0.18,-1.06,0.90,-12.25,55.37,24.15,-1.00
22954.00,-0.42,9.62,-3.08,-0.06,-1.15,0.88,-12.25,55.37,24.15,-1.00
22966.00,-0.42,9.62,-3.08,-0.06,-1.15,0.88,-12.25,55.37,24.15,-1.00
22980.00,-0.41,9.57,-3.21,0.61,-1.25,1.00,-12.25,55.37,24.15,-1.00
22992.00,-0.51,9.30,-3.66,1.16,-1.32,1.07,-12.25,55.37,24.15,-1.00
23004.00,-0.51,9.30,-3.66,1.16,-1.32,1.07,-12.25,55.37,24.15,-1.00
23016.00,-0.51,9.11,-4.02,0.96,-1.26,1.01,-13.65,54.65,17.90,-1.00
23030.00,-0.51,9.11,-4.02,0.96,-1.26,1.01,-13.65,54.65,17.90,-1.00
23042.00,-0.50,9.15,-4.03,0.49,-1.24,1.01,-13.65,54.65,17.90,-1.00
23054.00,-0.47,9.32,-3.91,0.34,-1.21,1.04,-13.65,54.65,17.90,-1.00
23068.00,-0.47,9.32,-3.91,0.34,-1.21,1.04,-13.65,54.65,17.90,-1.00
23080.00,-0.54,9.11,-4.15,0.62,-1.24,1.08,-13.65,54.65,17.90,-1.00
23092.00,-0.30,8.80,-4.48,0.47,-1.23,1.05,-13.65,54.65,17.90,-1.00
23104.00,-0.30,8.80,-4.48,0.47,-1.23,1.05,-13.65,54.65,17.90,-1.00
23118.00,-0.37,9.11,-4.19,-0.39,-1.18,0.98,-13.65,54.65,17.90,-1.00
23130.00,-0.37,9.11,-4.19,-0.39,-1.18,0.98,-13.65,54.65,17.90,-1.00
23142.00,-0.43,9.42,-3.82,-0.45,-1.19,0.92,-12.67,53.39,22.14,-1.00
23154.00,-0.50,9.23,-3.94,0.06,-1.19,0.98,-12.67,53.39,22.14,-1.00
23168.00,-0.50,9.23,-3.94,0.06,-1.19,0.98,-12.67,53.39,22.14,-1.00
23180.00,-0.36,9.27,-3.97,0.35,-1.19,1.02,-12.67,53.39,22.14,-1.00
23192.00,-0.41,9.05,-4.26,0.66,-1.24,1.02,-12.67,53.39,22.14,-1.00
23204.00,-0.41,9.05,-4.26,0.66,-1.24,1.02,-12.67,53.39,22.14,-1.00
23218.00,-0.41,8.95,-4.39,0.48,-1.23,1.02,-12.67,53.39,22.14,-1.00
23230.00,-0.41,8.95,-4.39,0.48,-1.23,1.02,-12.67,53.39,22.14,-1.00
23242.00,-0.36,9.12,-4.31,0.19,-1.21,1.01,-12.67,53.39,22.14,-1.00
23256.00,-0.39,9.06,-4.37,0.30,-1.21,0.94,-12.67,53.39,22.14,-1.00
23268.00,-0.39,9.06,-4.37,0.30,-1.21,0.94,-12.67,53.39,22.14,-1.00
23280.00,-0.41,8.98,-4.45,0.37,-1.19,0.91,-13.93,53.93,15.22,-1.00
23292.00,-0.43,8.93,-4.48,0.41,-1.09,0.92,-13.93,53.93,15.22,-1.00
23307.00,-0.43,8.93,-4.48,0.41,-1.09,0.92,-13.93,53.93,15.22,-1.00
23318.00,-0.27,9.01,-4.57,0.49,-1.02,0.94,-13.93,53.93,15.22,-1.00
23330.00,-0.27,9.01,-4.57,0.49,-1.02,0.94,-13.93,53.93,15.22,-1.00
23342.00,-0.34,8.75,-4.79,0.41,-0.96,0.73,-13.93,53.93,15.22,-1.00
23356.00,-0.49,8.68,-4.80,-0.12,-0.79,0.45,-13.93,53.93,15.22,-1.00
23368.00,-0.49,8.68,-4.80,-0.12,-0.79,0.45,-13.93,53.93,15.22,-1.00
23380.00,-0.48,8.93,-4.54,-0.49,-0.79,0.58,-13.93,53.93,15.22,-1.00
23392.00,-0.50,9.10,-4.42,-0.23,-1.01,0.91,-14.21,53.93,15.22,-1.00
23406.00,-0.50,9.10,-4.42,-0.23,-1.01,0.91,-14.21,52.85,6.29,-1.00
23418.00,-0.48,9.00,-4.49,0.31,-1.10,1.12,-14.21,52.85,6.29,-1.00
23430.00,-0.48,9.00,-4.49,0.31,-1.10,1.12,-14.21,52.85,6.29,-1.00
23444.00,-0.40,8.77,-4.74,0.66,-1.10,1.26,-14.21,52.85,6.29,-1.00
23457.00,-0.14,8.70,-5.08,0.44,-1.16,1.37,-14.21,52.85,6.29,-1.00
23469.00,-0.14,8.70,-5.08,0.44,-1.16,1.37,-14.21,52.85,6.29,-1.00
23481.00,-0.15,8.76,-4.82,-0.21,-1.33,1.15,-14.21,52.85,6.29,-1.00
23495.00,-0.06,9.32,-4.42,-0.30,-1.39,0.96,-14.21,52.85,6.29,-1.00
23507.00,-0.06,9.32,-4.42,-0.30,-1.39,0.96,-14.21,52.85,6.29,-1.00
23519.00,-0.22,9.04,-4.54,0.58,-1.47,0.65,-14.49,53.57,5.85,-1.00
23531.00,-0.22,9.04,-4.54,0.58,-1.47,0.65,-14.49,53.57,5.85,-1.00
23545.00,-0.28,8.77,-4.96,1.44,-1.32,0.41,-14.49,53.57,5.85,-1.00
23557.00,-0.67,8.30,-5.38,1.41,-1.06,0.22,-14.49,53.57,5.85,-1.00
23569.00,-0.67,8.30,-5.38,1.41,-1.06,0.22,-14.49,53.57,5.85,-1.00
