time,ax,ay,az,gx,gy,gz,mx,my,mz,pressure
1.00,-0.28,6.39,-7.85,2.34,-1.26,1.39,-12.67,51.24,7.41,-1.00
13.00,-0.30,6.69,-7.64,0.93,-1.24,1.22,-10.72,50.16,0.27,-1.00
25.00,-0.30,6.69,-7.64,0.93,-1.24,1.22,-10.72,50.16,0.27,-1.00
37.00,-0.32,6.88,-7.46,0.31,-1.20,1.04,-10.72,50.16,0.27,-1.00
101.00,-0.29,6.68,-7.61,0.02,-1.21,0.96,-10.72,50.16,0.27,-1.00
113.00,-0.25,6.68,-7.60,-0.01,-1.22,0.96,-10.72,50.16,0.27,-1.00
125.00,-0.25,6.68,-7.60,-0.01,-1.22,0.96,-10.72,50.16,0.27,-1.00
137.00,-0.21,6.68,-7.62,0.04,-1.21,0.96,-11.42,50.34,0.04,-1.00
151.00,-0.18,6.67,-7.63,0.15,-1.19,0.97,-11.42,50.34,0.04,-1.00
163.00,-0.18,6.67,-7.63,0.15,-1.19,0.97,-11.42,50.34,0.04,-1.00
175.00,-0.21,6.67,-7.61,0.37,-1.17,0.99,-11.42,50.34,0.04,-1.00
189.00,-0.15,6.40,-7.90,0.46,-1.16,0.99,-11.42,50.34,0.04,-1.00
201.00,-0.15,6.40,-7.90,0.46,-1.16,0.99,-11.42,50.34,0.04,-1.00
213.00,-0.09,6.55,-7.81,0.12,-1.22,0.95,-11.42,50.34,0.04,-1.00
225.00,-0.09,6.55,-7.81,0.12,-1.22,0.95,-11.42,50.34,0.04,-1.00
240.00,-0.28,6.46,-7.78,0.10,-1.28,0.93,-11.42,50.34,0.04,-1.00
251.00,-0.28,6.52,-7.77,0.02,-1.22,0.95,-11.42,50.34,0.04,-1.00
263.00,-0.28,6.52,-7.77,0.02,-1.22,0.95,-11.42,50.34,0.04,-1.00
275.00,-0.31,6.52,-7.77,-0.00,-1.21,0.96,-9.74,49.26,-2.63,-1.00
290.00,-0.28,6.53,-7.73,0.00,-1.21,0.96,-9.74,49.26,-2.63,-1.00
302.00,-0.28,6.53,-7.73,0.00,-1.21,0.96,-9.74,49.26,-2.63,-1.00
314.00,-0.25,6.55,-7.76,0.01,-1.21,0.96,-9.74,49.26,-2.63,-1.00
326.00,-0.24,6.50,-7.79,-0.02,-1.20,0.96,-9.74,49.26,-2.63,-1.00
340.00,-0.24,6.50,-7.79,-0.02,-1.20,0.96,-9.74,49.26,-2.63,-1.00
352.00,-0.09,5.89,-8.44,-0.23,-1.21,0.96,-9.74,49.26,-2.63,-1.00
364.00,-0.09,5.89,-8.44,-0.23,-1.21,0.96,-9.74,49.26,-2.63,-1.00
376.00,-0.16,6.40,-7.80,-2.11,-1.37,0.80,-9.74,49.26,-2.63,-1.00
391.00,-0.36,7.45,-6.78,-3.25,-1.53,0.66,-11.28,51.60,2.50,-1.00
402.00,-0.36,7.45,-6.78,-3.25,-1.53,0.66,-11.28,51.60,2.50,-1.00
414.00,-0.45,7.90,-6.35,-2.43,-1.48,0.74,-11.28,51.60,2.50,-1.00
426.00,-0.51,8.04,-6.18,-1.18,-1.35,0.85,-11.28,51.60,2.50,-1.00
440.00,-0.51,8.04,-6.18,-1.18,-1.35,0.85,-11.28,51.60,2.50,-1.00
452.00,-0.50,7.90,-6.31,-0.08,-1.23,0.95,-11.28,51.60,2.50,-1.00
464.00,-0.50,7.90,-6.31,-0.08,-1.23,0.95,-11.28,51.60,2.50,-1.00
476.00,-0.45,7.64,-6.61,0.38,-1.18,0.99,-11.28,51.60,2.50,-1.00
490.00,-0.44,7.64,-6.59,0.06,-1.20,0.96,-11.28,51.60,2.50,-1.00
502.00,-0.44,7.64,-6.59,0.06,-1.20,0.96,-11.28,51.60,2.50,-1.00
514.00,-0.50,7.85,-6.39,-0.29,-1.24,0.93,-11.98,52.50,6.74,-1.00
526.00,-0.52,7.88,-6.35,-0.17,-1.23,0.94,-11.98,52.50,6.74,-1.00
541.00,-0.52,7.88,-6.35,-0.17,-1.23,0.94,-11.98,52.50,6.74,-1.00
629.00,-0.44,7.76,-6.48,0.01,-1.21,0.96,-11.98,52.50,6.74,-1.00
718.00,-0.49,7.81,-6.40,-0.02,-1.21,0.95,-10.72,53.75,6.96,-1.00
807.00,-0.41,7.81,-6.42,-0.01,-1.21,0.95,-11.28,53.03,9.64,-1.00
821.00,-0.41,7.81,-6.42,-0.01,-1.21,0.95,-11.28,53.03,9.64,-1.00
833.00,-0.44,7.80,-6.44,-0.00,-1.21,0.95,-11.28,53.03,9.64,-1.00
845.00,-0.44,7.80,-6.44,-0.00,-1.21,0.95,-11.28,53.03,9.64,-1.00
857.00,-0.46,7.79,-6.42,-0.01,-1.21,0.95,-11.28,53.03,9.64,-1.00
872.00,-0.49,7.79,-6.44,-0.01,-1.21,0.95,-11.28,53.03,9.64,-1.00
883.00,-0.49,7.79,-6.44,-0.01,-1.21,0.95,-11.28,53.03,9.64,-1.00
895.00,-0.51,7.81,-6.43,-0.01,-1.21,0.95,-11.28,51.60,9.64,-1.00
909.00,-0.50,7.81,-6.41,-0.01,-1.21,0.95,-11.28,51.60,9.64,-1.00
921.00,-0.50,7.81,-6.41,-0.01,-1.21,0.95,-11.28,51.60,9.64,-1.00
933.00,-0.49,7.82,-6.41,-0.01,-1.21,0.95,-11.28,51.60,9.64,-1.00
945.00,-0.49,7.82,-6.41,-0.01,-1.21,0.95,-11.28,51.60,9.64,-1.00
959.00,-0.47,7.82,-6.42,-0.01,-1.21,0.95,-11.28,51.60,9.64,-1.00
971.00,-0.46,7.80,-6.38,-0.01,-1.21,0.96,-11.28,51.60,9.64,-1.00
983.00,-0.46,7.80,-6.38,-0.01,-1.21,0.96,-11.28,51.60,9.64,-1.00
995.00,-0.47,7.83,-6.38,-0.02,-1.21,0.95,-11.28,51.60,9.64,-1.00
1009.00,-0.47,7.81,-6.38,-0.02,-1.21,0.95,-12.12,52.32,10.09,-1.00
1021.00,-0.47,7.81,-6.38,-0.02,-1.21,0.95,-12.12,52.32,10.09,-1.00
1033.00,-0.47,7.83,-6.40,0.00,-1.21,0.96,-12.12,52.32,10.09,-1.00
1046.00,-0.47,7.83,-6.40,0.00,-1.21,0.96,-12.12,52.32,10.09,-1.00
1060.00,-0.47,7.82,-6.40,0.01,-1.21,0.96,-12.12,52.32,10.09,-1.00
1072.00,-0.47,7.83,-6.41,-0.00,-1.21,0.96,-12.12,52.32,10.09,-1.00
1084.00,-0.47,7.83,-6.41,-0.00,-1.21,0.96,-12.12,52.32,10.09,-1.00
1096.00,-0.45,7.79,-6.36,-0.01,-1.21,0.95,-12.12,52.32,10.09,-1.00
1110.00,-0.45,7.83,-6.36,-0.01,-1.21,0.95,-12.12,52.32,10.09,-1.00
1122.00,-0.45,7.83,-6.36,-0.01,-1.21,0.95,-12.12,52.32,10.09,-1.00
1134.00,-0.45,7.84,-6.35,-0.00,-1.21,0.95,-12.12,52.32,10.09,-1.00
1146.00,-0.45,7.84,-6.35,-0.00,-1.21,0.95,-12.12,52.32,10.09,-1.00
1160.00,-0.48,7.84,-6.38,-0.01,-1.21,0.95,-11.28,52.68,7.86,-1.00
1172.00,-0.50,7.83,-6.36,-0.02,-1.21,0.95,-11.28,52.68,7.86,-1.00
1184.00,-0.50,7.83,-6.36,-0.02,-1.21,0.95,-11.28,52.68,7.86,-1.00
1199.00,-0.50,7.82,-6.37,-0.01,-1.21,0.95,-11.28,52.68,7.86,-1.00
1210.00,-0.51,7.82,-6.40,0.01,-1.21,0.96,-11.28,52.68,7.86,-1.00
1222.00,-0.51,7.82,-6.40,0.01,-1.21,0.96,-11.28,52.68,7.86,-1.00
1234.00,-0.50,7.80,-6.40,0.01,-1.21,0.96,-11.28,52.68,7.86,-1.00
1248.00,-0.47,7.82,-6.41,0.00,-1.21,0.96,-11.28,52.68,7.86,-1.00
1260.00,-0.47,7.82,-6.41,0.00,-1.21,0.96,-11.28,52.68,7.86,-1.00
1272.00,-0.45,7.82,-6.41,-0.01,-1.21,0.96,-12.12,53.03,6.52,-1.00
1284.00,-0.45,7.82,-6.41,-0.01,-1.21,0.96,-12.12,53.03,6.52,-1.00
1298.00,-0.45,7.83,-6.35,-0.01,-1.21,0.95,-12.12,53.03,6.52,-1.00
1310.00,-0.47,7.86,-6.37,-0.01,-1.21,0.96,-12.12,53.03,6.52,-1.00
1322.00,-0.47,7.86,-6.37,-0.01,-1.21,0.96,-12.12,53.03,6.52,-1.00
1334.00,-0.48,7.85,-6.35,-0.00,-1.21,0.96,-12.12,53.03,6.52,-1.00
1348.00,-0.45,7.83,-6.31,-0.01,-1.21,0.96,-12.12,53.03,6.52,-1.00
1360.00,-0.45,7.83,-6.31,-0.01,-1.21,0.96,-12.12,53.03,6.52,-1.00
1372.00,-0.46,7.87,-6.35,-0.01,-1.21,0.95,-12.12,53.03,6.52,-1.00
1384.00,-0.46,7.87,-6.35,-0.01,-1.21,0.95,-12.12,53.03,6.52,-1.00
1398.00,-0.46,7.82,-6.36,-0.00,-1.21,0.96,-12.81,53.57,8.97,-1.00
1410.00,-0.49,7.87,-6.41,0.01,-1.21,0.96,-12.81,53.57,8.97,-1.00
1422.00,-0.49,7.87,-6.41,0.01,-1.21,0.96,-12.81,53.57,8.97,-1.00
1434.00,-0.49,7.80,-6.40,0.02,-1.21,0.96,-12.81,53.57,8.97,-1.00
1448.00,-0.49,7.83,-6.37,-0.02,-1.21,0.95,-12.81,53.57,8.97,-1.00
1460.00,-0.49,7.83,-6.37,-0.02,-1.21,0.95,-12.81,53.57,8.97,-1.00
1472.00,-0.47,7.84,-6.34,-0.02,-1.21,0.95,-12.81,53.57,8.97,-1.00
1486.00,-0.47,7.84,-6.34,-0.02,-1.21,0.95,-12.81,53.57,8.97,-1.00
1574.00,-0.42,7.87,-6.36,-0.01,-1.21,0.95,-11.84,52.32,8.30,-1.00
1662.00,-0.51,7.86,-6.38,0.00,-1.21,0.95,-11.98,52.85,8.53,-1.00
1750.00,-0.45,7.85,-6.32,0.01,-1.21,0.96,-11.98,52.85,8.53,-1.00
1764.00,-0.45,7.85,-6.32,0.01,-1.21,0.96,-11.98,52.85,8.53,-1.00
1777.00,-0.50,7.86,-6.38,0.00,-1.21,0.96,-11.42,52.14,7.19,-1.00
1788.00,-0.50,7.82,-6.39,0.01,-1.21,0.95,-11.42,52.14,7.19,-1.00
1800.00,-0.50,7.82,-6.39,0.01,-1.21,0.95,-11.42,52.14,7.19,-1.00
1814.00,-0.49,7.86,-6.39,0.01,-1.21,0.96,-11.42,52.14,7.19,-1.00
1826.00,-0.49,7.86,-6.39,0.01,-1.21,0.96,-11.42,52.14,7.19,-1.00
1838.00,-0.48,7.83,-6.35,-0.01,-1.21,0.96,-11.42,52.14,7.19,-1.00
1850.00,-0.47,7.87,-6.34,-0.01,-1.21,0.95,-11.42,52.14,7.19,-1.00
1864.00,-0.47,7.87,-6.34,-0.01,-1.21,0.95,-11.42,52.14,7.19,-1.00
1876.00,-0.46,7.87,-6.34,0.01,-1.21,0.95,-11.42,52.14,7.19,-1.00
1888.00,-0.45,7.86,-6.37,0.00,-1.21,0.95,-11.42,53.21,8.08,-1.00
1900.00,-0.45,7.86,-6.37,0.00,-1.21,0.95,-11.42,53.21,8.08,-1.00
1914.00,-0.48,7.86,-6.36,-0.01,-1.21,0.95,-11.42,53.21,8.08,-1.00
1926.00,-0.48,7.86,-6.36,-0.01,-1.21,0.95,-11.42,53.21,8.08,-1.00
1938.00,-0.49,7.85,-6.33,-0.01,-1.21,0.95,-11.42,53.21,8.08,-1.00
1950.00,-0.50,7.84,-6.37,0.01,-1.21,0.96,-11.42,53.21,8.08,-1.00
1964.00,-0.50,7.84,-6.37,0.01,-1.21,0.96,-11.42,53.21,8.08,-1.00
1976.00,-0.49,7.86,-6.39,0.02,-1.21,0.96,-11.42,53.21,8.08,-1.00
1988.00,-0.48,7.83,-6.36,0.00,-1.21,0.96,-11.42,53.21,8.08,-1.00
2000.00,-0.48,7.83,-6.36,0.00,-1.21,0.96,-11.42,53.21,8.08,-1.00
2014.00,-0.64,7.55,-6.51,0.85,-1.39,1.24,-11.28,51.60,8.30,-1.00
2026.00,-0.64,7.55,-6.51,0.85,-1.39,1.24,-11.28,51.60,8.30,-1.00
2038.00,0.64,6.06,-8.86,0.44,-1.30,1.49,-11.28,51.60,8.30,-1.00
2053.00,-1.33,8.10,-9.04,1.16,-1.89,2.48,-11.28,51.60,8.30,-1.00
2064.00,-1.33,8.10,-9.04,1.16,-1.89,2.48,-11.28,51.60,8.30,-1.00
2076.00,1.40,8.55,-7.66,3.28,-2.11,3.37,-11.28,51.60,8.30,-1.00
2088.00,1.45,9.38,-8.60,4.91,-1.54,3.37,-11.28,51.60,8.30,-1.00
2102.00,1.45,9.38,-8.60,4.91,-1.54,3.37,-11.28,51.60,8.30,-1.00
2114.00,0.56,8.36,-7.31,5.93,-1.18,3.14,-11.28,51.60,8.30,-1.00
2126.00,0.56,8.36,-7.31,5.93,-1.18,3.14,-11.28,51.60,8.30,-1.00
2138.00,-1.49,7.86,-11.71,4.28,-0.96,2.44,-11.28,51.60,8.30,-1.00
2152.00,1.47,4.42,-13.37,4.94,-1.18,2.09,-4.43,44.95,-14.69,-1.00
2164.00,1.47,4.42,-13.37,4.94,-1.18,2.09,-4.43,44.95,-14.69,-1.00
2176.00,1.33,3.90,-12.14,5.08,-2.01,2.11,-4.43,44.95,-14.69,-1.00
2188.00,1.42,4.56,-10.37,3.14,-2.57,2.34,-4.43,44.95,-14.69,-1.00
2203.00,1.42,4.56,-10.37,3.14,-2.57,2.34,-4.43,44.95,-14.69,-1.00
2214.00,0.42,4.18,-11.64,1.58,-2.59,1.99,-4.43,44.95,-14.69,-1.00
2226.00,0.42,4.18,-11.64,1.58,-2.59,1.99,-4.43,44.95,-14.69,-1.00
2238.00,1.03,4.41,-13.63,2.09,-2.37,1.47,-4.43,44.95,-14.69,-1.00
2252.00,0.34,4.14,-13.26,4.24,-2.31,1.04,-4.43,44.95,-14.69,-1.00
2264.00,0.34,4.14,-13.26,4.24,-2.31,1.04,-4.43,44.95,-14.69,-1.00
2276.00,1.19,3.20,-8.28,4.80,-2.53,0.62,-8.76,25.72,-26.07,-1.00
2288.00,-1.18,3.67,-9.01,1.65,-2.93,-0.13,-8.76,25.72,-26.07,-1.00
2302.00,-1.18,3.67,-9.01,1.65,-2.93,-0.13,-8.76,25.72,-26.07,-1.00
2314.00,-3.13,3.54,-8.60,-0.46,-3.13,-1.06,-8.76,25.72,-26.07,-1.00
2326.00,-3.13,3.54,-8.60,-0.46,-3.13,-1.06,-8.76,25.72,-26.07,-1.00
2340.00,-3.54,3.53,-6.25,-0.08,-2.81,-1.62,-8.76,25.72,-26.07,-1.00
2352.00,-5.79,4.07,-8.48,1.01,-2.51,-2.08,-8.76,25.72,-26.07,-1.00
2364.00,-5.79,4.07,-8.48,1.01,-2.51,-2.08,-8.76,25.72,-26.07,-1.00
2376.00,1.06,1.73,-7.08,4.59,-2.49,-2.73,-8.76,25.72,-26.07,-1.00
2391.00,4.81,-0.12,-7.21,6.86,-3.18,-2.53,-14.35,2.36,-18.48,-1.00
2402.00,4.81,-0.12,-7.21,6.86,-3.18,-2.53,-14.35,2.36,-18.48,-1.00
2414.00,2.16,-1.87,-9.88,7.27,-3.65,-2.38,-14.35,2.36,-18.48,-1.00
2426.00,2.16,-1.87,-9.88,7.27,-3.65,-2.38,-14.35,2.36,-18.48,-1.00
2440.00,4.36,-12.35,-6.68,10.22,-3.48,-2.31,-14.35,2.36,-18.48,-1.00
2452.00,0.95,-15.35,-2.32,8.66,-4.19,-0.94,-14.35,2.36,-18.48,-1.00
2464.00,0.95,-15.35,-2.32,8.66,-4.19,-0.94,-14.35,2.36,-18.48,-1.00
2476.00,-2.56,-13.02,-1.16,3.62,-4.29,0.78,-14.35,2.36,-18.48,-1.00
2490.00,-3.84,-7.06,-3.90,-0.36,-3.92,1.69,-14.35,2.36,-18.48,-1.00
2502.00,-3.84,-7.06,-3.90,-0.36,-3.92,1.69,-14.35,2.36,-18.48,-1.00
2514.00,-4.47,-6.10,-1.90,-0.66,-3.08,1.74,-14.35,2.36,-18.48,-1.00
2528.00,-3.83,-8.52,-0.79,-1.95,-2.30,1.08,-17.70,-22.80,-47.05,-1.00
2540.00,-3.83,-8.52,-0.79,-1.95,-2.30,1.08,-17.70,-22.80,10.09,-1.00
2552.00,-2.39,-8.21,-2.02,-5.22,-1.63,0.56,-17.70,-22.80,10.09,-1.00
2564.00,-2.39,-8.21,-2.02,-5.22,-1.63,0.56,-17.70,-22.80,10.09,-1.00
2578.00,-1.12,-7.03,-2.02,-8.92,-1.31,0.44,-17.70,-22.80,10.09,-1.00
2590.00,-2.35,-4.07,-4.09,-13.21,-1.62,0.70,-17.70,-22.80,10.09,-1.00
2602.00,-2.35,-4.07,-4.09,-13.21,-1.62,0.70,-17.70,-22.80,10.09,-1.00
2614.00,-4.11,-0.61,-5.72,-15.67,-2.72,0.95,-17.70,-22.80,10.09,-1.00
2628.00,-4.87,3.91,-6.59,-16.66,-4.17,0.65,-17.70,-22.80,10.09,-1.00
2640.00,-4.87,3.91,-6.59,-16.66,-4.17,0.65,-17.70,-22.80,10.09,-1.00
2652.00,-6.06,7.00,-4.55,-16.37,-4.88,0.18,-23.57,14.22,-8.21,-1.00
2667.00,-6.06,7.00,-4.55,-16.37,-4.88,0.18,-23.57,14.22,-8.21,-1.00
2678.00,-5.09,10.57,-5.84,-16.07,-4.03,-0.58,-23.57,14.22,-8.21,-1.00
2691.00,-3.94,8.99,-3.70,-11.96,-2.85,-0.64,-23.57,14.22,-8.21,-1.00
2702.00,-3.94,8.99,-3.70,-11.96,-2.85,-0.64,-23.57,14.22,-8.21,-1.00
2716.00,-3.80,6.89,-1.20,-7.42,-1.66,-0.58,-23.57,14.22,-8.21,-1.00
2728.00,-3.80,6.89,-1.20,-7.42,-1.66,-0.58,-23.57,14.22,-8.21,-1.00
2740.00,-4.48,7.65,-3.54,-5.00,-0.80,-0.66,-23.57,14.22,-8.21,-1.00
2752.00,-3.62,7.39,-2.15,-1.99,-0.29,-0.53,-23.57,14.22,-8.21,-1.00
2766.00,-3.62,7.39,-2.15,-1.99,-0.29,-0.53,-23.57,14.22,-8.21,-1.00
2778.00,-3.37,6.77,-5.04,1.16,-0.02,0.13,-28.74,30.21,16.56,-1.00
2790.00,-3.80,6.34,-4.30,4.54,0.12,1.13,-28.74,30.21,16.56,-1.00
2804.00,-3.80,6.34,-4.30,4.54,0.12,1.13,-28.74,30.21,16.56,-1.00
2816.00,-5.07,7.33,-6.32,5.26,-0.17,1.41,-28.74,30.21,16.56,-1.00
2828.00,-5.07,7.33,-6.32,5.26,-0.17,1.41,-28.74,30.21,16.56,-1.00
2840.00,-5.98,5.74,-4.07,7.01,-0.39,1.57,-28.74,30.21,16.56,-1.00
2855.00,-7.15,4.40,-2.46,8.14,-0.02,1.76,-28.74,30.21,16.56,-1.00
2866.00,-7.15,4.40,-2.46,8.14,-0.02,1.76,-28.74,30.21,16.56,-1.00
2878.00,-8.20,4.76,-5.51,8.10,0.56,1.67,-28.74,30.21,16.56,-1.00
2890.00,-6.50,5.92,-7.23,6.78,0.45,1.11,-25.11,11.53,-5.31,-1.00
2904.00,-6.50,5.92,-7.23,6.78,0.45,1.11,-25.11,11.53,-5.31,-1.00
2916.00,-5.88,7.53,-9.94,5.80,0.49,0.54,-25.11,11.53,-5.31,-1.00
2928.00,-5.88,7.53,-9.94,5.80,0.49,0.54,-25.11,11.53,-5.31,-1.00
2940.00,-5.24,4.63,-11.27,6.83,0.18,-0.31,-25.11,11.53,-5.31,-1.00
2954.00,-5.94,-1.02,-10.95,7.65,-0.56,-1.09,-25.11,11.53,-5.31,-1.00
2966.00,-5.94,-1.02,-10.95,7.65,-0.56,-1.09,-25.11,11.53,-5.31,-1.00
2978.00,-2.83,-6.62,-7.27,6.08,-1.17,-1.34,-25.11,11.53,-5.31,-1.00
2990.00,-1.73,-7.16,-9.52,1.23,-1.98,-1.16,-25.11,11.53,-5.31,-1.00
3005.00,-1.73,-7.16,-9.52,1.23,-1.98,-1.16,-25.11,11.53,-5.31,-1.00
3016.00,-3.84,-5.40,-11.57,-1.13,-2.46,-0.04,-25.11,11.53,-5.31,-1.00
3028.00,-3.84,-5.40,-11.57,-1.13,-2.46,-0.04,-25.11,11.53,-5.31,-1.00
3042.00,-4.53,-2.63,-8.31,-1.63,-3.02,1.29,-20.64,-10.40,-1.74,-1.00
3054.00,-4.36,-0.97,-8.44,-2.55,-3.16,1.61,-20.64,-10.40,-1.74,-1.00
3066.00,-4.36,-0.97,-8.44,-2.55,-3.16,1.61,-20.64,-10.40,-1.74,-1.00
3078.00,-3.45,-0.95,-8.74,-3.25,-3.17,1.61,-20.64,-10.40,-1.74,-1.00
3092.00,-6.19,0.02,-7.34,-3.99,-3.26,1.88,-20.64,-10.40,-1.74,-1.00
3104.00,-6.19,0.02,-7.34,-3.99,-3.26,1.88,-20.64,-10.40,-1.74,-1.00
3116.00,-7.18,0.65,-5.34,-4.64,-3.18,2.15,-20.64,-10.40,-1.74,-1.00
3128.00,-7.18,0.65,-5.34,-4.64,-3.18,2.15,-20.64,-10.40,-1.74,-1.00
3142.00,1.22,1.60,-6.57,-2.98,-2.32,2.72,-20.64,-10.40,-1.74,-1.00
3154.00,-13.40,4.07,-4.62,-0.01,-2.06,3.50,-25.66,5.06,3.62,-1.00
3166.00,-13.40,4.07,-4.62,-0.01,-2.06,3.50,-25.66,5.06,3.62,-1.00
3178.00,-8.17,5.76,-7.56,-1.47,-1.54,3.20,-25.66,5.06,3.62,-1.00
3192.00,-7.85,7.05,-6.78,-1.94,-1.55,2.48,-25.66,5.06,3.62,-1.00
3281.00,-6.37,3.52,-3.57,6.05,-0.17,-1.37,-28.04,5.60,7.41,-1.00
3371.00,-3.48,-2.39,-8.18,-6.38,-0.40,0.27,-28.04,5.60,7.41,-1.00
3384.00,-3.48,-2.39,-8.18,-6.38,-0.40,0.27,-28.04,5.60,7.41,-1.00
3396.00,-2.86,5.35,-9.51,-6.29,-1.27,0.96,-23.71,3.26,-4.87,-1.00
3408.00,-2.86,5.35,-9.51,-6.29,-1.27,0.96,-23.71,3.26,-4.87,-1.00
3420.00,-4.19,8.31,-8.36,-4.95,-2.31,1.00,-23.71,3.26,-4.87,-1.00
3434.00,-3.55,8.61,-6.22,-3.23,-2.51,0.36,-23.71,3.26,-4.87,-1.00
3446.00,-3.55,8.61,-6.22,-3.23,-2.51,0.36,-23.71,3.26,-4.87,-1.00
3458.00,-7.49,7.51,-12.05,-1.43,-1.85,0.12,-23.71,3.26,-4.87,-1.00
3470.00,-8.48,5.06,-7.75,0.66,-1.77,0.02,-23.71,3.26,-4.87,-1.00
3484.00,-8.48,5.06,-7.75,0.66,-1.77,0.02,-23.71,3.26,-4.87,-1.00
3496.00,-7.39,3.63,-2.51,0.56,-1.92,-0.22,-23.71,3.26,-4.87,-1.00
3508.00,-7.39,3.63,-2.51,0.56,-1.92,-0.22,-23.71,3.26,-4.87,-1.00
3520.00,-7.15,3.31,-2.38,-0.40,-1.29,-0.51,-23.71,3.26,-4.87,-1.00
3534.00,-7.92,0.72,-3.06,-0.80,-0.36,-0.65,-25.80,5.60,-1.96,-1.00
3546.00,-7.92,0.72,-3.06,-0.80,-0.36,-0.65,-25.80,5.60,-1.96,-1.00
3558.00,-7.37,-1.03,-6.62,-1.25,0.37,-0.37,-25.80,5.60,-1.96,-1.00
3570.00,-5.42,-1.09,-8.62,-1.10,0.58,0.20,-25.80,5.60,-1.96,-1.00
3584.00,-5.42,-1.09,-8.62,-1.10,0.58,0.20,-25.80,5.60,-1.96,-1.00
3596.00,-3.96,1.56,-10.51,-1.17,0.01,1.07,-25.80,5.60,-1.96,-1.00
3608.00,-3.96,1.56,-10.51,-1.17,0.01,1.07,-25.80,5.60,-1.96,-1.00
3623.00,-4.69,2.86,-9.22,-0.99,-1.03,1.91,-25.80,5.60,-1.96,-1.00
3634.00,-6.45,4.43,-8.82,-0.84,-1.66,2.32,-25.80,5.60,-1.96,-1.00
3646.00,-6.45,4.43,-8.82,-0.84,-1.66,2.32,-25.80,5.60,-1.96,-1.00
3658.00,-6.18,4.73,-8.69,-0.74,-1.98,2.39,-21.61,6.31,-8.66,-1.00
3672.00,-5.66,6.10,-8.63,-0.85,-2.29,2.27,-21.61,6.31,-8.66,-1.00
3684.00,-5.66,6.10,-8.63,-0.85,-2.29,2.27,-21.61,6.31,-8.66,-1.00
3696.00,-5.21,6.69,-8.52,-1.05,-2.76,1.89,-21.61,6.31,-8.66,-1.00
3708.00,-5.21,6.69,-8.52,-1.05,-2.76,1.89,-21.61,6.31,-8.66,-1.00
3722.00,-6.57,6.74,-5.88,-0.71,-3.14,1.56,-21.61,6.31,-8.66,-1.00
3734.00,-6.57,5.73,-3.43,0.38,-2.75,1.24,-21.61,6.31,-8.66,-1.00
3746.00,-6.57,5.73,-3.43,0.38,-2.75,1.24,-21.61,6.31,-8.66,-1.00
3758.00,-7.63,6.13,-2.89,1.59,-1.97,1.14,-21.61,6.31,-8.66,-1.00
3772.00,-8.18,5.27,-4.12,3.01,-1.02,0.83,-26.50,11.88,-1.29,-1.00
3784.00,-8.18,5.27,-4.12,3.01,-1.02,0.83,-26.50,11.88,-1.29,-1.00
3796.00,-8.13,2.30,-4.32,3.39,-0.63,0.32,-26.50,11.88,-1.29,-1.00
3808.00,-8.13,2.30,-4.32,3.39,-0.63,0.32,-26.50,11.88,-1.29,-1.00
3822.00,-6.92,1.56,-5.52,2.43,-0.61,0.06,-26.50,11.88,-1.29,-1.00
3834.00,-7.45,1.70,-5.61,1.70,-0.65,0.02,-26.50,11.88,-1.29,-1.00
3846.00,-7.45,1.70,-5.61,1.70,-0.65,0.02,-26.50,11.88,-1.29,-1.00
3858.00,-6.04,1.98,-6.47,0.97,-0.55,0.08,-26.50,11.88,-1.29,-1.00
3873.00,-5.05,2.34,-7.64,1.15,-0.14,0.42,-26.50,11.88,-1.29,-1.00
3885.00,-5.05,2.34,-7.64,1.15,-0.14,0.42,-26.50,11.88,-1.29,-1.00
3897.00,-5.21,3.23,-8.76,1.13,0.18,0.72,-22.59,1.10,-3.53,-1.00
3911.00,-4.80,4.66,-11.89,0.53,-0.13,0.56,-22.59,1.10,-3.53,-1.00
3923.00,-4.80,4.66,-11.89,0.53,-0.13,0.56,-22.59,1.10,-3.53,-1.00
3935.00,-4.77,3.81,-9.56,0.68,-0.97,0.28,-22.59,1.10,-3.53,-1.00
3947.00,-4.77,3.81,-9.56,0.68,-0.97,0.28,-22.59,1.10,-3.53,-1.00
3961.00,-4.89,2.18,-7.82,0.66,-1.12,0.22,-22.59,1.10,-3.53,-1.00
3973.00,-4.00,0.05,-7.59,0.44,-0.94,0.59,-22.59,1.10,-3.53,-1.00
3985.00,-4.00,0.05,-7.59,0.44,-0.94,0.59,-22.59,1.10,-3.53,-1.00
3997.00,-1.01,0.14,-10.27,-0.25,-0.82,1.48,-22.59,1.10,-3.53,-1.00
4011.00,-2.71,-1.04,-9.36,-0.12,-1.20,3.28,-22.59,1.10,-3.53,-1.00
4024.00,-2.71,-1.04,-9.36,-0.12,-1.20,3.28,-22.59,1.10,-3.53,-1.00
4036.00,-9.48,2.18,-5.68,-0.82,-2.69,4.13,-24.41,1.64,-6.43,-1.00
4048.00,-9.48,2.18,-5.68,-0.82,-2.69,4.13,-24.41,1.64,-6.43,-1.00
4062.00,-11.57,3.65,-6.31,-2.01,-2.97,3.77,-24.41,1.64,-6.43,-1.00
4151.00,-7.64,5.05,-4.47,1.29,-2.39,2.53,-27.34,19.79,5.40,-1.00
4240.00,-6.16,8.46,-6.21,0.33,-0.72,0.56,-27.34,19.79,5.40,-1.00
4329.00,-5.63,1.66,-5.87,3.41,-0.84,-0.93,-27.48,19.61,5.18,-1.00
4343.00,-4.63,0.69,-6.74,2.48,-0.79,-0.76,-27.48,19.61,5.18,-1.00
4355.00,-4.73,1.31,-7.63,1.64,-1.04,-0.26,-27.48,19.61,5.18,-1.00
4367.00,-4.73,1.31,-7.63,1.64,-1.04,-0.26,-27.48,19.61,5.18,-1.00
4379.00,-4.81,1.70,-6.37,1.31,-1.25,0.17,-27.48,19.61,5.18,-1.00
4393.00,-5.14,1.59,-7.11,0.87,-1.20,0.37,-27.48,19.61,5.18,-1.00
4405.00,-5.14,1.59,-7.11,0.87,-1.20,0.37,-27.48,19.61,5.18,-1.00
4417.00,-5.37,1.54,-7.15,0.56,-1.10,0.72,-26.92,5.95,0.27,-1.00
4431.00,-8.91,3.49,-10.37,-0.09,-1.10,1.05,-26.92,5.95,0.27,-1.00
4443.00,-8.91,3.49,-10.37,-0.09,-1.10,1.05,-26.92,5.95,0.27,-1.00
4455.00,-7.20,3.65,-10.58,-0.78,-1.34,1.09,-26.92,5.95,0.27,-1.00
4467.00,-7.20,3.65,-10.58,-0.78,-1.34,1.09,-26.92,5.95,0.27,-1.00
4481.00,-4.40,-0.69,-7.38,-0.51,-1.83,1.24,-26.92,5.95,0.27,-1.00
4493.00,-4.54,-0.70,-5.68,-1.37,-2.15,2.18,-26.92,5.95,0.27,-1.00
4505.00,-4.54,-0.70,-5.68,-1.37,-2.15,2.18,-26.92,5.95,0.27,-1.00
4517.00,-5.34,4.51,-8.89,-3.43,-2.31,2.77,-26.92,5.95,0.27,-1.00
4531.00,-7.05,9.37,-9.01,-2.94,-2.60,2.30,-27.48,14.94,4.73,-1.00
4543.00,-7.05,9.37,-9.01,-2.94,-2.60,2.30,-27.48,14.94,4.73,-1.00
4555.00,-8.81,7.56,-6.60,0.07,-2.43,1.04,-27.48,14.94,4.73,-1.00
4567.00,-8.81,7.56,-6.60,0.07,-2.43,1.04,-27.48,14.94,4.73,-1.00
4581.00,-9.03,3.64,-3.96,1.43,-2.06,0.02,-27.48,14.94,4.73,-1.00
4593.00,-8.58,2.51,-3.18,1.26,-1.60,-0.39,-27.48,14.94,4.73,-1.00
4605.00,-8.58,2.51,-3.18,1.26,-1.60,-0.39,-27.48,14.94,4.73,-1.00
4617.00,-7.10,1.25,-4.96,0.98,-1.06,-0.41,-27.48,14.94,4.73,-1.00
4632.00,-5.59,0.91,-7.07,0.29,-0.77,0.00,-27.48,14.94,4.73,-1.00
4643.00,-5.59,0.91,-7.07,0.29,-0.77,0.00,-27.48,14.94,4.73,-1.00
4655.00,-5.96,3.07,-8.53,-0.66,-1.01,0.56,-28.04,8.47,6.52,-1.00
4667.00,-5.96,3.07,-8.53,-0.66,-1.01,0.56,-28.04,8.47,6.52,-1.00
4681.00,-6.97,5.16,-8.74,-0.82,-1.38,0.89,-28.04,8.47,6.52,-1.00
4693.00,-7.60,3.68,-6.64,-0.18,-1.73,0.85,-28.04,8.47,6.52,-1.00
4705.00,-7.60,3.68,-6.64,-0.18,-1.73,0.85,-28.04,8.47,6.52,-1.00
4717.00,-7.66,2.22,-5.44,0.12,-1.81,0.95,-28.04,8.47,6.52,-1.00
4731.00,-8.30,2.40,-4.66,-0.04,-1.74,1.11,-28.04,8.47,6.52,-1.00
4743.00,-8.30,2.40,-4.66,-0.04,-1.74,1.11,-28.04,8.47,6.52,-1.00
4755.00,-7.68,2.95,-5.50,-0.21,-1.43,1.12,-28.04,8.47,6.52,-1.00
4769.00,-7.68,2.95,-5.50,-0.21,-1.43,1.12,-28.04,8.47,6.52,-1.00
4781.00,-7.21,3.90,-7.31,-0.16,-1.23,0.94,-28.60,10.27,10.98,-1.00
4793.00,-6.75,4.32,-8.04,-0.05,-1.33,0.65,-28.60,10.27,10.98,-1.00
4805.00,-6.75,4.32,-8.04,-0.05,-1.33,0.65,-28.60,10.27,10.98,-1.00
4819.00,-7.62,4.18,-7.37,0.18,-1.61,0.40,-28.60,10.27,10.98,-1.00
4831.00,-7.50,3.81,-6.83,0.26,-1.85,0.15,-28.60,10.27,10.98,-1.00
4843.00,-7.50,3.81,-6.83,0.26,-1.85,0.15,-28.60,10.27,10.98,-1.00
4855.00,-6.91,3.10,-6.84,0.53,-1.98,-0.01,-28.60,10.27,10.98,-1.00
4869.00,-6.91,3.10,-6.84,0.53,-1.98,-0.01,-28.60,10.27,10.98,-1.00
4881.00,-6.55,2.97,-6.88,0.91,-2.11,-0.02,-28.60,10.27,10.98,-1.00
4893.00,-8.60,1.91,-4.16,0.95,-2.33,0.03,-28.60,10.27,10.98,-1.00
4905.00,-8.60,1.91,-4.16,0.95,-2.33,0.03,-28.60,10.27,10.98,-1.00
4919.00,-8.42,0.23,-2.92,0.96,-2.07,0.32,-28.46,4.70,13.88,-1.00
4931.00,-7.93,-0.54,-3.14,0.79,-1.57,0.66,-28.46,4.70,13.88,-1.00
4943.00,-7.93,-0.54,-3.14,0.79,-1.57,0.66,-28.46,4.70,13.88,-1.00
4955.00,-6.81,-3.27,-4.41,0.60,-1.16,1.02,-28.46,4.70,13.88,-1.00
4970.00,-6.81,-3.27,-4.41,0.60,-1.16,1.02,-28.46,4.70,13.88,-1.00
4981.00,-7.68,-2.32,-1.30,-0.35,-1.23,2.33,-28.46,4.70,13.88,-1.00
4993.00,-6.55,0.56,-1.21,-1.46,-0.77,3.55,-28.46,4.70,13.88,-1.00
5007.00,-6.55,0.56,-1.21,-1.46,-0.77,3.55,-28.46,4.70,13.88,-1.00
5019.00,-7.68,5.75,-3.02,-2.75,0.31,4.07,-28.46,4.70,13.88,-1.00
5031.00,-8.49,11.59,-9.41,-3.70,1.02,3.12,-28.46,14.04,12.10,-1.00
5043.00,-8.49,11.59,-9.41,-3.70,1.02,3.12,-28.46,14.04,12.10,-1.00
5057.00,-7.90,10.68,-11.65,-2.99,0.46,1.19,-28.46,14.04,12.10,-1.00
5069.00,-7.90,10.68,-11.65,-2.99,0.46,1.19,-28.46,14.04,12.10,-1.00
5081.00,-7.32,8.08,-9.20,-0.90,-0.72,0.08,-28.46,14.04,12.10,-1.00
5093.00,-6.47,3.47,-5.70,0.41,-1.46,-0.14,-28.46,14.04,12.10,-1.00
5107.00,-6.47,3.47,-5.70,0.41,-1.46,-0.14,-28.46,14.04,12.10,-1.00
5119.00,-6.65,0.47,-5.29,0.96,-1.68,0.44,-28.46,14.04,12.10,-1.00
5131.00,-6.39,1.36,-5.75,1.11,-1.77,1.42,-28.46,14.04,12.10,-1.00
5143.00,-6.39,1.36,-5.75,1.11,-1.77,1.42,-28.46,14.04,12.10,-1.00
5157.00,-7.95,5.69,-6.53,1.23,-1.83,2.23,-29.30,14.76,10.76,-1.00
5169.00,-7.95,5.69,-6.53,1.23,-1.83,2.23,-29.30,14.76,10.76,-1.00
5181.00,-9.06,7.58,-4.36,1.62,-1.81,1.88,-29.30,14.76,10.76,-1.00
5193.00,-9.18,6.35,-5.80,1.80,-1.66,0.90,-29.30,14.76,10.76,-1.00
5207.00,-9.18,6.35,-5.80,1.80,-1.66,0.90,-29.30,14.76,10.76,-1.00
5219.00,-9.53,2.36,-3.96,1.31,-1.68,0.22,-29.30,14.76,10.76,-1.00
5231.00,-9.81,1.39,-1.23,0.34,-1.25,0.28,-29.30,14.76,10.76,-1.00
5246.00,-9.81,1.39,-1.23,0.34,-1.25,0.28,-29.30,14.76,10.76,-1.00
5257.00,-7.16,0.74,-2.81,-0.05,-0.33,0.44,-29.30,14.76,10.76,-1.00
5269.00,-7.16,0.74,-2.81,-0.05,-0.33,0.44,-29.30,14.76,10.76,-1.00
5281.00,-2.93,2.06,-7.32,-0.22,0.27,0.58,-28.74,11.17,10.31,-1.00
5295.00,-0.69,2.88,-12.56,0.00,0.16,0.82,-28.74,11.17,10.31,-1.00
5307.00,-0.69,2.88,-12.56,0.00,0.16,0.82,-28.74,11.17,10.31,-1.00
5319.00,-3.06,5.72,-14.09,0.06,-0.86,1.21,-28.74,11.17,10.31,-1.00
5331.00,-5.58,7.23,-13.54,0.24,-2.56,0.97,-28.74,11.17,10.31,-1.00
5345.00,-5.58,7.23,-13.54,0.24,-2.56,0.97,-28.74,11.17,10.31,-1.00
5357.00,-13.11,6.38,-4.51,1.05,-4.21,0.46,-28.74,11.17,10.31,-1.00
5369.00,-13.11,6.38,-4.51,1.05,-4.21,0.46,-28.74,11.17,10.31,-1.00
5381.00,-10.85,1.94,3.69,1.16,-4.03,0.09,-28.74,11.17,10.31,-1.00
5396.00,-13.89,4.18,2.31,1.31,-2.31,0.08,-28.74,11.17,10.31,-1.00
5407.00,-13.89,4.18,2.31,1.31,-2.31,0.08,-28.74,11.17,10.31,-1.00
5419.00,-13.45,-2.51,6.05,1.72,-0.65,-0.20,-28.74,8.29,19.24,-1.00
5431.00,-13.45,-2.51,6.05,1.72,-0.65,-0.20,-28.74,8.29,19.24,-1.00
5445.00,-7.13,-2.93,3.49,0.96,1.28,0.29,-28.74,8.29,19.24,-1.00
5457.00,-2.41,0.76,-5.99,0.11,3.50,1.69,-28.74,8.29,19.24,-1.00
5469.00,-2.41,0.76,-5.99,0.11,3.50,1.69,-28.74,8.29,19.24,-1.00
5481.00,0.54,4.25,-13.73,-1.89,3.59,2.29,-28.74,8.29,19.24,-1.00
5495.00,3.40,3.77,-16.90,-2.69,1.46,1.97,-28.74,8.29,19.24,-1.00
5507.00,3.40,3.77,-16.90,-2.69,1.46,1.97,-28.74,8.29,19.24,-1.00
5519.00,-0.20,5.36,-13.83,-1.33,-1.32,1.91,-28.74,8.29,19.24,-1.00
5533.00,-6.80,8.42,-8.75,-0.61,-3.42,1.46,-27.06,11.17,1.38,-1.00
5545.00,-6.80,8.42,-8.75,-0.61,-3.42,1.46,-27.06,11.17,1.38,-1.00
5557.00,-10.48,4.98,-11.22,0.07,-2.87,0.78,-27.06,11.17,1.38,-1.00
5569.00,-10.48,4.98,-11.22,0.07,-2.87,0.78,-27.06,11.17,1.38,-1.00
5584.00,-6.94,-0.05,-5.19,0.19,-2.31,0.57,-27.06,11.17,1.38,-1.00
5595.00,-5.89,1.18,-4.71,-0.37,-2.17,0.71,-27.06,11.17,1.38,-1.00
5607.00,-5.89,1.18,-4.71,-0.37,-2.17,0.71,-27.06,11.17,1.38,-1.00
5619.00,-8.61,3.43,-5.40,-0.76,-2.19,0.80,-27.06,11.17,1.38,-1.00
5633.00,-8.89,2.63,-3.85,-0.51,-1.97,0.88,-27.06,11.17,1.38,-1.00
5645.00,-8.89,2.63,-3.85,-0.51,-1.97,0.88,-27.06,11.17,1.38,-1.00
5657.00,-8.12,2.47,-2.96,-0.56,-1.54,1.04,-29.16,12.42,9.64,-1.00
5669.00,-8.12,2.47,-2.96,-0.56,-1.54,1.04,-29.16,12.42,9.64,-1.00
5683.00,-7.45,4.47,-5.80,-0.80,-1.02,1.23,-29.16,12.42,9.64,-1.00
5695.00,-6.57,5.20,-7.70,-0.70,-0.87,1.21,-29.16,12.42,9.64,-1.00
5707.00,-6.57,5.20,-7.70,-0.70,-0.87,1.21,-29.16,12.42,9.64,-1.00
5719.00,-5.91,4.68,-7.60,-0.39,-1.11,1.06,-29.16,12.42,9.64,-1.00
5734.00,-7.01,4.08,-6.74,-0.21,-1.38,0.99,-29.16,12.42,9.64,-1.00
5745.00,-7.01,4.08,-6.74,-0.21,-1.38,0.99,-29.16,12.42,9.64,-1.00
5757.00,-7.52,3.97,-5.97,-0.11,-1.50,0.97,-29.16,12.42,9.64,-1.00
5771.00,-7.52,3.97,-5.97,-0.11,-1.50,0.97,-29.16,12.42,9.64,-1.00
5860.00,-7.68,5.54,-5.84,-0.11,-2.09,0.68,-28.60,12.42,10.54,-1.00
5949.00,-6.33,0.39,-2.87,0.17,-0.82,0.89,-30.13,11.53,13.44,-1.00
6038.00,-8.11,5.62,-5.95,0.25,-1.84,1.18,-29.30,14.40,12.99,-1.00
6052.00,-8.08,6.63,-5.55,0.29,-1.83,0.82,-29.30,14.40,12.99,-1.00
6064.00,-8.08,6.63,-5.55,0.29,-1.83,0.82,-29.30,14.40,12.99,-1.00
6076.00,-7.02,5.06,-6.25,0.56,-1.77,0.31,-29.30,14.40,12.99,-1.00
6088.00,-7.02,5.06,-6.25,0.56,-1.77,0.31,-29.30,14.40,12.99,-1.00
6102.00,-6.66,2.20,-4.24,1.04,-1.77,0.12,-29.30,14.40,12.99,-1.00
6114.00,-7.22,0.44,-2.76,1.04,-1.49,0.47,-29.30,14.40,12.99,-1.00
6126.00,-7.22,0.44,-2.76,1.04,-1.49,0.47,-29.30,14.40,12.99,-1.00
6138.00,-7.27,1.31,-3.55,0.49,-1.02,1.07,-29.30,14.40,12.99,-1.00
6152.00,-7.35,3.31,-7.70,0.06,-0.76,1.54,-29.85,12.24,13.44,-1.00
6164.00,-7.35,3.31,-7.70,0.06,-0.76,1.54,-29.85,12.24,13.44,-1.00
6176.00,-7.95,5.93,-8.12,-0.03,-1.17,1.70,-29.85,12.24,13.44,-1.00
6188.00,-7.95,5.93,-8.12,-0.03,-1.17,1.70,-29.85,12.24,13.44,-1.00
6202.00,-8.41,6.24,-6.37,0.20,-1.62,1.29,-29.85,12.24,13.44,-1.00
6214.00,-7.75,5.69,-6.79,0.16,-1.75,0.66,-29.85,12.24,13.44,-1.00
6226.00,-7.75,5.69,-6.79,0.16,-1.75,0.66,-29.85,12.24,13.44,-1.00
6240.00,-7.38,4.21,-6.18,0.16,-1.84,0.17,-29.85,12.24,13.44,-1.00
6252.00,-7.44,1.60,-2.89,0.52,-1.79,0.04,-29.85,12.24,13.44,-1.00
6264.00,-7.44,1.60,-2.89,0.52,-1.79,0.04,-29.85,12.24,13.44,-1.00
6276.00,-7.07,-0.83,-1.67,0.68,-1.25,0.37,-29.85,12.24,13.44,-1.00
6290.00,-7.07,-0.83,-1.67,0.68,-1.25,0.37,-29.85,12.24,13.44,-1.00
6302.00,-6.35,-0.16,-1.89,0.07,-0.54,1.07,-29.44,12.06,17.23,-1.00
6314.00,-7.69,3.21,-7.74,-0.94,-0.00,1.78,-29.44,12.06,17.23,-1.00
6326.00,-7.69,3.21,-7.74,-0.94,-0.00,1.78,-29.44,12.06,17.23,-1.00
6340.00,-7.82,6.21,-8.77,-0.71,-0.41,2.13,-29.44,12.06,17.23,-1.00
6352.00,-7.82,6.21,-8.77,-0.71,-0.41,2.13,-29.44,12.06,17.23,-1.00
6364.00,-8.52,6.86,-7.12,-0.03,-1.07,1.77,-29.44,12.06,17.23,-1.00
6376.00,-8.38,6.37,-6.93,0.55,-1.41,1.20,-29.44,12.06,17.23,-1.00
6390.00,-8.38,6.37,-6.93,0.55,-1.41,1.20,-29.44,12.06,17.23,-1.00
6402.00,-7.51,5.52,-7.72,0.55,-1.62,0.69,-29.44,12.06,17.23,-1.00
6414.00,-6.03,4.46,-7.68,0.47,-1.89,0.32,-29.16,15.30,13.66,-1.00
6426.00,-6.03,4.46,-7.68,0.47,-1.89,0.32,-29.16,15.30,13.66,-1.00
6441.00,-7.36,1.18,-2.84,0.83,-2.11,0.16,-29.16,15.30,13.66,-1.00
6452.00,-7.36,1.18,-2.84,0.83,-2.11,0.16,-29.16,15.30,13.66,-1.00
6464.00,-7.36,0.27,-2.40,0.70,-1.62,0.53,-29.16,15.30,13.66,-1.00
6478.00,-7.48,1.02,-4.29,0.30,-0.99,1.13,-29.16,15.30,13.66,-1.00
6490.00,-7.48,1.02,-4.29,0.30,-0.99,1.13,-29.16,15.30,13.66,-1.00
6502.00,-7.41,3.39,-7.52,-0.02,-0.77,1.60,-29.16,15.30,13.66,-1.00
6514.00,-7.86,5.01,-7.42,0.03,-1.10,1.68,-29.16,15.30,13.66,-1.00
6528.00,-7.86,5.01,-7.42,0.03,-1.10,1.68,-29.16,15.30,13.66,-1.00
6540.00,-8.20,4.62,-6.49,0.27,-1.44,1.37,-28.88,15.30,16.34,-1.00
6552.00,-8.20,4.62,-6.49,0.27,-1.44,1.37,-28.88,15.30,16.34,-1.00
6564.00,-8.18,5.18,-6.23,0.30,-1.60,1.06,-28.88,15.30,16.34,-1.00
6578.00,-7.49,5.01,-7.45,0.26,-1.69,0.69,-28.88,15.30,16.34,-1.00
6590.00,-7.49,5.01,-7.45,0.26,-1.69,0.69,-28.88,15.30,16.34,-1.00
6602.00,-7.83,3.69,-5.39,0.46,-1.90,0.41,-28.88,15.30,16.34,-1.00
6615.00,-7.37,0.87,-2.24,0.79,-1.82,0.34,-28.88,15.30,16.34,-1.00
6628.00,-7.37,0.87,-2.24,0.79,-1.82,0.34,-28.88,15.30,16.34,-1.00
6640.00,-7.31,0.29,-3.44,0.45,-1.27,0.76,-28.88,15.30,16.34,-1.00
6652.00,-7.31,0.29,-3.44,0.45,-1.27,0.76,-28.88,15.30,16.34,-1.00
6664.00,-7.59,1.83,-6.02,-0.04,-0.93,1.36,-29.02,13.32,16.56,-1.00
6678.00,-8.20,4.62,-7.68,0.02,-1.04,1.69,-29.02,13.32,16.56,-1.00
6690.00,-8.20,4.62,-7.68,0.02,-1.04,1.69,-29.02,13.32,16.56,-1.00
6702.00,-8.27,5.08,-6.51,0.27,-1.43,1.45,-29.02,13.32,16.56,-1.00
6714.00,-7.83,4.84,-6.75,0.27,-1.60,0.96,-29.02,13.32,16.56,-1.00
6728.00,-7.83,4.84,-6.75,0.27,-1.60,0.96,-29.02,13.32,16.56,-1.00
6817.00,-8.95,4.33,-5.18,0.43,-1.37,1.46,-29.72,12.42,19.91,-1.00
6906.00,-6.87,0.17,-2.87,0.46,0.62,0.49,-29.72,12.42,19.91,-1.00
6920.00,-4.00,0.99,-5.79,-0.63,0.81,1.04,-30.97,10.81,17.45,-1.00
6933.00,-4.00,0.99,-5.79,-0.63,0.81,1.04,-30.97,10.81,17.45,-1.00
6944.00,-2.32,1.59,-8.16,-1.50,0.50,1.36,-30.97,10.81,17.45,-1.00
6956.00,-3.29,2.91,-10.08,-2.09,-0.22,1.67,-30.97,10.81,17.45,-1.00
6970.00,-3.29,2.91,-10.08,-2.09,-0.22,1.67,-30.97,10.81,17.45,-1.00
6982.00,-7.18,6.07,-11.76,-1.41,-0.48,2.08,-30.97,10.81,17.45,-1.00
6994.00,-5.64,4.63,-10.17,-1.11,-0.92,1.79,-30.97,10.81,17.45,-1.00
7006.00,-5.64,4.63,-10.17,-1.11,-0.92,1.79,-30.97,10.81,17.45,-1.00
7020.00,-7.09,3.73,-7.49,-0.54,-1.47,1.34,-30.97,10.81,17.45,-1.00
7032.00,-7.09,3.73,-7.49,-0.54,-1.47,1.34,-30.97,10.81,17.45,-1.00
7044.00,-9.01,3.44,-5.66,-0.26,-1.69,0.96,-29.30,13.68,12.99,-1.00
7056.00,-9.21,4.07,-4.60,-0.20,-1.53,0.85,-29.30,13.68,12.99,-1.00
7070.00,-9.21,4.07,-4.60,-0.20,-1.53,0.85,-29.30,13.68,12.99,-1.00
7082.00,-8.92,3.90,-4.12,-0.33,-1.23,0.77,-29.30,13.68,12.99,-1.00
7094.00,-8.01,4.92,-5.92,-0.58,-0.97,0.71,-29.30,13.68,12.99,-1.00
7108.00,-8.01,4.92,-5.92,-0.58,-0.97,0.71,-29.30,13.68,12.99,-1.00
7120.00,-6.90,6.13,-7.66,-0.55,-1.00,0.54,-29.30,13.68,12.99,-1.00
7132.00,-6.90,6.13,-7.66,-0.55,-1.00,0.54,-29.30,13.68,12.99,-1.00
7144.00,-5.43,5.56,-8.02,-0.15,-1.28,0.21,-29.30,13.68,12.99,-1.00
7159.00,-4.84,4.20,-8.72,0.40,-1.68,-0.02,-30.13,13.32,10.76,-1.00
7170.00,-4.84,4.20,-8.72,0.40,-1.68,-0.02,-30.13,13.32,10.76,-1.00
7182.00,-8.44,1.62,-2.45,0.70,-2.05,0.09,-30.13,13.32,10.76,-1.00
7194.00,-7.75,-0.02,-1.68,0.57,-1.67,0.49,-30.13,13.32,10.76,-1.00
7209.00,-7.75,-0.02,-1.68,0.57,-1.67,0.49,-30.13,13.32,10.76,-1.00
7220.00,-7.09,0.75,-4.71,0.12,-0.92,1.24,-30.13,13.32,10.76,-1.00
7232.00,-7.09,0.75,-4.71,0.12,-0.92,1.24,-30.13,13.32,10.76,-1.00
7244.00,-6.87,3.72,-7.91,-0.31,-0.73,1.92,-30.13,13.32,10.76,-1.00
7258.00,-7.90,5.66,-8.07,-0.19,-1.18,2.08,-30.13,13.32,10.76,-1.00
7270.00,-7.90,5.66,-8.07,-0.19,-1.18,2.08,-30.13,13.32,10.76,-1.00
7282.00,-7.97,5.35,-6.84,0.21,-1.62,1.67,-30.13,13.32,10.76,-1.00
7297.00,-7.94,4.26,-4.67,0.44,-1.69,1.20,-29.16,13.50,13.66,-1.00
7309.00,-7.94,4.26,-4.67,0.44,-1.69,1.20,-29.16,13.50,13.66,-1.00
7321.00,-8.06,4.74,-5.84,0.23,-1.42,0.86,-29.16,13.50,13.66,-1.00
7333.00,-8.06,4.74,-5.84,0.23,-1.42,0.86,-29.16,13.50,13.66,-1.00
7347.00,-7.98,5.90,-6.28,-0.09,-1.33,0.52,-29.16,13.50,13.66,-1.00
7359.00,-6.62,2.85,-7.24,0.02,-1.39,-0.09,-29.16,13.50,13.66,-1.00
7371.00,-6.62,2.85,-7.24,0.02,-1.39,-0.09,-29.16,13.50,13.66,-1.00
7383.00,-7.41,2.62,-5.14,0.19,-1.66,0.09,-29.16,13.50,13.66,-1.00
7398.00,-8.37,3.13,-5.18,0.27,-1.66,0.45,-29.16,13.50,13.66,-1.00
7409.00,-8.37,3.13,-5.18,0.27,-1.66,0.45,-29.16,13.50,13.66,-1.00
7421.00,-7.57,3.15,-6.56,0.22,-1.76,0.59,-29.85,12.24,15.67,-1.00
7433.00,-7.57,3.15,-6.56,0.22,-1.76,0.59,-29.85,12.24,15.67,-1.00
7447.00,-7.76,3.91,-5.03,0.01,-2.06,0.66,-29.85,12.24,15.67,-1.00
7459.00,-8.08,1.11,-1.37,0.62,-1.84,0.67,-29.85,12.24,15.67,-1.00
7471.00,-8.08,1.11,-1.37,0.62,-1.84,0.67,-29.85,12.24,15.67,-1.00
7483.00,-11.53,1.13,0.13,1.21,-1.06,1.04,-29.85,12.24,15.67,-1.00
7497.00,-9.60,1.10,-0.04,1.02,0.16,1.46,-29.85,12.24,15.67,-1.00
7509.00,-9.60,1.10,-0.04,1.02,0.16,1.46,-29.85,12.24,15.67,-1.00
7521.00,-7.67,2.87,-3.84,0.24,1.16,1.71,-29.85,12.24,15.67,-1.00
7533.00,-7.67,2.87,-3.84,0.24,1.16,1.71,-29.85,12.24,15.67,-1.00
7548.00,-4.38,4.47,-8.97,-0.79,1.34,1.74,-29.30,12.96,9.42,-1.00
7559.00,-3.92,5.24,-10.13,-1.51,0.43,1.36,-29.30,12.96,9.42,-1.00
7571.00,-3.92,5.24,-10.13,-1.51,0.43,1.36,-29.30,12.96,9.42,-1.00
7585.00,-3.58,3.43,-9.91,-1.27,-0.68,0.87,-29.30,12.96,9.42,-1.00
7597.00,-6.14,2.94,-8.47,-0.89,-1.61,0.64,-29.30,12.96,9.42,-1.00
7609.00,-6.14,2.94,-8.47,-0.89,-1.61,0.64,-29.30,12.96,9.42,-1.00
7621.00,-6.84,3.32,-9.82,-0.51,-1.32,0.97,-29.30,12.96,9.42,-1.00
7635.00,-7.12,3.80,-6.65,-0.65,-1.42,1.00,-29.30,12.96,9.42,-1.00
7647.00,-7.12,3.80,-6.65,-0.65,-1.42,1.00,-29.30,12.96,9.42,-1.00
7659.00,-8.54,4.16,-4.75,-0.42,-1.52,0.79,-28.46,12.24,9.87,-1.00
7671.00,-8.54,4.16,-4.75,-0.42,-1.52,0.79,-28.46,12.24,9.87,-1.00
7685.00,-8.14,3.58,-4.59,-0.27,-1.28,0.70,-28.46,12.24,9.87,-1.00
7697.00,-7.30,3.32,-4.77,-0.25,-0.95,0.86,-28.46,12.24,9.87,-1.00
7709.00,-7.30,3.32,-4.77,-0.25,-0.95,0.86,-28.46,12.24,9.87,-1.00
7721.00,-7.03,3.77,-6.26,-0.39,-0.77,1.09,-28.46,12.24,9.87,-1.00
7735.00,-6.70,4.38,-6.35,-0.44,-0.80,1.23,-28.46,12.24,9.87,-1.00
7747.00,-6.70,4.38,-6.35,-0.44,-0.80,1.23,-28.46,12.24,9.87,-1.00
7759.00,-6.52,4.60,-6.76,-0.41,-0.84,1.18,-28.46,12.24,9.87,-1.00
7771.00,-6.52,4.60,-6.76,-0.41,-0.84,1.18,-28.46,12.24,9.87,-1.00
7785.00,-6.55,3.97,-7.12,-0.44,-0.95,1.06,-28.46,12.24,9.87,-1.00
7797.00,-6.70,4.07,-6.52,-0.57,-1.14,1.02,-27.90,15.48,8.08,-1.00
7809.00,-6.70,4.07,-6.52,-0.57,-1.14,1.02,-27.90,15.48,8.08,-1.00
7821.00,-6.56,4.82,-6.97,-0.48,-1.23,1.02,-27.90,15.48,8.08,-1.00
7835.00,-6.56,5.09,-7.25,-0.25,-1.39,0.96,-27.90,15.48,8.08,-1.00
7848.00,-6.56,5.09,-7.25,-0.25,-1.39,0.96,-27.90,15.48,8.08,-1.00
7860.00,-8.80,4.78,-5.97,0.02,-1.64,0.86,-27.90,15.48,8.08,-1.00
7874.00,-7.41,3.60,-5.68,0.17,-1.58,0.85,-27.90,15.48,8.08,-1.00
7886.00,-7.41,3.60,-5.68,0.17,-1.58,0.85,-27.90,15.48,8.08,-1.00
7898.00,-7.43,4.40,-7.48,0.29,-1.55,1.01,-27.90,15.48,8.08,-1.00
7910.00,-7.43,4.40,-7.48,0.29,-1.55,1.01,-27.90,15.48,8.08,-1.00
7924.00,-7.37,6.44,-6.54,0.12,-1.85,0.89,-28.04,13.86,10.98,-1.00
7936.00,-7.21,5.63,-5.58,0.34,-1.94,0.33,-28.04,13.86,10.98,-1.00
7948.00,-7.21,5.63,-5.58,0.34,-1.94,0.33,-28.04,13.86,10.98,-1.00
7960.00,-6.91,2.81,-4.26,0.64,-1.75,-0.06,-28.04,13.86,10.98,-1.00
7975.00,-6.36,1.28,-3.89,0.57,-1.44,0.08,-28.04,13.86,10.98,-1.00
7986.00,-6.36,1.28,-3.89,0.57,-1.44,0.08,-28.04,13.86,10.98,-1.00
7998.00,-6.66,0.57,-3.63,0.25,-1.06,0.62,-28.04,13.86,10.98,-1.00
8010.00,-6.66,0.57,-3.63,0.25,-1.06,0.62,-28.04,13.86,10.98,-1.00
8024.00,-6.65,1.34,-4.30,-0.34,-0.67,1.21,-28.04,13.86,10.98,-1.00
8036.00,-6.92,3.65,-7.53,-0.96,-0.46,1.77,-28.88,12.42,10.98,-1.00
8048.00,-6.92,3.65,-7.53,-0.96,-0.46,1.77,-28.88,12.42,10.98,-1.00
8060.00,-7.42,5.96,-8.08,-0.72,-0.84,2.02,-28.88,12.42,10.98,-1.00
8074.00,-7.52,5.21,-8.06,-0.09,-1.29,1.83,-28.88,12.42,10.98,-1.00
8086.00,-7.52,5.21,-8.06,-0.09,-1.29,1.83,-28.88,12.42,10.98,-1.00
8098.00,-7.84,6.08,-6.85,0.36,-1.64,1.60,-28.88,12.42,10.98,-1.00
8112.00,-7.84,6.08,-6.85,0.36,-1.64,1.60,-28.88,12.42,10.98,-1.00
8124.00,-7.70,6.81,-6.59,0.51,-1.77,1.12,-28.88,12.42,10.98,-1.00
8136.00,-7.28,6.74,-6.38,0.59,-1.87,0.48,-28.88,12.42,10.98,-1.00
8148.00,-7.28,6.74,-6.38,0.59,-1.87,0.48,-28.88,12.42,10.98,-1.00
8163.00,-6.87,3.72,-5.25,0.91,-1.92,-0.09,-28.88,12.42,10.98,-1.00
8174.00,-6.87,3.72,-5.25,0.91,-1.92,-0.09,-28.88,12.42,10.98,-1.00
8186.00,-6.22,0.78,-3.55,1.12,-1.76,-0.06,-29.99,12.42,14.11,-1.00
8198.00,-6.87,1.34,-3.83,0.76,-1.38,0.56,-29.99,12.42,14.11,-1.00
8212.00,-6.87,1.34,-3.83,0.76,-1.38,0.56,-29.99,12.42,14.11,-1.00
8224.00,-6.73,1.16,-5.58,0.21,-1.06,1.16,-29.99,12.42,14.11,-1.00
8236.00,-7.61,3.59,-5.97,-0.23,-1.02,1.66,-29.99,12.42,14.11,-1.00
8248.00,-7.61,3.59,-5.97,-0.23,-1.02,1.66,-29.99,12.42,14.11,-1.00
8262.00,-7.94,4.97,-6.59,-0.29,-1.10,1.70,-29.99,12.42,14.11,-1.00
8274.00,-7.94,4.97,-6.59,-0.29,-1.10,1.70,-29.99,12.42,14.11,-1.00
8286.00,-7.76,4.85,-6.88,-0.05,-1.22,1.40,-29.99,12.42,14.11,-1.00
8298.00,-8.21,5.63,-6.82,-0.20,-1.40,1.06,-29.72,14.22,15.89,-1.00
8312.00,-8.21,5.63,-6.82,-0.20,-1.40,1.06,-29.72,14.22,15.89,-1.00
8400.00,-7.03,0.05,-3.59,0.42,-1.37,0.75,-29.72,14.22,15.89,-1.00
8488.00,-8.34,5.22,-6.25,0.68,-1.28,1.26,-29.02,11.53,15.67,-1.00
8502.00,-7.99,4.07,-6.43,0.76,-1.41,0.90,-29.02,11.53,15.67,-1.00
8514.00,-7.99,4.07,-6.43,0.76,-1.41,0.90,-29.02,11.53,15.67,-1.00
8526.00,-8.30,3.12,-5.75,0.62,-1.57,0.82,-29.02,11.53,15.67,-1.00
8538.00,-7.95,3.43,-5.66,0.23,-1.56,0.84,-29.44,11.70,18.12,-1.00
8552.00,-7.95,3.43,-5.66,0.23,-1.56,0.84,-29.44,11.70,18.12,-1.00
8564.00,-6.14,3.73,-6.34,0.10,-1.52,0.72,-29.44,11.70,18.12,-1.00
8576.00,-5.54,3.39,-7.67,0.41,-1.52,0.60,-29.44,11.70,18.12,-1.00
8588.00,-5.54,3.39,-7.67,0.41,-1.52,0.60,-29.44,11.70,18.12,-1.00
8602.00,-11.12,2.53,-5.34,0.62,-1.94,0.55,-29.44,11.70,18.12,-1.00
8614.00,-11.12,2.53,-5.34,0.62,-1.94,0.55,-29.44,11.70,18.12,-1.00
8626.00,-8.76,0.46,-0.34,0.38,-1.91,0.60,-29.44,11.70,18.12,-1.00
8638.00,-7.86,0.90,-2.18,0.12,-1.02,0.98,-29.44,11.70,18.12,-1.00
8652.00,-7.86,0.90,-2.18,0.12,-1.02,0.98,-29.44,11.70,18.12,-1.00
8664.00,-7.29,1.98,-5.72,-0.15,-0.36,1.52,-29.44,11.70,18.12,-1.00
8677.00,-8.07,4.68,-8.91,-0.26,-0.39,1.86,-29.30,12.60,18.79,-1.00
8689.00,-8.07,4.68,-8.91,-0.26,-0.39,1.86,-29.30,12.60,18.79,-1.00
8703.00,-8.08,5.52,-8.83,0.11,-0.99,1.76,-29.30,12.60,18.79,-1.00
8715.00,-8.51,5.03,-6.43,0.41,-1.69,1.31,-29.30,12.60,18.79,-1.00
8727.00,-8.51,5.03,-6.43,0.41,-1.69,1.31,-29.30,12.60,18.79,-1.00
8741.00,-7.90,5.16,-6.68,0.13,-1.95,0.81,-29.30,12.60,18.79,-1.00
8753.00,-7.90,5.16,-6.68,0.13,-1.95,0.81,-29.30,12.60,18.79,-1.00
8765.00,-7.50,4.46,-6.98,0.01,-2.05,0.35,-29.30,12.60,18.79,-1.00
8777.00,-7.82,3.30,-3.78,0.32,-2.15,0.08,-29.30,12.60,18.79,-1.00
8791.00,-7.82,3.30,-3.78,0.32,-2.15,0.08,-29.30,12.60,18.79,-1.00
8803.00,-7.93,0.39,-1.03,0.62,-1.81,0.06,-31.25,11.88,21.47,-1.00
8815.00,-7.63,-0.54,-1.89,0.38,-1.07,0.49,-31.25,11.88,21.47,-1.00
8827.00,-7.63,-0.54,-1.89,0.38,-1.07,0.49,-31.25,11.88,21.47,-1.00
8842.00,-7.05,0.04,-3.42,-0.20,-0.39,1.22,-31.25,11.88,21.47,-1.00
8853.00,-7.05,0.04,-3.42,-0.20,-0.39,1.22,-31.25,11.88,21.47,-1.00
8865.00,-7.79,2.91,-6.59,-0.51,-0.12,1.87,-31.25,11.88,21.47,-1.00
8877.00,-8.19,5.44,-8.17,-0.14,-0.38,2.03,-31.25,11.88,21.47,-1.00
8891.00,-8.19,5.44,-8.17,-0.14,-0.38,2.03,-31.25,11.88,21.47,-1.00
8903.00,-8.63,5.63,-8.04,0.29,-0.91,1.69,-31.25,11.88,21.47,-1.00
8915.00,-8.52,5.52,-7.29,0.50,-1.44,1.17,-31.25,11.88,21.47,-1.00
8927.00,-8.52,5.52,-7.29,0.50,-1.44,1.17,-29.44,13.14,16.34,-1.00
8941.00,-7.38,4.59,-7.59,0.36,-1.77,0.64,-29.44,13.14,16.34,-1.00
8953.00,-7.38,4.59,-7.59,0.36,-1.77,0.64,-29.44,13.14,16.34,-1.00
8965.00,-7.23,3.57,-7.07,0.30,-1.97,0.36,-29.44,13.14,16.34,-1.00
8979.00,-7.77,1.66,-2.98,0.51,-2.15,0.26,-29.44,13.14,16.34,-1.00
8991.00,-7.77,1.66,-2.98,0.51,-2.15,0.26,-29.44,13.14,16.34,-1.00
9003.00,-7.77,0.10,-2.05,0.52,-1.74,0.50,-29.44,13.14,16.34,-1.00
9015.00,-7.74,0.44,-3.46,0.14,-1.14,1.07,-29.44,13.14,16.34,-1.00
9029.00,-7.74,0.44,-3.46,0.14,-1.14,1.07,-29.44,13.14,16.34,-1.00
9041.00,-7.75,2.55,-6.30,-0.12,-0.80,1.61,-29.72,12.42,21.25,-1.00
9053.00,-7.75,2.55,-6.30,-0.12,-0.80,1.61,-29.72,12.42,21.25,-1.00
9065.00,-8.48,4.95,-7.66,0.05,-0.96,1.76,-29.72,12.42,21.25,-1.00
9079.00,-8.72,5.20,-6.63,0.38,-1.37,1.37,-29.72,12.42,21.25,-1.00
9091.00,-8.72,5.20,-6.63,0.38,-1.37,1.37,-29.72,12.42,21.25,-1.00
9103.00,-8.15,4.29,-6.90,0.45,-1.61,0.85,-29.72,12.42,21.25,-1.00
9115.00,-8.15,4.29,-6.90,0.45,-1.61,0.85,-29.72,12.42,21.25,-1.00
9129.00,-7.95,3.67,-6.31,0.20,-1.82,0.50,-29.72,12.42,21.25,-1.00
9141.00,-7.78,2.64,-5.26,0.08,-1.95,0.33,-29.72,12.42,21.25,-1.00
9153.00,-7.78,2.64,-5.26,0.08,-1.95,0.33,-29.72,12.42,21.25,-1.00
9165.00,-7.88,0.79,-2.42,0.22,-1.88,0.42,-29.72,12.42,21.25,-1.00
9180.00,-7.98,0.52,-3.31,0.22,-1.40,0.83,-30.83,10.99,22.14,-1.00
9191.00,-7.98,0.52,-3.31,0.22,-1.40,0.83,-30.83,10.99,22.14,-1.00
9203.00,-7.77,1.90,-5.49,0.15,-1.03,1.33,-30.83,10.99,22.14,-1.00
9217.00,-8.92,4.99,-5.80,0.31,-1.11,1.59,-30.83,10.99,22.14,-1.00
9229.00,-8.92,4.99,-5.80,0.31,-1.11,1.59,-30.83,10.99,22.14,-1.00
9241.00,-8.87,4.60,-5.13,0.61,-1.27,1.17,-30.83,10.99,22.14,-1.00
9253.00,-8.87,4.60,-5.13,0.61,-1.27,1.17,-30.83,10.99,22.14,-1.00
9267.00,-9.57,3.58,-4.92,0.80,-1.19,0.63,-30.83,10.99,22.14,-1.00
9279.00,-9.12,1.33,-3.87,0.68,-0.98,0.36,-30.83,10.99,22.14,-1.00
9291.00,-9.12,1.33,-3.87,0.68,-0.98,0.36,-30.83,10.99,22.14,-1.00
9303.00,-7.52,0.70,-4.27,0.19,-0.75,0.47,-30.83,12.06,20.80,-1.00
9317.00,-5.51,1.82,-8.37,-0.59,-0.84,0.49,-30.83,12.06,20.80,-1.00
9329.00,-5.51,1.82,-8.37,-0.59,-0.84,0.49,-30.83,12.06,20.80,-1.00
9341.00,-3.00,2.74,-13.48,-0.91,-1.20,0.57,-30.83,12.06,20.80,-1.00
9353.00,-3.00,2.74,-13.48,-0.91,-1.20,0.57,-30.83,12.06,20.80,-1.00
9367.00,-9.25,4.37,-6.25,-1.16,-2.47,0.61,-30.83,12.06,20.80,-1.00
9379.00,-9.48,1.38,2.63,-0.14,-3.16,0.32,-30.83,12.06,20.80,-1.00
9391.00,-9.48,1.38,2.63,-0.14,-3.16,0.32,-30.83,12.06,20.80,-1.00
9403.00,-9.83,1.54,3.15,0.41,-1.75,0.59,-30.83,12.06,20.80,-1.00
9417.00,-12.72,1.11,-1.08,0.46,-0.09,0.86,-28.88,8.47,24.37,-1.00
9429.00,-12.72,1.11,-1.08,0.46,-0.09,0.86,-28.88,8.47,24.37,-1.00
9441.00,-9.38,0.48,-1.06,-0.28,0.67,1.06,-28.88,8.47,24.37,-1.00
9456.00,-9.38,0.48,-1.06,-0.28,0.67,1.06,-28.88,8.47,24.37,-1.00
9467.00,-5.83,1.38,-4.83,-0.83,1.01,1.32,-28.88,8.47,24.37,-1.00
9479.00,-4.04,2.86,-9.72,-1.03,1.09,1.66,-28.88,8.47,24.37,-1.00
9491.00,-4.04,2.86,-9.72,-1.03,1.09,1.66,-28.88,8.47,24.37,-1.00
9505.00,-3.76,3.86,-11.39,-1.50,0.07,1.59,-28.88,8.47,24.37,-1.00
9517.00,-6.26,3.59,-8.95,-1.39,-0.87,1.38,-28.88,8.47,24.37,-1.00
9529.00,-6.26,3.59,-8.95,-1.39,-0.87,1.38,-28.88,8.47,24.37,-1.00
9541.00,-7.14,3.28,-8.66,-1.16,-1.02,1.29,-29.58,11.53,14.33,-1.00
9555.00,-7.14,3.28,-8.66,-1.16,-1.02,1.29,-29.58,11.53,14.33,-1.00
9567.00,-8.27,3.99,-6.92,-0.86,-1.32,1.11,-29.58,11.53,14.33,-1.00
9579.00,-9.84,4.60,-5.28,-0.44,-1.56,0.84,-29.58,11.53,14.33,-1.00
9591.00,-9.84,4.60,-5.28,-0.44,-1.56,0.84,-29.58,11.53,14.33,-1.00
9606.00,-9.35,4.31,-5.13,-0.22,-1.40,0.57,-29.58,11.53,14.33,-1.00
9617.00,-8.57,4.52,-5.68,-0.07,-1.26,0.34,-29.58,11.53,14.33,-1.00
9629.00,-8.57,4.52,-5.68,-0.07,-1.26,0.34,-29.58,11.53,14.33,-1.00
9641.00,-7.54,4.47,-7.93,0.18,-1.32,0.12,-29.58,11.53,14.33,-1.00
9655.00,-7.54,4.47,-7.93,0.18,-1.32,0.12,-29.58,11.53,14.33,-1.00
9667.00,-5.97,4.45,-8.14,0.45,-1.68,-0.11,-29.58,11.53,14.33,-1.00
9679.00,-5.76,2.74,-8.05,0.76,-2.10,-0.23,-29.44,8.83,16.78,-1.00
9691.00,-5.76,2.74,-8.05,0.76,-2.10,-0.23,-29.44,8.83,16.78,-1.00
9705.00,-8.36,1.39,-2.38,0.67,-2.56,-0.04,-29.44,8.83,16.78,-1.00
9717.00,-8.22,-2.11,0.48,0.71,-2.19,0.38,-29.44,8.83,16.78,-1.00
9729.00,-8.22,-2.11,0.48,0.71,-2.19,0.38,-29.44,8.83,16.78,-1.00
9743.00,-7.67,-2.16,-0.61,0.17,-1.29,1.09,-29.44,8.83,16.78,-1.00
9755.00,-7.67,-2.16,-0.61,0.17,-1.29,1.09,-29.44,8.83,16.78,-1.00
9767.00,-6.52,-0.99,-2.84,-0.83,-0.25,2.31,-29.44,8.83,16.78,-1.00
9779.00,-8.81,4.27,-6.19,-2.01,0.13,3.21,-29.44,8.83,16.78,-1.00
9794.00,-8.81,4.27,-6.19,-2.01,0.13,3.21,-29.44,8.83,16.78,-1.00
9805.00,-8.75,9.08,-10.27,-1.65,0.01,3.03,-29.02,12.96,15.67,-1.00
9817.00,-8.69,10.01,-11.53,-0.90,-0.80,1.54,-29.02,12.96,15.67,-1.00
9829.00,-8.69,10.01,-11.53,-0.90,-0.80,1.54,-29.02,12.96,15.67,-1.00
9843.00,-7.63,8.03,-10.14,-0.09,-1.96,0.15,-29.02,12.96,15.67,-1.00
9855.00,-7.63,8.03,-10.14,-0.09,-1.96,0.15,-29.02,12.96,15.67,-1.00
9867.00,-7.49,2.61,-4.67,0.79,-2.81,-0.45,-29.02,12.96,15.67,-1.00
9879.00,-8.32,0.34,-0.16,1.18,-2.90,-0.20,-29.02,12.96,15.67,-1.00
9893.00,-8.32,0.34,-0.16,1.18,-2.90,-0.20,-29.02,12.96,15.67,-1.00
9905.00,-11.92,-0.60,3.09,1.44,-2.07,0.48,-29.02,12.96,15.67,-1.00
9917.00,-10.56,0.58,3.84,1.03,-0.46,1.16,-29.58,10.81,21.47,-1.00
9931.00,-10.56,0.58,3.84,1.03,-0.46,1.16,-29.58,10.81,21.47,-1.00
9943.00,-6.16,-0.13,0.13,0.37,1.32,1.72,-29.58,10.81,21.47,-1.00
9955.00,-6.16,-0.13,0.13,0.37,1.32,1.72,-29.58,10.81,21.47,-1.00
9967.00,-2.69,3.32,-8.29,-0.76,2.16,2.30,-29.58,10.81,21.47,-1.00
9981.00,-3.76,6.06,-12.09,-1.56,1.31,2.21,-29.58,10.81,21.47,-1.00
9993.00,-3.76,6.06,-12.09,-1.56,1.31,2.21,-29.58,10.81,21.47,-1.00
10005.00,-5.37,7.35,-12.57,-1.72,-0.17,1.52,-29.58,10.81,21.47,-1.00
10017.00,-5.54,5.23,-9.58,-0.94,-1.20,0.79,-29.58,10.81,21.47,-1.00
10031.00,-5.54,5.23,-9.58,-0.94,-1.20,0.79,-29.58,10.81,21.47,-1.00
10043.00,-5.45,3.14,-8.75,-0.12,-1.35,0.57,-29.58,10.81,21.47,-1.00
10055.00,-5.45,3.14,-8.75,-0.12,-1.35,0.57,-29.58,10.81,21.47,-1.00
10067.00,-6.97,2.17,-7.10,0.04,-1.49,0.60,-27.62,14.76,9.87,-1.00
10081.00,-8.83,2.63,-5.10,-0.08,-1.47,0.90,-27.62,14.76,9.87,-1.00
10093.00,-8.83,2.63,-5.10,-0.08,-1.47,0.90,-27.62,14.76,9.87,-1.00
10105.00,-8.54,4.04,-4.33,-0.21,-1.34,1.06,-27.62,14.76,9.87,-1.00
10117.00,-6.40,4.70,-7.18,-0.31,-1.03,1.05,-27.62,14.76,9.87,-1.00
10131.00,-6.40,4.70,-7.18,-0.31,-1.03,1.05,-27.62,14.76,9.87,-1.00
10143.00,-5.71,5.61,-8.76,-0.34,-1.25,1.05,-27.62,14.76,9.87,-1.00
10155.00,-5.71,5.61,-8.76,-0.34,-1.25,1.05,-27.62,14.76,9.87,-1.00
10169.00,-6.40,6.26,-9.09,-0.09,-1.84,0.94,-27.62,14.76,9.87,-1.00
10181.00,-8.73,4.85,-5.14,0.48,-2.32,0.67,-28.88,14.22,10.09,-1.00
10193.00,-8.73,4.85,-5.14,0.48,-2.32,0.67,-28.88,14.22,10.09,-1.00
10205.00,-8.17,3.58,-5.20,0.83,-2.15,0.59,-28.88,14.22,10.09,-1.00
10220.00,-7.83,3.77,-4.94,0.79,-2.06,0.56,-28.88,14.22,10.09,-1.00
10231.00,-7.83,3.77,-4.94,0.79,-2.06,0.56,-28.88,14.22,10.09,-1.00
10243.00,-7.77,4.55,-5.81,0.60,-1.93,0.38,-28.88,14.22,10.09,-1.00
10255.00,-7.77,4.55,-5.81,0.60,-1.93,0.38,-28.88,14.22,10.09,-1.00
10269.00,-7.11,2.92,-5.42,0.50,-1.82,0.07,-28.88,14.22,10.09,-1.00
10281.00,-7.40,1.98,-4.13,0.39,-1.72,0.05,-28.88,14.22,10.09,-1.00
10293.00,-7.40,1.98,-4.13,0.39,-1.72,0.05,-28.88,14.22,10.09,-1.00
10305.00,-7.60,1.59,-3.88,0.31,-1.51,0.39,-29.16,8.47,15.89,-1.00
10319.00,-7.30,1.24,-4.36,0.28,-1.29,0.88,-29.16,8.47,15.89,-1.00
10331.00,-7.30,1.24,-4.36,0.28,-1.29,0.88,-29.16,8.47,15.89,-1.00
10343.00,-7.30,0.88,-4.65,0.12,-1.14,1.41,-29.16,8.47,15.89,-1.00
10357.00,-7.62,1.81,-4.01,-0.38,-1.12,1.93,-29.16,8.47,15.89,-1.00
10369.00,-7.62,1.81,-4.01,-0.38,-1.12,1.93,-29.16,8.47,15.89,-1.00
10381.00,-8.24,3.32,-3.86,-0.89,-0.84,2.07,-29.16,8.47,15.89,-1.00
10394.00,-8.24,3.32,-3.86,-0.89,-0.84,2.07,-29.16,8.47,15.89,-1.00
10407.00,-7.72,4.12,-4.76,-1.45,-0.43,1.81,-29.16,8.47,15.89,-1.00
10419.00,-7.66,5.84,-6.41,-2.18,-0.23,1.43,-28.18,13.32,13.44,-1.00
10431.00,-7.66,5.84,-6.41,-2.18,-0.23,1.43,-28.18,13.32,13.44,-1.00
10443.00,-7.93,6.88,-8.15,-1.64,-0.27,1.09,-28.18,13.32,13.44,-1.00
10457.00,-7.47,6.32,-7.94,-0.50,-0.74,0.69,-28.18,13.32,13.44,-1.00
10469.00,-7.47,6.32,-7.94,-0.50,-0.74,0.69,-28.18,13.32,13.44,-1.00
10481.00,-7.29,4.76,-7.14,0.37,-1.28,0.51,-28.18,13.32,13.44,-1.00
10493.00,-7.29,4.76,-7.14,0.37,-1.28,0.51,-28.18,13.32,13.44,-1.00
10507.00,-6.97,3.77,-7.24,0.78,-1.71,0.64,-28.18,13.32,13.44,-1.00
10519.00,-7.75,4.75,-5.99,0.94,-2.05,0.85,-28.18,13.32,13.44,-1.00
10531.00,-7.75,4.75,-5.99,0.94,-2.05,0.85,-28.18,13.32,13.44,-1.00
10545.00,-7.42,5.53,-6.40,0.87,-2.19,0.71,-28.18,13.32,13.44,-1.00
10557.00,-7.43,3.38,-4.93,1.08,-2.24,0.36,-29.58,12.24,17.01,-1.00
10569.00,-7.43,3.38,-4.93,1.08,-2.24,0.36,-29.58,12.24,17.01,-1.00
10581.00,-7.44,1.50,-2.49,1.36,-2.05,0.31,-29.58,12.24,17.01,-1.00
10595.00,-7.44,1.50,-2.49,1.36,-2.05,0.31,-29.58,12.24,17.01,-1.00
10607.00,-7.76,0.27,-1.99,1.22,-1.53,0.65,-29.58,12.24,17.01,-1.00
10619.00,-7.43,1.25,-2.95,0.70,-0.91,1.20,-29.58,12.24,17.01,-1.00
10631.00,-7.43,1.25,-2.95,0.70,-0.91,1.20,-29.58,12.24,17.01,-1.00
10646.00,-7.43,2.63,-6.38,0.12,-0.50,1.57,-29.58,12.24,17.01,-1.00
10734.00,-8.21,5.01,-6.11,0.44,-1.85,0.90,-29.16,12.06,15.45,-1.00
10823.00,-7.66,0.26,-3.56,0.39,-1.01,1.09,-28.60,9.55,19.46,-1.00
10911.00,-8.26,4.44,-6.34,0.67,-1.52,1.24,-28.60,9.55,19.46,-1.00
10926.00,-7.86,4.18,-6.99,0.48,-1.63,0.86,-29.99,11.70,18.57,-1.00
10937.00,-7.86,4.18,-6.99,0.48,-1.63,0.86,-29.99,11.70,18.57,-1.00
10950.00,-7.83,3.92,-7.21,0.32,-1.78,0.51,-29.99,11.70,18.57,-1.00
10963.00,-8.07,2.38,-4.44,0.50,-2.01,0.28,-29.99,11.70,18.57,-1.00
10975.00,-8.07,2.38,-4.44,0.50,-2.01,0.28,-29.99,11.70,18.57,-1.00
10987.00,-7.82,1.22,-2.73,0.62,-1.88,0.29,-29.99,11.70,18.57,-1.00
10999.00,-7.96,1.19,-3.49,0.39,-1.44,0.60,-29.99,11.70,18.57,-1.00
11013.00,-7.96,1.19,-3.49,0.39,-1.44,0.60,-29.99,11.70,18.57,-1.00
11025.00,-7.54,0.65,-4.53,0.17,-1.13,0.99,-29.99,11.70,18.57,-1.00
11037.00,-7.54,0.65,-4.53,0.17,-1.13,0.99,-29.99,11.70,18.57,-1.00
11049.00,-7.66,1.05,-4.19,-0.02,-0.97,1.39,-29.99,11.70,18.57,-1.00
11063.00,-8.78,2.80,-5.36,-0.54,-0.82,1.67,-28.88,11.70,22.59,-1.00
11075.00,-8.78,2.80,-5.36,-0.54,-0.82,1.67,-28.88,11.70,22.59,-1.00
11087.00,-8.74,4.62,-8.11,-0.73,-0.85,1.54,-28.88,11.70,22.59,-1.00
11099.00,-8.45,5.61,-9.85,-0.88,-1.30,1.07,-28.88,11.70,22.59,-1.00
11114.00,-8.45,5.61,-9.85,-0.88,-1.30,1.07,-28.88,11.70,22.59,-1.00
11125.00,-7.64,5.97,-8.39,-1.18,-2.19,0.48,-28.88,11.70,22.59,-1.00
11137.00,-7.64,5.97,-8.39,-1.18,-2.19,0.48,-28.88,11.70,22.59,-1.00
11151.00,-8.42,3.09,-3.72,-0.96,-2.85,-0.09,-28.88,11.70,22.59,-1.00
11163.00,-8.86,1.56,1.70,-0.61,-2.88,-0.02,-28.88,11.70,22.59,-1.00
11175.00,-8.86,1.56,1.70,-0.61,-2.88,-0.02,-28.88,11.70,22.59,-1.00
11187.00,-14.20,1.99,6.34,-0.27,-1.95,0.40,-29.72,10.27,27.50,-1.00
11201.00,-11.22,0.81,7.09,-0.48,-0.58,0.46,-29.72,10.27,27.50,-1.00
11213.00,-11.22,0.81,7.09,-0.48,-0.58,0.46,-29.72,10.27,27.50,-1.00
11225.00,-5.21,-0.94,-1.13,-0.21,1.78,1.11,-29.72,10.27,27.50,-1.00
11237.00,-5.21,-0.94,-1.13,-0.21,1.78,1.11,-29.72,10.27,27.50,-1.00
11251.00,-2.50,1.88,-7.87,-1.03,2.81,1.96,-29.72,10.27,27.50,-1.00
11263.00,-0.83,3.91,-11.67,-1.56,2.20,2.14,-29.72,10.27,27.50,-1.00
11275.00,-0.83,3.91,-11.67,-1.56,2.20,2.14,-29.72,10.27,27.50,-1.00
11289.00,-2.36,5.63,-11.56,-2.19,0.47,1.73,-29.72,10.27,27.50,-1.00
11301.00,-8.67,6.90,-11.80,-1.43,-0.47,1.42,-29.30,11.53,11.20,-1.00
11313.00,-8.67,6.90,-11.80,-1.43,-0.47,1.42,-29.30,11.53,11.20,-1.00
11325.00,-6.48,5.03,-11.95,-0.87,-0.67,1.14,-29.30,11.53,11.20,-1.00
11339.00,-7.29,3.54,-6.62,0.01,-1.62,0.65,-29.30,11.53,11.20,-1.00
11351.00,-7.29,3.54,-6.62,0.01,-1.62,0.65,-29.30,11.53,11.20,-1.00
11363.00,-9.04,3.46,-3.86,0.47,-1.99,0.47,-29.30,11.53,11.20,-1.00
11375.00,-9.04,3.46,-3.86,0.47,-1.99,0.47,-29.30,11.53,11.20,-1.00
11390.00,-7.66,3.30,-5.13,0.53,-1.54,0.73,-29.30,11.53,11.20,-1.00
11401.00,-7.41,3.93,-8.39,0.04,-1.43,1.02,-29.30,11.53,11.20,-1.00
11413.00,-7.41,3.93,-8.39,0.04,-1.43,1.02,-29.30,11.53,11.20,-1.00
11425.00,-8.30,5.43,-6.55,-0.24,-1.84,1.19,-28.88,12.78,14.11,-1.00
11439.00,-8.33,5.55,-6.46,0.28,-2.01,1.00,-28.88,12.78,14.11,-1.00
11451.00,-8.33,5.55,-6.46,0.28,-2.01,1.00,-28.88,12.78,14.11,-1.00
11463.00,-8.55,6.20,-7.07,0.50,-2.27,0.68,-28.88,12.78,14.11,-1.00
11477.00,-8.55,6.20,-7.07,0.50,-2.27,0.68,-28.88,12.78,14.11,-1.00
11489.00,-7.65,5.52,-5.39,0.48,-2.59,0.07,-28.88,12.78,14.11,-1.00
11501.00,-6.95,2.40,-4.03,0.77,-2.49,-0.52,-28.88,12.78,14.11,-1.00
11513.00,-6.95,2.40,-4.03,0.77,-2.49,-0.52,-28.88,12.78,14.11,-1.00
11527.00,-7.35,0.18,-2.41,0.85,-2.07,-0.44,-28.88,12.78,14.11,-1.00
11539.00,-7.84,-0.69,-1.03,0.36,-1.56,0.06,-28.88,12.78,14.11,-1.00
11551.00,-7.84,-0.69,-1.03,0.36,-1.56,0.06,-28.88,12.78,14.11,-1.00
11563.00,-7.65,-0.36,0.13,0.01,-0.86,0.75,-29.85,6.49,20.13,-1.00
11577.00,-7.65,-0.36,0.13,0.01,-0.86,0.75,-29.85,6.49,20.13,-1.00
11589.00,-6.97,0.22,-3.60,-0.47,0.05,1.51,-29.85,6.49,20.13,-1.00
11601.00,-7.14,3.10,-7.93,-0.91,0.38,2.30,-29.85,6.49,20.13,-1.00
11613.00,-7.14,3.10,-7.93,-0.91,0.38,2.30,-29.85,6.49,20.13,-1.00
11627.00,-7.72,5.17,-10.79,-0.75,-0.09,2.67,-29.85,6.49,20.13,-1.00
11639.00,-7.98,5.85,-8.03,-0.39,-1.22,2.42,-29.85,6.49,20.13,-1.00
11651.00,-7.98,5.85,-8.03,-0.39,-1.22,2.42,-29.85,6.49,20.13,-1.00
11665.00,-9.06,7.02,-7.22,0.28,-1.79,1.89,-29.85,6.49,20.13,-1.00
11677.00,-9.06,7.02,-7.22,0.28,-1.79,1.89,-29.85,6.49,20.13,-1.00
11689.00,-8.09,6.84,-6.70,0.57,-2.05,1.20,-29.72,13.86,15.89,-1.00
11701.00,-7.55,4.81,-4.74,0.77,-2.19,0.46,-29.72,13.86,15.89,-1.00
11716.00,-7.55,4.81,-4.74,0.77,-2.19,0.46,-29.72,13.86,15.89,-1.00
11727.00,-7.26,2.04,-3.22,0.91,-1.92,0.16,-29.72,13.86,15.89,-1.00
11739.00,-7.57,0.66,-2.22,0.83,-1.49,0.45,-29.72,13.86,15.89,-1.00
11751.00,-7.57,0.66,-2.22,0.83,-1.49,0.45,-29.72,13.86,15.89,-1.00
11765.00,-7.41,0.93,-2.12,0.41,-0.93,0.98,-29.72,13.86,15.89,-1.00
11777.00,-7.41,0.93,-2.12,0.41,-0.93,0.98,-29.72,13.86,15.89,-1.00
11789.00,-7.57,2.67,-6.21,-0.09,-0.32,1.50,-29.72,13.86,15.89,-1.00
11801.00,-7.92,5.31,-9.05,-0.31,-0.42,1.75,-29.58,12.60,15.67,-1.00
11815.00,-7.92,5.31,-9.05,-0.31,-0.42,1.75,-29.58,12.60,15.67,-1.00
11827.00,-8.22,5.91,-7.21,-0.14,-1.12,1.43,-29.58,12.60,15.67,-1.00
11839.00,-7.93,5.10,-7.04,-0.02,-1.59,0.97,-29.58,12.60,15.67,-1.00
11853.00,-7.93,5.10,-7.04,-0.02,-1.59,0.97,-29.58,12.60,15.67,-1.00
11865.00,-7.91,5.07,-7.27,-0.09,-1.94,0.73,-29.58,12.60,15.67,-1.00
11877.00,-7.91,5.07,-7.27,-0.09,-1.94,0.73,-29.58,12.60,15.67,-1.00
11889.00,-7.58,4.27,-6.39,-0.24,-2.26,0.52,-29.58,12.60,15.67,-1.00
11903.00,-7.28,2.20,-3.17,-0.07,-2.36,0.35,-29.58,12.60,15.67,-1.00
11915.00,-7.28,2.20,-3.17,-0.07,-2.36,0.35,-29.58,12.60,15.67,-1.00
11927.00,-7.72,0.59,-1.61,0.31,-1.92,0.57,-29.58,12.60,15.67,-1.00
11939.00,-8.03,0.54,-2.40,0.13,-1.28,1.12,-29.58,11.88,21.03,-1.00
11953.00,-8.03,0.54,-2.40,0.13,-1.28,1.12,-29.58,11.88,21.03,-1.00
11965.00,-8.22,3.09,-3.30,-0.15,-0.62,1.58,-29.58,11.88,21.03,-1.00
11977.00,-8.22,3.09,-3.30,-0.15,-0.62,1.58,-29.58,11.88,21.03,-1.00
11989.00,-8.40,6.07,-4.36,-0.32,-0.19,1.47,-29.58,11.88,21.03,-1.00
12003.00,-9.27,6.32,-5.52,-0.06,0.04,0.94,-29.58,11.88,21.03,-1.00
12015.00,-9.27,6.32,-5.52,-0.06,0.04,0.94,-29.58,11.88,21.03,-1.00
12027.00,-9.83,3.97,-4.58,-0.13,0.02,0.46,-29.58,11.88,21.03,-1.00
12041.00,-9.71,3.43,-3.42,-0.17,0.13,0.52,-29.58,11.88,21.03,-1.00
12053.00,-9.71,3.43,-3.42,-0.17,0.13,0.52,-29.58,11.88,21.03,-1.00
12065.00,-6.88,3.60,-5.35,-0.22,0.24,0.63,-29.02,12.24,12.54,-1.00
12077.00,-6.88,3.60,-5.35,-0.22,0.24,0.63,-29.02,12.24,12.54,-1.00
12091.00,-4.82,2.94,-7.58,-0.51,-0.08,0.77,-29.02,12.24,12.54,-1.00
12103.00,-4.82,2.77,-6.44,-0.91,-1.03,0.83,-29.02,12.24,12.54,-1.00
12115.00,-4.82,2.77,-6.44,-0.91,-1.03,0.83,-29.02,12.24,12.54,-1.00
12127.00,-5.04,2.87,-5.79,-0.93,-1.34,0.97,-29.02,12.24,12.54,-1.00
12142.00,-6.28,3.57,-8.06,-0.76,-0.84,1.25,-29.02,12.24,12.54,-1.00
12153.00,-6.28,3.57,-8.06,-0.76,-0.84,1.25,-29.02,12.24,12.54,-1.00
12165.00,-5.64,3.84,-11.11,-0.68,-0.30,1.59,-29.02,12.24,12.54,-1.00
12177.00,-5.64,3.84,-11.11,-0.68,-0.30,1.59,-29.02,12.24,12.54,-1.00
12191.00,-6.86,4.23,-9.23,-0.87,-1.05,1.36,-27.34,12.60,9.42,-1.00
12203.00,-8.09,4.33,-5.95,-0.64,-1.77,1.01,-27.34,12.60,9.42,-1.00
12215.00,-8.09,4.33,-5.95,-0.64,-1.77,1.01,-27.34,12.60,9.42,-1.00
12229.00,-8.01,4.35,-4.30,-0.52,-1.89,0.91,-27.34,12.60,9.42,-1.00
12241.00,-7.89,5.33,-5.31,-0.39,-1.56,0.99,-27.34,12.60,9.42,-1.00
12253.00,-7.89,5.33,-5.31,-0.39,-1.56,0.99,-27.34,12.60,9.42,-1.00
12265.00,-7.21,6.12,-7.08,-0.09,-1.46,0.96,-27.34,12.60,9.42,-1.00
12279.00,-7.65,6.57,-6.83,0.06,-1.80,0.70,-27.34,12.60,9.42,-1.00
12291.00,-7.65,6.57,-6.83,0.06,-1.80,0.70,-27.34,12.60,9.42,-1.00
12303.00,-7.46,4.11,-3.69,0.27,-1.95,0.29,-28.46,11.88,13.44,-1.00
12315.00,-7.46,4.11,-3.69,0.27,-1.95,0.29,-28.46,11.88,13.44,-1.00
12330.00,-7.36,2.07,-2.87,0.55,-1.57,0.25,-28.46,11.88,13.44,-1.00
12341.00,-6.99,1.41,-3.59,0.45,-1.04,0.61,-28.46,11.88,13.44,-1.00
12353.00,-6.99,1.41,-3.59,0.45,-1.04,0.61,-28.46,11.88,13.44,-1.00
12365.00,-6.65,1.66,-4.93,0.03,-0.59,1.11,-28.46,11.88,13.44,-1.00
12379.00,-7.01,4.16,-6.66,-0.63,-0.45,1.54,-28.46,11.88,13.44,-1.00
12391.00,-7.01,4.16,-6.66,-0.63,-0.45,1.54,-28.46,11.88,13.44,-1.00
12403.00,-7.53,5.45,-8.14,-0.60,-0.71,1.69,-28.46,11.88,13.44,-1.00
12417.00,-7.53,5.45,-8.14,-0.60,-0.71,1.69,-28.46,11.88,13.44,-1.00
12429.00,-7.68,5.62,-7.92,-0.03,-1.24,1.62,-28.46,11.88,13.44,-1.00
12441.00,-7.90,5.94,-6.64,0.48,-1.70,1.41,-29.02,13.32,10.76,-1.00
12453.00,-7.90,5.94,-6.64,0.48,-1.70,1.41,-29.02,13.32,10.76,-1.00
12467.00,-7.50,5.75,-5.92,0.60,-1.92,1.06,-29.02,13.32,10.76,-1.00
12479.00,-7.42,4.83,-5.20,0.58,-1.97,0.69,-29.02,13.32,10.76,-1.00
12491.00,-7.42,4.83,-5.20,0.58,-1.97,0.69,-29.02,13.32,10.76,-1.00
12503.00,-7.27,3.79,-4.47,0.62,-1.81,0.51,-29.02,13.32,10.76,-1.00
12517.00,-7.27,3.79,-4.47,0.62,-1.81,0.51,-29.02,13.32,10.76,-1.00
12529.00,-6.93,2.04,-3.48,0.64,-1.50,0.57,-29.02,13.32,10.76,-1.00
12541.00,-7.26,2.76,-3.58,0.36,-1.10,0.93,-29.02,13.32,10.76,-1.00
12555.00,-7.26,2.76,-3.58,0.36,-1.10,0.93,-29.02,13.32,10.76,-1.00
12567.00,-6.99,3.29,-5.91,-0.02,-0.78,1.19,-28.74,13.32,13.88,-1.00
12579.00,-7.45,4.77,-8.26,-0.11,-0.82,1.39,-28.74,13.32,13.88,-1.00
12591.00,-7.45,4.77,-8.26,-0.11,-0.82,1.39,-28.74,13.32,13.88,-1.00
12606.00,-7.46,4.94,-8.00,0.12,-1.29,1.38,-28.74,13.32,13.88,-1.00
12617.00,-7.46,4.94,-8.00,0.12,-1.29,1.38,-28.74,13.32,13.88,-1.00
12630.00,-8.07,4.82,-6.02,0.24,-1.81,1.20,-28.74,13.32,13.88,-1.00
12642.00,-7.82,5.58,-5.86,0.21,-1.94,0.94,-28.74,13.32,13.88,-1.00
12656.00,-7.82,5.58,-5.86,0.21,-1.94,0.94,-28.74,13.32,13.88,-1.00
12668.00,-7.64,5.29,-4.94,0.27,-1.97,0.57,-28.74,13.32,13.88,-1.00
12680.00,-7.22,3.19,-3.67,0.66,-1.77,0.21,-30.83,12.42,16.34,-1.00
12692.00,-7.22,3.19,-3.67,0.66,-1.77,0.21,-30.83,12.42,16.34,-1.00
12706.00,-7.24,1.81,-2.70,0.74,-1.41,0.27,-30.83,12.42,16.34,-1.00
12718.00,-7.24,1.81,-2.70,0.74,-1.41,0.27,-30.83,12.42,16.34,-1.00
12730.00,-7.20,1.76,-3.35,0.36,-0.89,0.65,-30.83,12.42,16.34,-1.00
12744.00,-7.21,2.92,-5.90,-0.16,-0.52,1.06,-30.83,12.42,16.34,-1.00
12756.00,-7.21,2.92,-5.90,-0.16,-0.52,1.06,-30.83,12.42,16.34,-1.00
12768.00,-7.59,4.17,-8.21,-0.22,-0.66,1.36,-30.83,12.42,16.34,-1.00
12780.00,-7.65,4.90,-8.68,0.11,-1.18,1.45,-30.83,12.42,16.34,-1.00
12794.00,-7.65,4.90,-8.68,0.11,-1.18,1.45,-30.83,12.42,16.34,-1.00
12806.00,-8.27,5.23,-7.95,0.38,-1.81,1.29,-28.60,13.86,15.00,-1.00
12818.00,-8.27,5.23,-7.95,0.38,-1.81,1.29,-28.60,13.86,15.00,-1.00
12830.00,-8.09,6.79,-8.22,0.45,-2.24,0.98,-28.60,13.86,15.00,-1.00
12844.00,-7.88,6.98,-7.50,0.55,-2.68,0.34,-28.60,13.86,15.00,-1.00
12856.00,-7.88,6.98,-7.50,0.55,-2.68,0.34,-28.60,13.86,15.00,-1.00
12868.00,-7.28,3.66,-5.00,0.89,-3.01,-0.48,-28.60,13.86,15.00,-1.00
12880.00,-7.64,0.92,-2.08,1.08,-2.84,-0.70,-28.60,13.86,15.00,-1.00
12895.00,-7.64,0.92,-2.08,1.08,-2.84,-0.70,-28.60,13.86,15.00,-1.00
12906.00,-8.06,-0.11,-0.37,0.66,-2.29,-0.36,-28.60,13.86,15.00,-1.00
12918.00,-8.06,-0.11,-0.37,0.66,-2.29,-0.36,-28.60,13.86,15.00,-1.00
12932.00,-8.21,0.29,-0.77,0.03,-1.46,0.18,-28.60,13.86,15.00,-1.00
12944.00,-7.93,-0.71,-1.62,-0.33,-0.76,0.80,-29.30,7.57,23.70,-1.00
12956.00,-7.93,-0.71,-1.62,-0.33,-0.76,0.80,-29.30,7.57,23.70,-1.00
12968.00,-7.13,-0.98,-1.72,-0.73,-0.33,1.59,-29.30,7.57,23.70,-1.00
12982.00,-7.59,3.12,-5.62,-1.03,0.07,2.40,-29.30,7.57,23.70,-1.00
12994.00,-7.59,3.12,-5.62,-1.03,0.07,2.40,-29.30,7.57,23.70,-1.00
13006.00,-8.07,5.33,-8.05,-0.88,-0.04,2.63,-29.30,7.57,23.70,-1.00
13018.00,-8.07,5.33,-8.05,-0.88,-0.04,2.63,-29.30,7.57,23.70,-1.00
13032.00,-8.90,6.72,-9.17,-0.44,-0.64,2.31,-29.30,7.57,23.70,-1.00
13120.00,-7.57,1.60,-2.23,0.71,-1.82,0.30,-30.83,12.78,19.02,-1.00
13210.00,-8.27,5.47,-8.86,-0.24,-0.38,1.81,-29.72,10.63,18.57,-1.00
13298.00,-7.93,3.70,-5.46,-0.18,-2.21,0.50,-29.72,10.63,18.57,-1.00
13312.00,-7.67,2.78,-3.42,-0.12,-2.29,0.50,-29.85,10.45,22.81,-1.00
13324.00,-7.84,0.71,-1.87,0.29,-1.97,0.70,-29.85,10.45,22.81,-1.00
13336.00,-7.84,0.71,-1.87,0.29,-1.97,0.70,-29.85,10.45,22.81,-1.00
13351.00,-8.21,0.37,-0.76,0.26,-1.49,1.13,-29.85,10.45,22.81,-1.00
13362.00,-8.09,2.05,-1.75,0.04,-0.68,1.59,-29.85,10.45,22.81,-1.00
13374.00,-8.09,2.05,-1.75,0.04,-0.68,1.59,-29.85,10.45,22.81,-1.00
13386.00,-8.85,4.84,-4.85,-0.04,-0.08,1.75,-29.85,10.45,22.81,-1.00
13400.00,-8.78,6.04,-6.70,0.23,0.04,1.46,-29.85,10.45,22.81,-1.00
13412.00,-8.78,6.04,-6.70,0.23,0.04,1.46,-29.85,10.45,22.81,-1.00
13424.00,-10.59,4.33,-5.04,0.50,-0.20,0.86,-29.85,10.45,22.81,-1.00
13436.00,-10.59,4.33,-5.04,0.50,-0.20,0.86,-29.85,10.45,22.81,-1.00
13450.00,-8.34,3.53,-4.46,0.23,-0.29,0.51,-30.83,13.50,19.91,-1.00
13462.00,-6.23,4.34,-7.78,-0.16,-0.14,0.37,-30.83,13.50,19.91,-1.00
13474.00,-6.23,4.34,-7.78,-0.16,-0.14,0.37,-30.83,13.50,19.91,-1.00
13486.00,-3.49,3.61,-11.57,-0.23,-0.39,0.28,-30.83,13.50,19.91,-1.00
13501.00,-4.17,3.81,-13.14,-0.09,-1.51,0.27,-30.83,13.50,19.91,-1.00
13512.00,-4.17,3.81,-13.14,-0.09,-1.51,0.27,-30.83,13.50,19.91,-1.00
13524.00,-12.86,5.06,-9.59,0.09,-3.32,0.26,-30.83,13.50,19.91,-1.00
13538.00,-12.86,5.06,-9.59,0.09,-3.32,0.26,-30.83,13.50,19.91,-1.00
13550.00,-8.53,2.41,-1.85,-0.08,-4.15,-0.02,-30.83,13.50,19.91,-1.00
13562.00,-8.87,0.49,1.21,0.58,-3.61,0.09,-30.83,10.27,24.82,-1.00
13574.00,-8.87,0.49,1.21,0.58,-3.61,0.09,-30.83,10.27,24.82,-1.00
13588.00,-9.09,1.08,1.85,0.62,-2.54,0.59,-30.83,10.27,24.82,-1.00
13600.00,-9.09,1.08,1.85,0.62,-2.54,0.59,-30.83,10.27,24.82,-1.00
13612.00,-10.05,1.32,0.01,0.63,-1.31,0.91,-30.83,10.27,24.82,-1.00
13624.00,-10.66,1.35,0.86,0.56,-0.34,1.03,-30.83,10.27,24.82,-1.00
13638.00,-10.66,1.35,0.86,0.56,-0.34,1.03,-30.83,10.27,24.82,-1.00
13650.00,-7.23,-0.59,-1.36,0.33,0.71,1.06,-30.83,10.27,24.82,-1.00
13662.00,-6.11,1.85,-6.00,-0.35,1.42,1.47,-30.83,10.27,24.82,-1.00
13674.00,-6.11,1.85,-6.00,-0.35,1.42,1.47,-30.83,10.27,24.82,-1.00
13689.00,-4.97,4.69,-11.70,-0.94,1.44,1.50,-30.41,10.09,16.12,-1.00
13701.00,-5.34,5.17,-13.68,-0.93,0.13,1.05,-30.41,10.09,16.12,-1.00
13713.00,-5.34,5.17,-13.68,-0.93,0.13,1.05,-30.41,10.09,16.12,-1.00
13727.00,-5.86,4.99,-11.12,-0.39,-1.62,0.63,-30.41,10.09,16.12,-1.00
13739.00,-5.86,4.99,-11.12,-0.39,-1.62,0.63,-30.41,10.09,16.12,-1.00
13751.00,-13.72,3.46,-6.53,0.18,-2.87,0.34,-30.41,10.09,16.12,-1.00
13763.00,-9.57,2.86,-1.45,-0.14,-3.41,0.20,-30.41,10.09,16.12,-1.00
13778.00,-9.57,2.86,-1.45,-0.14,-3.41,0.20,-30.41,10.09,16.12,-1.00
13789.00,-8.50,1.40,-1.18,0.11,-2.71,0.37,-30.41,10.09,16.12,-1.00
13801.00,-8.71,1.26,-1.13,0.33,-2.03,0.75,-30.41,10.09,16.12,-1.00
13813.00,-8.71,1.26,-1.13,0.33,-2.03,0.75,-30.41,10.09,16.12,-1.00
13827.00,-10.00,1.42,-0.60,0.66,-1.30,1.06,-31.67,7.39,23.03,-1.00
13839.00,-10.00,1.42,-0.60,0.66,-1.30,1.06,-31.67,7.39,23.03,-1.00
13851.00,-10.60,1.20,1.08,0.79,-0.37,1.23,-31.67,7.39,23.03,-1.00
13863.00,-7.16,-0.60,-1.59,0.69,0.82,1.30,-31.67,7.39,23.03,-1.00
13877.00,-7.16,-0.60,-1.59,0.69,0.82,1.30,-31.67,7.39,23.03,-1.00
13889.00,-5.52,0.99,-5.97,-0.11,1.53,1.60,-31.67,7.39,23.03,-1.00
13901.00,-4.56,3.05,-9.31,-1.15,1.53,1.70,-31.67,7.39,23.03,-1.00
13915.00,-4.56,3.05,-9.31,-1.15,1.53,1.70,-31.67,7.39,23.03,-1.00
13927.00,-4.79,5.38,-13.18,-2.24,0.89,1.48,-31.67,7.39,23.03,-1.00
13939.00,-4.79,5.38,-13.18,-2.24,0.89,1.48,-31.67,7.39,23.03,-1.00
13951.00,-6.99,6.20,-10.99,-1.94,-0.45,1.19,-29.85,12.24,10.31,-1.00
13966.00,-7.72,5.07,-7.13,-0.78,-1.55,0.79,-29.85,12.24,10.31,-1.00
13977.00,-7.72,5.07,-7.13,-0.78,-1.55,0.79,-29.85,12.24,10.31,-1.00
13989.00,-7.80,4.08,-6.68,0.14,-1.91,0.57,-29.85,12.24,10.31,-1.00
14001.00,-11.08,3.54,-6.38,0.41,-2.12,0.56,-29.85,12.24,10.31,-1.00
14015.00,-11.08,3.54,-6.38,0.41,-2.12,0.56,-29.85,12.24,10.31,-1.00
14027.00,-8.72,3.22,-4.10,0.13,-2.12,0.56,-29.85,12.24,10.31,-1.00
14039.00,-8.72,3.22,-4.10,0.13,-2.12,0.56,-29.85,12.24,10.31,-1.00
14051.00,-8.06,3.57,-6.31,-0.02,-1.85,0.50,-29.85,12.24,10.31,-1.00
14065.00,-7.35,3.25,-6.28,-0.03,-1.97,0.47,-29.16,9.19,16.34,-1.00
14077.00,-7.35,3.25,-6.28,-0.03,-1.97,0.47,-29.16,9.19,16.34,-1.00
14089.00,-7.55,1.69,-3.96,0.24,-2.02,0.53,-29.16,9.19,16.34,-1.00
14103.00,-7.48,1.09,-4.18,0.36,-1.79,0.86,-29.16,9.19,16.34,-1.00
14115.00,-7.48,1.09,-4.18,0.36,-1.79,0.86,-29.16,9.19,16.34,-1.00
14127.00,-8.59,2.24,-3.17,0.49,-1.55,1.42,-29.16,9.19,16.34,-1.00
14139.00,-8.59,2.24,-3.17,0.49,-1.55,1.42,-29.16,9.19,16.34,-1.00
14153.00,-10.35,5.06,-2.27,0.57,-1.27,1.62,-29.16,9.19,16.34,-1.00
14165.00,-15.16,7.80,-0.51,0.66,-0.90,1.02,-29.16,9.19,16.34,-1.00
14177.00,-15.16,7.80,-0.51,0.66,-0.90,1.02,-29.16,9.19,16.34,-1.00
14189.00,-13.69,4.42,2.21,0.90,0.27,0.11,-29.58,7.93,16.12,-1.00
14203.00,-7.95,0.67,-0.67,0.63,1.97,-0.01,-29.58,7.93,16.12,-1.00
14215.00,-7.95,0.67,-0.67,0.63,1.97,-0.01,-29.58,7.93,16.12,-1.00
14227.00,-3.48,2.94,-9.17,-0.62,2.77,0.48,-29.58,7.93,16.12,-1.00
14239.00,-3.48,2.94,-9.17,-0.62,2.77,0.48,-29.58,7.93,16.12,-1.00
14253.00,0.01,1.26,-11.83,-1.40,2.14,0.55,-29.58,7.93,16.12,-1.00
14265.00,2.44,1.92,-13.74,-1.65,0.74,0.80,-29.58,7.93,16.12,-1.00
14277.00,2.44,1.92,-13.74,-1.65,0.74,0.80,-29.58,7.93,16.12,-1.00
14289.00,2.35,1.38,-10.27,-1.04,-1.51,1.19,-29.58,7.93,16.12,-1.00
14303.00,-3.05,3.09,-6.03,-0.30,-3.05,1.34,-29.58,7.93,16.12,-1.00
14315.00,-3.05,3.09,-6.03,-0.30,-3.05,1.34,-29.58,7.93,16.12,-1.00
14327.00,-9.92,2.95,-6.55,-0.14,-3.16,1.12,-28.18,6.13,0.49,-1.00
14341.00,-16.14,4.71,-13.67,-0.39,-1.52,1.45,-28.18,6.13,0.49,-1.00
14353.00,-16.14,4.71,-13.67,-0.39,-1.52,1.45,-28.18,6.13,0.49,-1.00
14365.00,-4.25,0.40,-6.26,-0.58,-1.28,1.50,-28.18,6.13,0.49,-1.00
14377.00,-4.25,0.40,-6.26,-0.58,-1.28,1.50,-28.18,6.13,0.49,-1.00
14392.00,-5.08,1.84,-4.85,-0.91,-2.06,1.16,-28.18,6.13,0.49,-1.00
14403.00,-8.98,4.20,-6.13,-1.08,-2.29,1.15,-28.18,6.13,0.49,-1.00
14416.00,-8.98,4.20,-6.13,-1.08,-2.29,1.15,-28.18,6.13,0.49,-1.00
14427.00,-8.82,5.59,-5.86,-1.00,-1.98,1.27,-28.18,6.13,0.49,-1.00
14441.00,-7.21,5.31,-4.81,-0.56,-1.76,1.10,-28.46,6.13,0.49,-1.00
14453.00,-7.21,5.31,-4.81,-0.56,-1.76,1.10,-28.46,10.09,8.53,-1.00
14465.00,-7.81,5.57,-5.95,0.00,-1.55,0.92,-28.46,10.09,8.53,-1.00
14477.00,-7.81,5.57,-5.95,0.00,-1.55,0.92,-28.46,10.09,8.53,-1.00
14491.00,-8.07,4.81,-6.17,0.23,-1.55,0.75,-28.46,10.09,8.53,-1.00
14503.00,-7.42,3.87,-5.36,0.14,-1.61,0.61,-28.46,10.09,8.53,-1.00
14515.00,-7.42,3.87,-5.36,0.14,-1.61,0.61,-28.46,10.09,8.53,-1.00
14529.00,-6.86,3.24,-5.89,0.06,-1.51,0.52,-28.46,10.09,8.53,-1.00
14541.00,-6.86,3.24,-5.89,0.06,-1.51,0.52,-28.46,10.09,8.53,-1.00
14553.00,-6.58,2.85,-6.08,0.10,-1.45,0.57,-28.46,10.09,8.53,-1.00
14565.00,-6.85,2.55,-5.35,0.07,-1.48,0.72,-29.58,10.81,10.76,-1.00
14580.00,-6.85,2.55,-5.35,0.07,-1.48,0.72,-29.58,10.81,10.76,-1.00
14591.00,-8.00,2.61,-4.18,-0.01,-1.40,0.92,-29.58,10.81,10.76,-1.00
14603.00,-7.93,2.16,-3.22,-0.11,-1.08,1.11,-29.58,10.81,10.76,-1.00
14615.00,-7.93,2.16,-3.22,-0.11,-1.08,1.11,-29.58,10.81,10.76,-1.00
14629.00,-7.56,2.57,-4.08,-0.48,-0.60,1.34,-29.58,10.81,10.76,-1.00
14641.00,-7.56,2.57,-4.08,-0.48,-0.60,1.34,-29.58,10.81,10.76,-1.00
14653.00,-7.12,4.37,-5.90,-0.77,-0.26,1.53,-29.58,10.81,10.76,-1.00
14665.00,-7.22,5.37,-6.74,-0.61,-0.23,1.44,-29.58,10.81,10.76,-1.00
14679.00,-7.22,5.37,-6.74,-0.61,-0.23,1.44,-29.58,10.81,10.76,-1.00
14691.00,-7.12,5.23,-7.04,-0.46,-0.41,1.20,-28.46,12.60,6.74,-1.00
14703.00,-6.94,4.73,-6.78,-0.44,-0.66,1.05,-28.46,12.60,6.74,-1.00
14717.00,-6.94,4.73,-6.78,-0.44,-0.66,1.05,-28.46,12.60,6.74,-1.00
14729.00,-6.98,5.05,-6.80,-0.50,-0.86,1.05,-28.46,12.60,6.74,-1.00
14741.00,-6.98,5.05,-6.80,-0.50,-0.86,1.05,-28.46,12.60,6.74,-1.00
14753.00,-7.27,5.37,-6.56,-0.31,-1.03,1.04,-28.46,12.60,6.74,-1.00
14767.00,-7.21,5.77,-7.03,0.02,-1.14,0.95,-28.46,12.60,6.74,-1.00
14779.00,-7.21,5.77,-7.03,0.02,-1.14,0.95,-28.46,12.60,6.74,-1.00
14791.00,-7.56,5.57,-7.31,0.25,-1.31,0.79,-28.46,12.60,6.74,-1.00
14803.00,-8.27,4.86,-5.71,0.66,-1.41,0.73,-28.46,12.60,6.74,-1.00
14817.00,-8.27,4.86,-5.71,0.66,-1.41,0.73,-28.46,12.60,6.74,-1.00
14829.00,-7.58,4.27,-5.25,0.94,-1.22,0.73,-28.32,11.35,5.62,-1.00
14841.00,-7.58,4.27,-5.25,0.94,-1.22,0.73,-28.32,11.35,5.62,-1.00
14853.00,-5.45,2.91,-5.77,0.88,-1.16,0.57,-28.32,11.35,5.62,-1.00
14867.00,-4.75,1.70,-7.35,0.72,-1.23,0.53,-28.32,11.35,5.62,-1.00
14879.00,-4.75,1.70,-7.35,0.72,-1.23,0.53,-28.32,11.35,5.62,-1.00
14891.00,-4.53,1.86,-7.36,0.25,-1.37,0.86,-28.32,11.35,5.62,-1.00
14903.00,-5.15,2.39,-7.26,-0.28,-1.56,1.25,-28.32,11.35,5.62,-1.00
14917.00,-5.15,2.39,-7.26,-0.28,-1.56,1.25,-28.32,11.35,5.62,-1.00
14929.00,-7.24,3.98,-5.97,-0.59,-1.76,1.50,-28.32,11.35,5.62,-1.00
14941.00,-7.24,3.98,-5.97,-0.59,-1.76,1.50,-28.32,11.35,5.62,-1.00
14955.00,-8.76,4.20,-4.71,-0.62,-1.77,1.38,-28.60,11.70,7.86,-1.00
14967.00,-8.79,4.20,-3.86,-0.59,-1.59,1.19,-28.60,11.70,7.86,-1.00
14979.00,-8.79,4.20,-3.86,-0.59,-1.59,1.19,-28.60,11.70,7.86,-1.00
14991.00,-9.37,4.58,-3.74,-0.57,-1.27,1.02,-28.60,11.70,7.86,-1.00
15006.00,-7.78,5.14,-4.90,-0.44,-0.79,0.99,-28.60,11.70,7.86,-1.00
15017.00,-7.78,5.14,-4.90,-0.44,-0.79,0.99,-28.60,11.70,7.86,-1.00
15029.00,-7.22,5.66,-6.60,-0.31,-0.60,0.87,-28.60,11.70,7.86,-1.00
15041.00,-7.22,5.66,-6.60,-0.31,-0.60,0.87,-28.60,11.70,7.86,-1.00
15055.00,-6.46,6.36,-8.23,-0.19,-0.79,0.67,-28.60,11.70,7.86,-1.00
15067.00,-6.13,5.25,-8.14,0.23,-1.23,0.39,-29.16,11.70,5.62,-1.00
15079.00,-6.13,5.25,-8.14,0.23,-1.23,0.39,-29.16,11.70,5.62,-1.00
15091.00,-5.94,4.54,-7.88,0.45,-1.71,0.24,-29.16,11.70,5.62,-1.00
15105.00,-8.71,3.31,-5.52,0.48,-2.15,0.21,-29.16,11.70,5.62,-1.00
15117.00,-8.71,3.31,-5.52,0.48,-2.15,0.21,-29.16,11.70,5.62,-1.00
15129.00,-7.32,1.05,-2.92,0.14,-2.10,0.36,-29.16,11.70,5.62,-1.00
15141.00,-7.32,1.05,-2.92,0.14,-2.10,0.36,-29.16,11.70,5.62,-1.00
15155.00,-7.29,0.86,-2.98,0.01,-1.68,0.72,-29.16,11.70,5.62,-1.00
15167.00,-7.51,1.41,-3.27,-0.18,-1.05,1.39,-29.16,11.70,5.62,-1.00
15179.00,-7.51,1.41,-3.27,-0.18,-1.05,1.39,-29.16,11.70,5.62,-1.00
15193.00,-8.47,5.11,-5.22,-0.39,-0.51,1.87,-29.58,11.53,6.74,-1.00
15205.00,-10.38,7.07,-5.35,-0.12,-0.35,1.72,-29.58,11.53,6.74,-1.00
15217.00,-10.38,7.07,-5.35,-0.12,-0.35,1.72,-29.58,11.53,6.74,-1.00
15229.00,-9.70,5.73,-4.69,0.11,-0.30,1.13,-29.58,11.53,6.74,-1.00
15243.00,-7.61,3.13,-3.81,0.22,-0.13,0.92,-29.58,11.53,6.74,-1.00
15255.00,-7.61,3.13,-3.81,0.22,-0.13,0.92,-29.58,11.53,6.74,-1.00
15267.00,-6.11,3.28,-6.54,-0.33,-0.07,1.11,-29.58,11.53,6.74,-1.00
15279.00,-6.11,3.28,-6.54,-0.33,-0.07,1.11,-29.58,11.53,6.74,-1.00
15293.00,-4.10,4.45,-8.80,-0.65,-0.37,1.20,-29.58,11.53,6.74,-1.00
15305.00,-2.56,4.81,-10.98,-0.52,-0.73,1.17,-29.58,11.53,6.74,-1.00
15317.00,-2.56,4.81,-10.98,-0.52,-0.73,1.17,-29.58,11.53,6.74,-1.00
15329.00,-3.15,4.99,-11.18,-0.31,-1.50,1.03,-27.62,11.88,1.83,-1.00
15343.00,-5.62,5.42,-8.75,-0.11,-2.58,0.88,-27.62,11.88,1.83,-1.00
15355.00,-5.62,5.42,-8.75,-0.11,-2.58,0.88,-27.62,11.88,1.83,-1.00
15367.00,-9.02,5.34,-4.89,0.16,-3.11,0.70,-27.62,11.88,1.83,-1.00
15381.00,-9.02,5.34,-4.89,0.16,-3.11,0.70,-27.62,11.88,1.83,-1.00
15471.00,-7.47,2.85,-3.45,0.04,-1.23,0.63,-29.30,10.09,10.31,-1.00
15559.00,-7.50,5.55,-7.76,-0.48,-0.60,1.52,-29.30,10.09,10.31,-1.00
15648.00,-6.68,3.96,-4.95,0.72,-1.95,0.19,-28.88,11.35,4.29,-1.00
15662.00,-6.68,3.96,-4.95,0.72,-1.95,0.19,-28.88,11.35,4.29,-1.00
15674.00,-6.88,1.20,-3.20,0.87,-1.75,0.24,-28.88,11.35,4.29,-1.00
15686.00,-7.25,1.56,-3.37,0.65,-1.36,0.74,-29.44,8.83,9.64,-1.00
15698.00,-7.25,1.56,-3.37,0.65,-1.36,0.74,-29.44,8.83,9.64,-1.00
15712.00,-7.04,1.73,-5.09,0.16,-0.96,1.26,-29.44,8.83,9.64,-1.00
15724.00,-7.45,4.17,-7.19,-0.09,-0.93,1.70,-29.44,8.83,9.64,-1.00
15736.00,-7.45,4.17,-7.19,-0.09,-0.93,1.70,-29.44,8.83,9.64,-1.00
15748.00,-8.45,5.32,-6.58,0.16,-1.26,1.73,-29.44,8.83,9.64,-1.00
15762.00,-8.45,5.32,-6.58,0.16,-1.26,1.73,-29.44,8.83,9.64,-1.00
15774.00,-8.40,5.49,-5.83,0.50,-1.47,1.37,-29.44,8.83,9.64,-1.00
15786.00,-7.63,5.25,-5.95,0.64,-1.48,0.91,-29.44,8.83,9.64,-1.00
15798.00,-7.63,5.25,-5.95,0.64,-1.48,0.91,-29.44,8.83,9.64,-1.00
15812.00,-7.10,4.33,-6.49,0.60,-1.42,0.61,-29.44,8.83,9.64,-1.00
15824.00,-6.86,3.68,-6.01,0.57,-1.50,0.50,-30.55,10.27,9.64,-1.00
15836.00,-6.86,3.68,-6.01,0.57,-1.50,0.50,-30.55,10.27,9.64,-1.00
15848.00,-7.68,2.31,-5.41,0.60,-1.57,0.48,-30.55,10.27,9.64,-1.00
15862.00,-7.68,2.31,-5.41,0.60,-1.57,0.48,-30.55,10.27,9.64,-1.00
15874.00,-7.53,2.22,-4.18,0.32,-1.51,0.70,-30.55,10.27,9.64,-1.00
15886.00,-7.63,2.25,-4.48,0.20,-1.28,1.01,-30.55,10.27,9.64,-1.00
15901.00,-7.63,2.25,-4.48,0.20,-1.28,1.01,-30.55,10.27,9.64,-1.00
15912.00,-7.57,2.60,-6.29,0.14,-1.13,1.35,-30.55,10.27,9.64,-1.00
15924.00,-8.20,4.39,-6.95,0.21,-1.27,1.61,-30.55,10.27,9.64,-1.00
15936.00,-8.20,4.39,-6.95,0.21,-1.27,1.61,-30.55,10.27,9.64,-1.00
15950.00,-8.07,5.05,-6.76,0.28,-1.49,1.46,-29.44,10.27,11.87,-1.00
15962.00,-8.07,5.05,-6.76,0.28,-1.49,1.46,-29.44,10.27,11.87,-1.00
15974.00,-8.03,4.62,-6.48,0.27,-1.68,1.08,-29.44,10.27,11.87,-1.00
15986.00,-7.74,4.42,-5.16,0.14,-1.77,0.69,-29.44,10.27,11.87,-1.00
16000.00,-7.74,4.42,-5.16,0.14,-1.77,0.69,-29.44,10.27,11.87,-1.00
16012.00,-7.83,4.20,-5.35,0.10,-1.63,0.44,-29.44,10.27,11.87,-1.00
16024.00,-7.69,3.99,-6.08,0.00,-1.59,0.26,-29.44,10.27,11.87,-1.00
16036.00,-7.69,3.99,-6.08,0.00,-1.59,0.26,-29.44,10.27,11.87,-1.00
16051.00,-7.70,3.13,-5.86,0.10,-1.72,0.19,-29.44,10.27,11.87,-1.00
16063.00,-7.90,2.38,-5.27,0.19,-1.89,0.34,-31.39,7.75,15.89,-1.00
16075.00,-7.90,2.38,-5.27,0.19,-1.89,0.34,-31.39,7.75,15.89,-1.00
16087.00,-7.75,2.13,-5.21,0.12,-2.01,0.64,-31.39,7.75,15.89,-1.00
16101.00,-7.75,2.13,-5.21,0.12,-2.01,0.64,-31.39,7.75,15.89,-1.00
16113.00,-8.45,2.99,-4.72,0.04,-2.08,0.87,-31.39,7.75,15.89,-1.00
16125.00,-8.50,3.56,-4.91,0.03,-2.02,0.84,-31.39,7.75,15.89,-1.00
16139.00,-8.50,3.56,-4.91,0.03,-2.02,0.84,-31.39,7.75,15.89,-1.00
16151.00,-8.39,2.85,-4.19,0.05,-1.96,0.65,-31.39,7.75,15.89,-1.00
16163.00,-8.50,1.61,-2.38,0.17,-1.73,0.57,-31.39,7.75,15.89,-1.00
16175.00,-8.50,1.61,-2.38,0.17,-1.73,0.57,-31.39,7.75,15.89,-1.00
16189.00,-8.31,1.21,-1.73,0.11,-1.26,0.71,-31.39,7.75,15.89,-1.00
16201.00,-8.31,1.21,-1.73,0.11,-1.26,0.71,-31.39,7.75,15.89,-1.00
16213.00,-8.17,0.48,-1.84,-0.06,-0.68,0.98,-29.85,7.21,21.92,-1.00
16225.00,-8.00,1.34,-4.10,-0.66,-0.18,1.41,-29.85,7.21,21.92,-1.00
16239.00,-8.00,1.34,-4.10,-0.66,-0.18,1.41,-29.85,7.21,21.92,-1.00
16251.00,-7.80,3.83,-8.12,-0.94,-0.08,1.90,-29.85,7.21,21.92,-1.00
16263.00,-7.80,3.83,-8.12,-0.94,-0.08,1.90,-29.85,7.21,21.92,-1.00
16275.00,-8.12,5.97,-9.04,-0.50,-0.61,2.05,-29.85,7.21,21.92,-1.00
16289.00,-8.97,5.93,-6.46,0.24,-1.32,1.64,-29.85,7.21,21.92,-1.00
16301.00,-8.97,5.93,-6.46,0.24,-1.32,1.64,-29.85,7.21,21.92,-1.00
16313.00,-8.79,5.06,-5.37,0.73,-1.67,1.07,-29.85,7.21,21.92,-1.00
16325.00,-8.21,3.82,-4.84,0.78,-1.82,0.74,-31.25,11.53,16.56,-1.00
16339.00,-8.21,3.82,-4.84,0.78,-1.82,0.74,-31.25,11.53,16.56,-1.00
16351.00,-9.24,2.98,-4.76,0.72,-1.84,0.72,-31.25,11.53,16.56,-1.00
16363.00,-9.24,2.98,-4.76,0.72,-1.84,0.72,-31.25,11.53,16.56,-1.00
16377.00,-9.11,3.00,-3.82,0.29,-1.73,0.73,-31.25,11.53,16.56,-1.00
16389.00,-7.33,2.70,-5.03,0.12,-1.49,0.63,-31.25,11.53,16.56,-1.00
16401.00,-7.33,2.70,-5.03,0.12,-1.49,0.63,-31.25,11.53,16.56,-1.00
16413.00,-6.61,3.07,-6.07,0.16,-1.45,0.58,-31.25,11.53,16.56,-1.00
16427.00,-6.44,2.87,-7.37,0.28,-1.54,0.53,-31.25,11.53,16.56,-1.00
16439.00,-6.44,2.87,-7.37,0.28,-1.54,0.53,-31.25,11.53,16.56,-1.00
16451.00,-7.19,2.53,-6.36,0.26,-2.01,0.50,-31.67,9.19,20.36,-1.00
16463.00,-7.19,2.53,-6.36,0.26,-2.01,0.50,-31.67,9.19,20.36,-1.00
16478.00,-9.46,1.33,0.32,0.10,-2.41,0.52,-31.67,9.19,20.36,-1.00
16489.00,-8.79,0.35,0.71,0.30,-1.66,0.82,-31.67,9.19,20.36,-1.00
16501.00,-8.79,0.35,0.71,0.30,-1.66,0.82,-31.67,9.19,20.36,-1.00
16513.00,-8.52,1.39,-4.20,0.11,-0.59,1.44,-31.67,9.19,20.36,-1.00
16527.00,-8.42,4.23,-7.59,-0.16,-0.29,1.98,-31.67,9.19,20.36,-1.00
16539.00,-8.42,4.23,-7.59,-0.16,-0.29,1.98,-31.67,9.19,20.36,-1.00
16551.00,-9.55,7.59,-6.10,-0.13,-1.11,1.71,-31.67,9.19,20.36,-1.00
16563.00,-9.55,7.59,-6.10,-0.13,-1.11,1.71,-31.67,9.19,20.36,-1.00
16577.00,-12.39,6.10,-1.77,0.51,-1.68,0.76,-30.83,10.27,22.14,-1.00
16589.00,-13.03,2.35,3.35,0.64,-1.36,0.09,-30.83,10.27,22.14,-1.00
16601.00,-13.03,2.35,3.35,0.64,-1.36,0.09,-30.83,10.27,22.14,-1.00
16615.00,-7.72,0.44,0.92,0.71,0.18,0.12,-30.83,10.27,22.14,-1.00
16627.00,-4.51,0.57,-6.20,0.04,1.30,0.61,-30.83,10.27,22.14,-1.00
16639.00,-4.51,0.57,-6.20,0.04,1.30,0.61,-30.83,10.27,22.14,-1.00
16651.00,-3.26,0.33,-6.56,-0.59,0.70,1.02,-30.83,10.27,22.14,-1.00
16666.00,-1.69,0.45,-5.99,-1.14,0.37,1.18,-30.83,10.27,22.14,-1.00
16677.00,-1.69,0.45,-5.99,-1.14,0.37,1.18,-30.83,10.27,22.14,-1.00
16689.00,-5.57,3.25,-8.43,-1.50,0.57,1.28,-30.83,10.27,22.14,-1.00
16701.00,-5.57,3.25,-8.43,-1.50,0.57,1.28,-30.83,10.27,22.14,-1.00
16715.00,-8.48,5.08,-14.94,-2.21,0.93,1.64,-29.72,7.39,7.41,-1.00
16727.00,-6.01,4.42,-11.46,-1.73,-0.16,1.64,-29.72,7.39,7.41,-1.00
16739.00,-6.01,4.42,-11.46,-1.73,-0.16,1.64,-29.72,7.39,7.41,-1.00
16751.00,-7.89,5.04,-6.60,-1.03,-1.69,1.36,-29.72,7.39,7.41,-1.00
16765.00,-9.87,4.80,-4.45,-0.29,-2.39,1.11,-29.72,7.39,7.41,-1.00
16777.00,-9.87,4.80,-4.45,-0.29,-2.39,1.11,-29.72,7.39,7.41,-1.00
16789.00,-8.53,4.76,-3.36,0.00,-2.01,1.09,-29.72,7.39,7.41,-1.00
16803.00,-8.53,4.76,-3.36,0.00,-2.01,1.09,-29.72,7.39,7.41,-1.00
16815.00,-7.35,4.67,-6.96,0.30,-1.40,1.10,-29.72,7.39,7.41,-1.00
16827.00,-7.47,5.61,-8.15,0.21,-1.54,1.10,-29.99,10.63,7.86,-1.00
16839.00,-7.47,5.61,-8.15,0.21,-1.54,1.10,-29.99,10.63,7.86,-1.00
16853.00,-8.08,4.98,-6.13,0.27,-1.98,0.68,-29.99,10.63,7.86,-1.00
16865.00,-7.47,3.44,-4.51,0.31,-1.97,0.27,-29.99,10.63,7.86,-1.00
16877.00,-7.47,3.44,-4.51,0.31,-1.97,0.27,-29.99,10.63,7.86,-1.00
16889.00,-7.48,1.68,-3.45,0.27,-1.73,0.26,-29.99,10.63,7.86,-1.00
16903.00,-7.48,1.68,-3.45,0.27,-1.73,0.26,-29.99,10.63,7.86,-1.00
16915.00,-7.57,1.97,-3.10,0.07,-1.38,0.62,-29.99,10.63,7.86,-1.00
16927.00,-7.15,1.87,-3.10,-0.02,-0.89,1.02,-29.99,10.63,7.86,-1.00
16939.00,-7.15,1.87,-3.10,-0.02,-0.89,1.02,-29.99,10.63,7.86,-1.00
16953.00,-7.35,3.01,-5.83,-0.30,-0.47,1.34,-30.13,9.37,8.97,-1.00
16966.00,-7.35,3.89,-8.48,-0.34,-0.53,1.61,-30.13,9.37,8.97,-1.00
16978.00,-7.35,3.89,-8.48,-0.34,-0.53,1.61,-30.13,9.37,8.97,-1.00
16990.00,-7.93,5.16,-7.80,0.02,-1.13,1.73,-30.13,9.37,8.97,-1.00
17004.00,-8.34,5.47,-6.40,0.40,-1.58,1.50,-30.13,9.37,8.97,-1.00
17016.00,-8.34,5.47,-6.40,0.40,-1.58,1.50,-30.13,9.37,8.97,-1.00
17028.00,-7.95,5.73,-6.29,0.42,-1.76,1.04,-30.13,9.37,8.97,-1.00
17040.00,-7.95,5.73,-6.29,0.42,-1.76,1.04,-30.13,9.37,8.97,-1.00
17054.00,-7.22,4.60,-5.27,0.53,-1.81,0.58,-30.13,9.37,8.97,-1.00
17066.00,-7.31,3.17,-4.59,0.60,-1.70,0.40,-29.85,9.73,10.76,-1.00
17078.00,-7.31,3.17,-4.59,0.60,-1.70,0.40,-29.85,9.73,10.76,-1.00
17093.00,-7.39,1.79,-3.95,0.62,-1.51,0.55,-29.85,9.73,10.76,-1.00
17182.00,-8.25,4.62,-6.02,0.21,-1.24,1.35,-29.85,9.73,10.76,-1.00
17270.00,-7.75,1.80,-3.22,0.28,-1.56,0.70,-30.97,11.88,12.54,-1.00
17358.00,-8.43,4.76,-6.85,0.38,-1.52,1.10,-29.44,10.27,14.55,-1.00
17372.00,-7.86,4.34,-7.28,0.36,-1.84,0.74,-29.44,10.27,14.55,-1.00
17384.00,-7.86,4.34,-7.28,0.36,-1.84,0.74,-29.44,10.27,14.55,-1.00
17397.00,-8.01,3.39,-5.21,0.28,-2.17,0.59,-29.44,10.27,14.55,-1.00
17408.00,-7.87,2.17,-2.76,0.29,-2.18,0.60,-29.44,10.27,14.55,-1.00
17422.00,-7.87,2.17,-2.76,0.29,-2.18,0.60,-29.44,10.27,14.55,-1.00
17434.00,-8.04,1.76,-2.08,0.39,-1.69,0.75,-29.44,10.27,14.55,-1.00
17446.00,-8.07,2.23,-3.41,0.19,-1.11,0.99,-29.99,9.19,17.23,-1.00
17458.00,-8.07,2.23,-3.41,0.19,-1.11,0.99,-29.99,9.19,17.23,-1.00
17472.00,-8.08,3.32,-6.02,0.03,-0.82,1.19,-29.99,9.19,17.23,-1.00
17484.00,-8.08,3.32,-6.02,0.03,-0.82,1.19,-29.99,9.19,17.23,-1.00
17496.00,-7.82,4.38,-8.12,0.32,-0.99,1.28,-29.99,9.19,17.23,-1.00
17508.00,-8.16,4.19,-7.89,0.72,-1.49,1.33,-29.99,9.19,17.23,-1.00
17522.00,-8.16,4.19,-7.89,0.72,-1.49,1.33,-29.99,9.19,17.23,-1.00
17534.00,-8.89,4.20,-4.64,0.62,-2.33,1.34,-29.99,9.19,17.23,-1.00
17546.00,-10.47,4.20,-1.14,0.70,-2.56,1.11,-29.99,9.19,17.23,-1.00
17560.00,-10.47,4.20,-1.14,0.70,-2.56,1.11,-29.99,9.19,17.23,-1.00
17572.00,-13.80,6.98,3.72,0.80,-1.81,0.69,-31.95,12.06,21.25,-1.00
17584.00,-13.80,6.98,3.72,0.80,-1.81,0.69,-31.95,12.06,21.25,-1.00
17596.00,-12.13,2.47,6.36,1.48,-0.27,-0.20,-31.95,12.06,21.25,-1.00
17610.00,-7.03,-0.37,0.20,1.56,2.23,-0.04,-31.95,12.06,21.25,-1.00
17622.00,-7.03,-0.37,0.20,1.56,2.23,-0.04,-31.95,12.06,21.25,-1.00
17634.00,-1.68,-0.67,-4.29,0.43,3.31,0.42,-31.95,12.06,21.25,-1.00
17646.00,-2.83,1.91,-7.75,-1.87,2.79,0.58,-31.95,12.06,21.25,-1.00
17660.00,-2.83,1.91,-7.75,-1.87,2.79,0.58,-31.95,12.06,21.25,-1.00
17672.00,-1.53,4.33,-8.86,-3.45,1.30,0.60,-31.95,12.06,21.25,-1.00
17684.00,-1.53,4.33,-8.86,-3.45,1.30,0.60,-31.95,12.06,21.25,-1.00
17697.00,-3.22,5.21,-13.88,-2.42,0.61,0.58,-31.95,12.06,21.25,-1.00
17711.00,-0.96,4.53,-14.77,1.49,0.93,1.02,-28.74,6.13,-2.63,-1.00
17723.00,-0.96,4.53,-14.77,1.49,0.93,1.02,-28.74,6.13,-2.63,-1.00
17735.00,-4.09,2.97,-19.01,3.58,0.67,1.12,-28.74,6.13,-2.63,-1.00
17747.00,-3.87,-1.99,-9.24,3.81,-0.92,0.95,-28.74,6.13,-2.63,-1.00
17761.00,-3.87,-1.99,-9.24,3.81,-0.92,0.95,-28.74,6.13,-2.63,-1.00
17773.00,-8.52,1.41,-8.16,1.43,-2.58,0.84,-28.74,6.13,-2.63,-1.00
17785.00,-9.73,1.54,-4.80,1.11,-3.54,1.19,-28.74,6.13,-2.63,-1.00
17799.00,-9.73,1.54,-4.80,1.11,-3.54,1.19,-28.74,6.13,-2.63,-1.00
17811.00,-7.84,0.91,-3.54,0.97,-2.99,1.59,-28.74,6.13,-2.63,-1.00
17823.00,-7.84,0.91,-3.54,0.97,-2.99,1.59,-28.74,6.13,-2.63,-1.00
17835.00,-7.20,0.38,-3.98,-0.21,-2.17,1.85,-28.88,3.08,4.29,-1.00
17850.00,-5.97,0.77,-6.81,-2.41,-1.60,1.96,-28.88,3.08,4.29,-1.00
17861.00,-5.97,0.77,-6.81,-2.41,-1.60,1.96,-28.88,3.08,4.29,-1.00
17873.00,-6.48,2.54,-6.10,-2.27,-2.03,2.33,-28.88,3.08,4.29,-1.00
17885.00,-8.34,4.31,-7.98,-2.57,-2.90,1.80,-28.88,3.08,4.29,-1.00
17899.00,-8.34,4.31,-7.98,-2.57,-2.90,1.80,-28.88,3.08,4.29,-1.00
17911.00,-7.72,5.42,-7.07,-2.09,-2.53,1.50,-28.88,3.08,4.29,-1.00
17923.00,-7.72,5.42,-7.07,-2.09,-2.53,1.50,-28.88,3.08,4.29,-1.00
17935.00,-6.06,3.71,-6.20,-1.09,-2.29,1.10,-28.88,3.08,4.29,-1.00
17949.00,-7.87,3.22,-5.14,-0.13,-2.21,0.88,-29.72,10.27,8.75,-1.00
17961.00,-7.87,3.22,-5.14,-0.13,-2.21,0.88,-29.72,10.27,8.75,-1.00
17973.00,-9.77,4.42,-3.85,0.30,-1.96,0.77,-29.72,10.27,8.75,-1.00
17985.00,-8.50,3.66,-3.52,0.49,-1.44,0.61,-29.72,10.27,8.75,-1.00
17999.00,-8.50,3.66,-3.52,0.49,-1.44,0.61,-29.72,10.27,8.75,-1.00
18011.00,-7.12,2.03,-4.81,0.37,-0.95,0.60,-29.72,10.27,8.75,-1.00
18023.00,-7.12,2.03,-4.81,0.37,-0.95,0.60,-29.72,10.27,8.75,-1.00
18037.00,-6.28,1.47,-6.25,-0.03,-0.75,0.80,-29.72,10.27,8.75,-1.00
18125.00,-7.79,3.25,-6.15,0.14,-1.57,0.66,-29.72,10.27,8.75,-1.00
18214.00,-7.36,0.63,-3.82,0.22,-1.17,0.75,-31.25,7.57,10.76,-1.00
18303.00,-8.35,5.59,-8.50,-0.24,-1.33,1.72,-31.25,7.57,10.76,-1.00
18317.00,-8.59,5.79,-6.61,0.34,-1.92,1.34,-31.25,7.57,10.76,-1.00
18329.00,-8.14,4.80,-5.76,0.36,-2.13,0.70,-31.67,9.91,13.21,-1.00
18341.00,-8.14,4.80,-5.76,0.36,-2.13,0.70,-31.67,9.91,13.21,-1.00
18353.00,-7.52,3.62,-4.78,0.25,-2.06,0.20,-31.67,9.91,13.21,-1.00
18367.00,-7.19,1.84,-4.11,0.37,-1.79,0.11,-31.67,9.91,13.21,-1.00
18379.00,-7.19,1.84,-4.11,0.37,-1.79,0.11,-31.67,9.91,13.21,-1.00
18391.00,-7.31,0.72,-3.74,0.34,-1.45,0.44,-31.67,9.91,13.21,-1.00
18403.00,-7.31,0.72,-3.74,0.34,-1.45,0.44,-31.67,9.91,13.21,-1.00
18417.00,-7.02,1.49,-3.80,0.12,-1.11,0.97,-31.67,9.91,13.21,-1.00
18429.00,-7.08,0.79,-4.84,-0.04,-0.77,1.53,-31.67,9.91,13.21,-1.00
18441.00,-7.08,0.79,-4.84,-0.04,-0.77,1.53,-31.67,9.91,13.21,-1.00
18453.00,-7.67,1.42,-5.13,-0.61,-0.65,2.07,-30.27,10.99,13.66,-1.00
18467.00,-7.83,2.66,-4.46,-1.32,-0.71,2.43,-30.27,10.99,13.66,-1.00
18479.00,-7.83,2.66,-4.46,-1.32,-0.71,2.43,-30.27,10.99,13.66,-1.00
18491.00,-8.18,5.43,-3.83,-2.14,-0.66,2.55,-30.27,10.99,13.66,-1.00
18505.00,-8.18,5.43,-3.83,-2.14,-0.66,2.55,-30.27,10.99,13.66,-1.00
18517.00,-8.98,5.41,-5.53,-2.22,-0.06,2.29,-30.27,10.99,13.66,-1.00
18529.00,-7.62,7.76,-6.51,-2.45,0.15,1.76,-30.27,10.99,13.66,-1.00
18541.00,-7.62,7.76,-6.51,-2.45,0.15,1.76,-30.27,10.99,13.66,-1.00
18555.00,-7.27,8.14,-8.64,-2.11,0.02,0.99,-30.27,10.99,13.66,-1.00
18567.00,-7.56,9.81,-8.01,-1.07,-0.47,0.53,-30.27,10.99,13.66,-1.00
18579.00,-7.56,9.81,-8.01,-1.07,-0.47,0.53,-30.27,10.99,13.66,-1.00
18591.00,-6.45,6.93,-7.51,0.50,-1.05,-0.06,-28.88,16.74,6.96,-1.00
18606.00,-6.45,6.93,-7.51,0.50,-1.05,-0.06,-28.88,16.74,6.96,-1.00
18617.00,-6.93,5.96,-7.64,1.58,-1.52,-0.22,-28.88,16.74,6.96,-1.00
18629.00,-6.65,4.57,-7.52,2.51,-2.08,-0.04,-28.88,16.74,6.96,-1.00
18643.00,-6.65,4.57,-7.52,2.51,-2.08,-0.04,-28.88,16.74,6.96,-1.00
18655.00,-9.55,3.46,-2.92,3.10,-2.59,0.29,-28.88,16.74,6.96,-1.00
18667.00,-7.74,1.47,-1.94,2.24,-2.13,0.39,-28.88,16.74,6.96,-1.00
18679.00,-7.74,1.47,-1.94,2.24,-2.13,0.39,-28.88,16.74,6.96,-1.00
18693.00,-6.18,0.59,-4.61,1.26,-1.46,0.51,-28.88,16.74,6.96,-1.00
18705.00,-6.18,0.59,-4.61,1.26,-1.46,0.51,-28.88,16.74,6.96,-1.00
18717.00,-5.59,1.81,-6.81,0.70,-1.25,0.73,-31.81,9.73,11.65,-1.00
18729.00,-5.89,2.46,-8.71,0.43,-1.09,0.90,-31.81,9.73,11.65,-1.00
18743.00,-5.89,2.46,-8.71,0.43,-1.09,0.90,-31.81,9.73,11.65,-1.00
18755.00,-6.71,3.75,-7.84,0.16,-1.67,0.87,-31.81,9.73,11.65,-1.00
18767.00,-7.74,3.43,-5.52,0.24,-2.12,0.68,-31.81,9.73,11.65,-1.00
18779.00,-7.74,3.43,-5.52,0.24,-2.12,0.68,-31.81,9.73,11.65,-1.00
18793.00,-9.36,2.61,-2.86,0.26,-2.09,0.61,-31.81,9.73,11.65,-1.00
18805.00,-9.36,2.61,-2.86,0.26,-2.09,0.61,-31.81,9.73,11.65,-1.00
18817.00,-8.47,2.39,-1.97,0.17,-1.58,0.74,-31.81,9.73,11.65,-1.00
18829.00,-7.88,2.30,-4.50,0.12,-0.84,0.94,-30.13,7.57,14.33,-1.00
18843.00,-7.88,2.30,-4.50,0.12,-0.84,0.94,-30.13,7.57,14.33,-1.00
18855.00,-7.83,3.00,-6.88,-0.02,-0.61,1.10,-30.13,7.57,14.33,-1.00
18867.00,-7.77,2.99,-7.40,0.01,-0.81,1.10,-30.13,7.57,14.33,-1.00
18879.00,-7.77,2.99,-7.40,0.01,-0.81,1.10,-30.13,7.57,14.33,-1.00
18893.00,-7.92,3.16,-6.71,-0.04,-1.17,1.03,-30.13,7.57,14.33,-1.00
18905.00,-7.92,3.16,-6.71,-0.04,-1.17,1.03,-30.13,7.57,14.33,-1.00
18917.00,-7.93,3.14,-6.01,-0.07,-1.36,0.96,-30.13,7.57,14.33,-1.00
18932.00,-7.79,3.71,-6.05,-0.08,-1.42,0.92,-30.13,7.57,14.33,-1.00
18943.00,-7.79,3.71,-6.05,-0.08,-1.42,0.92,-30.13,7.57,14.33,-1.00
18955.00,-7.75,3.11,-5.75,0.08,-1.45,0.84,-31.25,8.65,12.54,-1.00
18967.00,-7.47,1.85,-4.98,0.17,-1.45,0.89,-31.25,8.65,12.54,-1.00
18981.00,-7.47,1.85,-4.98,0.17,-1.45,0.89,-31.25,8.65,12.54,-1.00
18993.00,-7.29,1.20,-4.40,0.21,-1.35,1.18,-31.25,8.65,12.54,-1.00
19005.00,-7.29,1.20,-4.40,0.21,-1.35,1.18,-31.25,8.65,12.54,-1.00
19017.00,-8.73,3.00,-4.29,0.09,-1.10,1.52,-31.25,8.65,12.54,-1.00
19031.00,-8.22,3.83,-6.82,-0.13,-0.88,1.40,-31.25,8.65,12.54,-1.00
19043.00,-8.22,3.83,-6.82,-0.13,-0.88,1.40,-31.25,8.65,12.54,-1.00
19055.00,-8.02,3.96,-7.18,-0.32,-1.06,1.09,-31.25,8.65,12.54,-1.00
19067.00,-8.38,4.55,-6.64,-0.43,-1.34,0.82,-31.25,8.65,12.54,-1.00
19081.00,-8.38,4.55,-6.64,-0.43,-1.34,0.82,-31.25,8.65,12.54,-1.00
19094.00,-8.16,4.58,-7.00,-0.45,-1.59,0.55,-30.27,10.27,12.32,-1.00
19105.00,-8.16,4.58,-7.00,-0.45,-1.59,0.55,-30.27,10.27,12.32,-1.00
19119.00,-7.90,4.36,-6.03,-0.30,-1.91,0.31,-30.27,10.27,12.32,-1.00
19131.00,-8.27,2.66,-4.36,0.07,-2.02,0.19,-30.27,10.27,12.32,-1.00
19143.00,-8.27,2.66,-4.36,0.07,-2.02,0.19,-30.27,10.27,12.32,-1.00
19155.00,-9.32,1.70,-1.65,0.25,-1.87,0.50,-30.27,10.27,12.32,-1.00
19169.00,-8.14,0.69,-1.35,0.59,-1.03,0.97,-30.27,10.27,12.32,-1.00
19181.00,-8.14,0.69,-1.35,0.59,-1.03,0.97,-30.27,10.27,12.32,-1.00
19193.00,-8.75,3.04,-3.55,0.33,-0.28,1.32,-30.27,10.27,12.32,-1.00
19205.00,-8.75,3.04,-3.55,0.33,-0.28,1.32,-30.27,10.27,12.32,-1.00
19219.00,-7.91,4.07,-4.70,-0.22,-0.07,1.14,-30.97,9.01,13.44,-1.00
19231.00,-6.37,3.71,-4.88,-0.36,0.05,0.89,-30.97,9.01,13.44,-1.00
19243.00,-6.37,3.71,-4.88,-0.36,0.05,0.89,-30.97,9.01,13.44,-1.00
19255.00,-5.95,1.59,-5.66,-0.66,0.16,0.87,-30.97,9.01,13.44,-1.00
19269.00,-6.98,2.58,-7.45,-1.24,0.10,0.84,-30.97,9.01,13.44,-1.00
19281.00,-6.98,2.58,-7.45,-1.24,0.10,0.84,-30.97,9.01,13.44,-1.00
19293.00,-6.55,3.30,-7.86,-1.01,0.17,0.76,-30.97,9.01,13.44,-1.00
19305.00,-6.55,3.30,-7.86,-1.01,0.17,0.76,-30.97,9.01,13.44,-1.00
19319.00,-5.40,2.60,-9.95,-0.88,0.16,0.71,-30.97,9.01,13.44,-1.00
19331.00,-6.99,2.95,-9.64,-0.85,-0.54,0.74,-29.44,7.03,3.84,-1.00
19343.00,-6.99,2.95,-9.64,-0.85,-0.54,0.74,-29.44,7.03,3.84,-1.00
19358.00,-8.40,3.42,-6.47,-0.39,-1.29,0.77,-29.44,7.03,3.84,-1.00
19370.00,-8.28,3.79,-5.43,0.10,-1.37,0.79,-29.44,7.03,3.84,-1.00
19382.00,-8.28,3.79,-5.43,0.10,-1.37,0.79,-29.44,7.03,3.84,-1.00
19394.00,-7.64,4.15,-6.71,0.24,-1.22,0.75,-29.44,7.03,3.84,-1.00
19408.00,-7.49,4.51,-7.11,0.29,-1.27,0.68,-29.44,7.03,3.84,-1.00
19420.00,-7.49,4.51,-7.11,0.29,-1.27,0.68,-29.44,7.03,3.84,-1.00
19432.00,-7.55,3.38,-7.39,0.42,-1.49,0.60,-29.44,7.03,3.84,-1.00
19444.00,-7.55,3.38,-7.39,0.42,-1.49,0.60,-29.44,7.03,3.84,-1.00
19458.00,-7.17,2.84,-6.83,0.24,-1.74,0.60,-29.44,5.95,3.84,-1.00
19470.00,-6.83,2.53,-7.31,0.11,-1.84,0.62,-29.44,5.95,3.84,-1.00
19482.00,-6.83,2.53,-7.31,0.11,-1.84,0.62,-29.44,5.95,3.84,-1.00
19494.00,-7.24,2.46,-5.96,0.06,-1.95,0.61,-29.44,5.95,3.84,-1.00
19508.00,-7.30,2.38,-5.06,0.07,-1.88,0.62,-29.44,5.95,3.84,-1.00
19520.00,-7.30,2.38,-5.06,0.07,-1.88,0.62,-29.44,5.95,3.84,-1.00
19532.00,-7.61,2.63,-5.33,0.05,-1.69,0.68,-29.44,5.95,3.84,-1.00
19544.00,-7.61,2.63,-5.33,0.05,-1.69,0.68,-29.44,5.95,3.84,-1.00
19558.00,-8.00,2.33,-4.99,0.04,-1.54,0.71,-29.44,5.95,3.84,-1.00
19570.00,-7.61,2.38,-5.57,-0.01,-1.35,0.76,-29.44,5.95,3.84,-1.00
19582.00,-7.61,2.38,-5.57,-0.01,-1.35,0.76,-29.44,5.95,3.84,-1.00
19594.00,-7.86,2.83,-6.81,-0.07,-1.29,0.82,-30.55,5.95,7.41,-1.00
19608.00,-7.78,2.82,-6.28,-0.10,-1.44,0.82,-30.55,5.95,7.41,-1.00
19620.00,-7.78,2.82,-6.28,-0.10,-1.44,0.82,-30.55,5.95,7.41,-1.00
19632.00,-8.30,2.64,-5.12,-0.05,-1.53,0.79,-30.55,5.95,7.41,-1.00
19647.00,-8.30,2.64,-5.12,-0.05,-1.53,0.79,-30.55,5.95,7.41,-1.00
19658.00,-7.92,2.16,-4.02,0.04,-1.37,0.80,-30.55,5.95,7.41,-1.00
19670.00,-7.90,1.62,-3.66,0.22,-1.04,0.90,-30.55,5.95,7.41,-1.00
19682.00,-7.90,1.62,-3.66,0.22,-1.04,0.90,-30.55,5.95,7.41,-1.00
19696.00,-7.49,1.53,-4.50,0.15,-0.62,1.10,-30.55,5.95,7.41,-1.00
19708.00,-7.72,2.46,-6.71,-0.21,-0.37,1.32,-29.99,5.60,6.52,-1.00
19720.00,-7.72,2.46,-6.71,-0.21,-0.37,1.32,-29.99,5.60,6.52,-1.00
19732.00,-7.14,3.20,-8.62,-0.22,-0.55,1.47,-29.99,5.60,6.52,-1.00
19746.00,-7.14,3.20,-8.62,-0.22,-0.55,1.47,-29.99,5.60,6.52,-1.00
19836.00,-7.71,2.91,-4.66,0.37,-1.98,0.38,-30.55,5.24,9.20,-1.00
19923.00,-7.41,1.44,-6.52,-0.07,-0.71,1.41,-30.55,5.24,9.20,-1.00
20012.00,-7.54,2.52,-5.26,0.29,-1.90,0.40,-29.99,6.67,7.86,-1.00
20026.00,-7.54,2.52,-5.26,0.29,-1.90,0.40,-29.99,6.67,7.86,-1.00
20038.00,-7.54,1.80,-4.45,0.38,-1.78,0.51,-29.99,6.67,7.86,-1.00
20050.00,-7.71,1.13,-4.37,0.48,-1.51,0.74,-29.99,6.67,7.86,-1.00
20062.00,-7.71,1.13,-4.37,0.48,-1.51,0.74,-29.99,6.67,7.86,-1.00
20076.00,-7.35,0.72,-4.65,0.35,-1.24,1.07,-29.99,6.67,7.86,-1.00
20088.00,-8.32,1.93,-5.08,0.10,-1.05,1.41,-30.69,5.77,12.10,-1.00
20100.00,-8.32,1.93,-5.08,0.10,-1.05,1.41,-30.69,5.77,12.10,-1.00
20112.00,-8.66,3.29,-6.73,-0.08,-0.97,1.41,-30.69,5.77,12.10,-1.00
20127.00,-8.66,3.29,-6.73,-0.08,-0.97,1.41,-30.69,5.77,12.10,-1.00
20138.00,-8.53,3.80,-7.90,-0.20,-1.19,1.06,-30.69,5.77,12.10,-1.00
20150.00,-7.82,3.46,-6.70,-0.20,-1.58,0.65,-30.69,5.77,12.10,-1.00
20164.00,-7.82,3.46,-6.70,-0.20,-1.58,0.65,-30.69,5.77,12.10,-1.00
20176.00,-7.81,2.30,-5.95,-0.23,-1.77,0.48,-30.69,5.77,12.10,-1.00
20188.00,-7.89,1.60,-4.54,-0.23,-1.82,0.60,-30.69,5.77,12.10,-1.00
20200.00,-7.89,1.60,-4.54,-0.23,-1.82,0.60,-30.69,5.77,12.10,-1.00
20214.00,-7.87,1.13,-4.10,0.10,-1.58,0.87,-30.69,6.13,14.33,-1.00
20226.00,-7.87,1.13,-4.10,0.10,-1.58,0.87,-30.69,6.13,14.33,-1.00
20238.00,-7.91,1.66,-4.96,0.36,-1.30,1.27,-30.69,6.13,14.33,-1.00
20250.00,-8.47,2.87,-5.16,0.52,-1.21,1.57,-30.69,6.13,14.33,-1.00
20264.00,-8.47,2.87,-5.16,0.52,-1.21,1.57,-30.69,6.13,14.33,-1.00
20276.00,-9.62,3.98,-6.02,0.72,-1.22,1.46,-30.69,6.13,14.33,-1.00
20288.00,-9.22,3.88,-6.76,0.68,-1.36,0.97,-30.69,6.13,14.33,-1.00
20300.00,-9.22,3.88,-6.76,0.68,-1.36,0.97,-30.69,6.13,14.33,-1.00
20314.00,-7.19,1.63,-6.84,0.54,-1.54,0.57,-30.69,6.13,14.33,-1.00
20326.00,-7.19,1.63,-6.84,0.54,-1.54,0.57,-30.69,6.13,14.33,-1.00
20338.00,-7.41,1.66,-6.76,0.26,-1.81,0.60,-31.11,4.16,15.00,-1.00
20350.00,-7.48,2.11,-6.30,0.04,-2.03,0.65,-31.11,4.16,15.00,-1.00
20364.00,-7.48,2.11,-6.30,0.04,-2.03,0.65,-31.11,4.16,15.00,-1.00
20376.00,-6.84,2.08,-5.53,0.13,-2.20,0.60,-31.11,4.16,15.00,-1.00
20388.00,-10.21,1.56,-2.57,0.45,-2.23,0.63,-31.11,4.16,15.00,-1.00
20400.00,-10.21,1.56,-2.57,0.45,-2.23,0.63,-31.11,4.16,15.00,-1.00
20415.00,-9.04,0.71,-0.25,0.52,-1.81,0.75,-31.11,4.16,15.00,-1.00
20427.00,-9.04,0.71,-0.25,0.52,-1.81,0.75,-31.11,4.16,15.00,-1.00
20439.00,-8.79,0.80,-1.56,0.49,-0.92,0.99,-31.11,4.16,15.00,-1.00
20453.00,-8.10,0.85,-4.07,0.24,-0.27,1.24,-31.11,4.16,15.00,-1.00
20465.00,-8.10,0.85,-4.07,0.24,-0.27,1.24,-31.11,4.16,15.00,-1.00
20477.00,-8.44,1.74,-6.80,0.01,-0.05,1.53,-31.53,4.70,18.79,-1.00
20489.00,-8.53,3.62,-9.60,-0.05,-0.29,1.72,-31.53,4.70,18.79,-1.00
20503.00,-8.53,3.62,-9.60,-0.05,-0.29,1.72,-31.53,4.70,18.79,-1.00
20515.00,-8.45,3.97,-9.39,0.21,-1.26,1.46,-31.53,4.70,18.79,-1.00
20527.00,-8.45,3.97,-9.39,0.21,-1.26,1.46,-31.53,4.70,18.79,-1.00
20539.00,-8.54,3.12,-7.09,0.29,-2.06,0.98,-31.53,4.70,18.79,-1.00
20554.00,-8.20,2.47,-5.15,0.09,-2.41,0.60,-31.53,4.70,18.79,-1.00
20565.00,-8.20,2.47,-5.15,0.09,-2.41,0.60,-31.53,4.70,18.79,-1.00
20577.00,-8.44,1.37,-3.03,0.06,-2.34,0.46,-31.53,4.70,18.79,-1.00
20589.00,-8.75,1.67,-1.01,0.13,-1.93,0.54,-30.27,4.88,20.36,-1.00
20603.00,-8.75,1.67,-1.01,0.13,-1.93,0.54,-30.27,4.88,20.36,-1.00
20615.00,-8.87,1.60,-0.84,0.38,-1.15,0.65,-30.27,4.88,20.36,-1.00
20627.00,-8.87,1.60,-0.84,0.38,-1.15,0.65,-30.27,4.88,20.36,-1.00
20639.00,-10.64,1.49,-3.23,0.46,-0.37,0.75,-30.27,4.88,20.36,-1.00
20653.00,-9.86,2.74,-5.24,0.46,0.04,0.85,-30.27,4.88,20.36,-1.00
20743.00,-5.39,-1.12,-7.94,0.34,-2.10,0.61,-31.11,2.00,16.78,-1.00
20831.00,-7.48,-0.23,-4.30,-0.79,0.07,1.95,-31.39,3.08,19.02,-1.00
20845.00,-7.48,-0.23,-4.30,-0.79,0.07,1.95,-31.39,3.08,19.02,-1.00
20857.00,-7.36,0.62,-5.09,-1.20,0.15,2.33,-31.39,3.08,19.02,-1.00
20869.00,-9.09,3.97,-7.63,-1.34,-0.02,2.63,-31.39,3.08,19.02,-1.00
20881.00,-9.09,3.97,-7.63,-1.34,-0.02,2.63,-31.39,3.08,19.02,-1.00
20896.00,-8.76,6.88,-11.04,-0.55,-0.46,2.33,-31.39,3.08,19.02,-1.00
20907.00,-8.76,6.88,-11.04,-0.55,-0.46,2.33,-31.39,3.08,19.02,-1.00
20919.00,-8.83,6.77,-11.09,0.31,-1.42,1.35,-31.39,3.08,19.02,-1.00
20931.00,-7.83,3.97,-6.09,0.69,-2.53,0.32,-31.39,3.08,19.02,-1.00
20945.00,-7.83,3.97,-6.09,0.69,-2.53,0.32,-31.39,3.08,19.02,-1.00
20957.00,-8.16,1.25,-2.40,0.91,-2.82,-0.06,-31.39,3.08,19.02,-1.00
20969.00,-7.92,-0.39,-0.24,0.82,-2.30,0.12,-31.39,5.95,21.25,-1.00
20981.00,-7.92,-0.39,-0.24,0.82,-2.30,0.12,-31.39,5.95,21.25,-1.00
20995.00,-7.99,-0.65,-1.46,0.57,-1.27,0.70,-31.39,5.95,21.25,-1.00
21007.00,-7.99,-0.65,-1.46,0.57,-1.27,0.70,-31.39,5.95,21.25,-1.00
21019.00,-7.94,-0.54,-4.15,0.06,-0.48,1.34,-31.39,5.95,21.25,-1.00
21033.00,-8.91,3.49,-8.50,-0.39,-0.20,1.82,-31.39,5.95,21.25,-1.00
21045.00,-8.91,3.49,-8.50,-0.39,-0.20,1.82,-31.39,5.95,21.25,-1.00
21057.00,-9.35,5.46,-6.54,0.10,-0.85,1.79,-31.39,5.95,21.25,-1.00
21069.00,-9.44,5.57,-6.73,0.51,-1.38,1.16,-31.39,5.95,21.25,-1.00
21083.00,-9.44,5.57,-6.73,0.51,-1.38,1.16,-31.39,5.95,21.25,-1.00
21095.00,-13.63,4.46,-1.80,0.41,-1.75,0.54,-31.81,8.29,16.56,-1.00
21107.00,-13.63,4.46,-1.80,0.41,-1.75,0.54,-31.81,8.29,16.56,-1.00
21119.00,-13.26,3.82,1.57,-0.52,-1.51,-0.09,-31.81,8.29,16.56,-1.00
21133.00,-8.65,1.45,-1.03,-0.27,0.10,-0.46,-31.81,8.29,16.56,-1.00
21145.00,-8.65,1.45,-1.03,-0.27,0.10,-0.46,-31.81,8.29,16.56,-1.00
21157.00,-5.83,-0.22,-5.92,-0.46,1.07,-0.43,-31.81,8.29,16.56,-1.00
21169.00,-2.75,-0.18,-5.82,-0.91,0.86,0.13,-31.81,8.29,16.56,-1.00
21183.00,-2.75,-0.18,-5.82,-0.91,0.86,0.13,-31.81,8.29,16.56,-1.00
21196.00,-0.80,0.33,-7.35,-1.30,0.91,0.51,-31.81,8.29,16.56,-1.00
21208.00,-0.80,0.33,-7.35,-1.30,0.91,0.51,-31.81,8.29,16.56,-1.00
21222.00,0.10,0.64,-8.44,-1.29,0.44,0.78,-29.72,3.80,5.62,-1.00
21234.00,-2.94,0.99,-10.06,-1.08,-0.21,1.09,-29.72,3.80,5.62,-1.00
21246.00,-2.94,0.99,-10.06,-1.08,-0.21,1.09,-29.72,3.80,5.62,-1.00
21258.00,-17.34,3.67,-13.44,-1.04,-1.00,1.51,-29.72,3.80,5.62,-1.00
21272.00,-11.82,4.34,-10.77,-0.63,-1.00,1.33,-29.72,3.80,5.62,-1.00
21284.00,-11.82,4.34,-10.77,-0.63,-1.00,1.33,-29.72,3.80,5.62,-1.00
21296.00,-6.86,2.13,-5.52,0.43,-1.50,0.65,-29.72,3.80,5.62,-1.00
21308.00,-6.86,2.13,-5.52,0.43,-1.50,0.65,-29.72,3.80,5.62,-1.00
21323.00,-6.28,1.63,-4.00,0.83,-1.97,0.21,-29.72,3.80,5.62,-1.00
21334.00,-6.44,1.36,-4.53,1.07,-2.14,0.01,-29.72,0.56,5.18,-1.00
21346.00,-6.44,1.36,-4.53,1.07,-2.14,0.01,-29.72,0.56,5.18,-1.00
21358.00,-8.36,-0.85,-7.44,1.00,-1.82,0.24,-29.72,0.56,5.18,-1.00
21372.00,-7.28,0.32,-6.90,0.44,-1.39,1.02,-29.72,0.56,5.18,-1.00
21384.00,-7.28,0.32,-6.90,0.44,-1.39,1.02,-29.72,0.56,5.18,-1.00
21396.00,-6.75,0.93,-5.44,0.13,-0.98,1.44,-29.72,0.56,5.18,-1.00
21408.00,-6.75,0.93,-5.44,0.13,-0.98,1.44,-29.72,0.56,5.18,-1.00
21422.00,-7.91,1.19,-5.74,0.03,-0.88,1.42,-29.72,0.56,5.18,-1.00
21434.00,-10.23,2.20,-5.86,-0.10,-1.03,1.25,-29.72,0.56,5.18,-1.00
21446.00,-10.23,2.20,-5.86,-0.10,-1.03,1.25,-29.72,0.56,5.18,-1.00
21458.00,-9.73,2.58,-5.84,-0.20,-0.92,0.95,-29.72,0.56,5.18,-1.00
21473.00,-7.53,1.38,-6.23,-0.31,-0.69,0.68,-29.02,-0.69,6.29,-1.00
21484.00,-7.53,1.38,-6.23,-0.31,-0.69,0.68,-29.02,-0.69,6.29,-1.00
21496.00,-5.90,0.94,-7.43,-0.54,-0.66,0.81,-29.02,-0.69,6.29,-1.00
21511.00,-4.05,1.03,-7.91,-0.64,-0.92,1.13,-29.02,-0.69,6.29,-1.00
21522.00,-4.05,1.03,-7.91,-0.64,-0.92,1.13,-29.02,-0.69,6.29,-1.00
21534.00,-4.90,1.37,-7.30,-0.77,-1.58,1.30,-29.02,-0.69,6.29,-1.00
21546.00,-4.90,1.37,-7.30,-0.77,-1.58,1.30,-29.02,-0.69,6.29,-1.00
21560.00,-9.42,3.40,-6.47,-0.75,-2.23,1.52,-29.02,-0.69,6.29,-1.00
21572.00,-9.62,3.58,-5.41,-0.22,-1.97,1.72,-29.02,-0.69,6.29,-1.00
21584.00,-9.62,3.58,-5.41,-0.22,-1.97,1.72,-29.02,-0.69,6.29,-1.00
21596.00,-7.37,2.92,-4.86,0.05,-1.44,1.63,-30.97,5.06,4.51,-1.00
21610.00,-7.17,2.56,-6.13,0.10,-1.22,1.29,-30.97,5.06,4.51,-1.00
21623.00,-7.17,2.56,-6.13,0.10,-1.22,1.29,-30.97,5.06,4.51,-1.00
21634.00,-7.48,2.43,-7.47,0.07,-1.28,1.03,-30.97,5.06,4.51,-1.00
21646.00,-7.48,2.43,-7.47,0.07,-1.28,1.03,-30.97,5.06,4.51,-1.00
21661.00,-6.46,1.83,-7.25,0.02,-1.28,0.99,-30.97,5.06,4.51,-1.00
21672.00,-6.42,1.58,-6.83,0.05,-1.35,1.02,-30.97,5.06,4.51,-1.00
21684.00,-6.42,1.58,-6.83,0.05,-1.35,1.02,-30.97,5.06,4.51,-1.00
21696.00,-7.52,2.37,-6.85,-0.06,-1.55,1.04,-30.97,5.06,4.51,-1.00
21710.00,-9.94,2.66,-5.70,-0.16,-1.72,0.97,-32.51,5.95,6.96,-1.00
21722.00,-9.94,2.66,-5.70,-0.16,-1.72,0.97,-32.51,5.95,6.96,-1.00
21734.00,-8.63,3.37,-5.80,-0.32,-1.63,1.03,-32.51,5.95,6.96,-1.00
21748.00,-8.63,3.37,-5.80,-0.32,-1.63,1.03,-32.51,5.95,6.96,-1.00
21760.00,-8.33,3.42,-7.28,0.02,-1.55,1.10,-32.51,5.95,6.96,-1.00
21772.00,-8.28,3.51,-7.97,0.46,-1.73,1.14,-32.51,5.95,6.96,-1.00
21784.00,-8.28,3.51,-7.97,0.46,-1.73,1.14,-32.51,5.95,6.96,-1.00
21798.00,-8.77,3.88,-6.74,0.56,-2.25,0.89,-32.51,5.95,6.96,-1.00
21810.00,-7.78,2.79,-5.13,0.56,-2.56,0.28,-32.51,5.95,6.96,-1.00
21822.00,-7.78,2.79,-5.13,0.56,-2.56,0.28,-32.51,5.95,6.96,-1.00
21834.00,-8.00,0.86,-2.64,0.79,-2.39,-0.04,-31.39,2.72,15.00,-1.00
21848.00,-8.00,0.86,-2.64,0.79,-2.39,-0.04,-31.39,2.72,15.00,-1.00
21860.00,-8.11,-0.31,-1.91,0.45,-1.88,0.05,-31.39,2.72,15.00,-1.00
21872.00,-7.84,0.86,-3.30,-0.27,-1.17,0.40,-31.39,2.72,15.00,-1.00
21884.00,-7.84,0.86,-3.30,-0.27,-1.17,0.40,-31.39,2.72,15.00,-1.00
21898.00,-7.92,1.96,-5.27,-0.48,-0.69,0.70,-31.39,2.72,15.00,-1.00
21910.00,-7.90,1.70,-5.43,0.15,-0.52,1.12,-31.39,2.72,15.00,-1.00
21922.00,-7.90,1.70,-5.43,0.15,-0.52,1.12,-31.39,2.72,15.00,-1.00
21934.00,-6.35,-0.15,-5.59,0.62,-0.36,1.60,-31.39,2.72,15.00,-1.00
21948.00,-6.35,-0.15,-5.59,0.62,-0.36,1.60,-31.39,2.72,15.00,-1.00
21960.00,-6.99,0.71,-7.03,0.18,-0.34,2.09,-31.39,2.72,15.00,-1.00
21972.00,-7.72,1.36,-6.32,-0.13,-0.51,2.55,-31.11,4.88,9.20,-1.00
21984.00,-7.72,1.36,-6.32,-0.13,-0.51,2.55,-31.11,4.88,9.20,-1.00
21998.00,-9.07,1.88,-4.71,-0.35,-0.63,2.63,-31.11,4.88,9.20,-1.00
22010.00,-9.40,2.85,-4.06,-1.13,-0.72,2.39,-31.11,4.88,9.20,-1.00
22022.00,-9.40,2.85,-4.06,-1.13,-0.72,2.39,-31.11,4.88,9.20,-1.00
22036.00,-9.31,4.97,-4.32,-2.20,-0.51,1.70,-31.11,4.88,9.20,-1.00
22048.00,-9.31,4.97,-4.32,-2.20,-0.51,1.70,-31.11,4.88,9.20,-1.00
22060.00,-8.16,6.69,-8.12,-1.82,-0.04,1.06,-31.11,4.88,9.20,-1.00
22072.00,-7.29,6.62,-10.12,-0.69,-0.25,0.58,-31.11,4.88,9.20,-1.00
22086.00,-7.29,6.62,-10.12,-0.69,-0.25,0.58,-31.11,4.88,9.20,-1.00
22098.00,-8.24,5.25,-7.64,0.43,-1.28,0.17,-30.83,9.91,3.84,-1.00
22110.00,-7.70,2.57,-4.59,1.03,-1.86,-0.05,-30.83,9.91,3.84,-1.00
22122.00,-7.70,2.57,-4.59,1.03,-1.86,-0.05,-30.83,9.91,3.84,-1.00
22136.00,-7.13,1.47,-5.66,0.83,-1.68,0.08,-30.83,9.91,3.84,-1.00
22148.00,-7.13,1.47,-5.66,0.83,-1.68,0.08,-30.83,9.91,3.84,-1.00
22160.00,-5.68,1.06,-7.63,0.39,-1.41,0.51,-30.83,9.91,3.84,-1.00
22172.00,-5.13,1.76,-8.22,0.17,-1.60,0.91,-30.83,9.91,3.84,-1.00
22187.00,-5.13,1.76,-8.22,0.17,-1.60,0.91,-30.83,9.91,3.84,-1.00
22198.00,-8.91,2.38,-6.22,0.26,-2.02,0.95,-30.83,9.91,3.84,-1.00
22210.00,-8.42,2.52,-3.19,0.03,-2.11,0.89,-32.37,6.85,9.87,-1.00
22222.00,-8.42,2.52,-3.19,0.03,-2.11,0.89,-32.37,6.85,9.87,-1.00
22236.00,-8.16,2.55,-2.65,0.07,-1.65,0.91,-32.37,6.85,9.87,-1.00
22248.00,-8.16,2.55,-2.65,0.07,-1.65,0.91,-32.37,6.85,9.87,-1.00
22260.00,-7.66,1.94,-4.14,0.19,-0.90,0.99,-32.37,6.85,9.87,-1.00
22272.00,-7.67,2.02,-6.26,0.25,-0.49,1.21,-32.37,6.85,9.87,-1.00
22286.00,-7.67,2.02,-6.26,0.25,-0.49,1.21,-32.37,6.85,9.87,-1.00
22376.00,-7.56,4.47,-6.87,0.20,-2.20,0.53,-31.81,8.29,8.08,-1.00
22464.00,-7.49,0.84,-4.15,-0.01,-0.64,1.07,-31.81,8.29,8.08,-1.00
22478.00,-7.49,2.46,-6.43,-0.36,-0.38,1.43,-31.25,6.85,11.20,-1.00
22490.00,-7.90,3.07,-7.82,-0.16,-0.51,1.60,-31.25,6.85,11.20,-1.00
22502.00,-7.90,3.07,-7.82,-0.16,-0.51,1.60,-31.25,6.85,11.20,-1.00
22514.00,-8.33,3.87,-7.75,0.16,-0.92,1.59,-31.25,6.85,11.20,-1.00
22529.00,-8.33,3.87,-7.75,0.16,-0.92,1.59,-31.25,6.85,11.20,-1.00
22540.00,-8.52,3.84,-7.64,0.42,-1.32,1.34,-31.25,6.85,11.20,-1.00
22552.00,-8.07,3.96,-7.96,0.45,-1.66,1.00,-31.25,6.85,11.20,-1.00
22564.00,-8.07,3.96,-7.96,0.45,-1.66,1.00,-31.25,6.85,11.20,-1.00
22578.00,-7.90,3.11,-6.68,0.44,-2.00,0.64,-31.25,6.85,11.20,-1.00
22590.00,-7.75,2.33,-5.55,0.48,-2.13,0.44,-31.25,6.85,11.20,-1.00
22602.00,-7.75,2.33,-5.55,0.48,-2.13,0.44,-32.37,7.57,13.88,-1.00
22614.00,-7.82,1.73,-4.02,0.52,-2.02,0.39,-32.37,7.57,13.88,-1.00
22628.00,-7.82,1.73,-4.02,0.52,-2.02,0.39,-32.37,7.57,13.88,-1.00
22640.00,-7.85,0.90,-3.63,0.46,-1.72,0.53,-32.37,7.57,13.88,-1.00
22652.00,-8.08,0.82,-3.22,0.33,-1.35,0.83,-32.37,7.57,13.88,-1.00
22664.00,-8.08,0.82,-3.22,0.33,-1.35,0.83,-32.37,7.57,13.88,-1.00
22679.00,-7.73,0.79,-3.80,0.18,-0.93,1.12,-32.37,7.57,13.88,-1.00
22690.00,-7.73,0.79,-3.80,0.18,-0.93,1.12,-32.37,7.57,13.88,-1.00
22702.00,-7.76,1.00,-5.46,-0.05,-0.63,1.43,-32.37,7.57,13.88,-1.00
22716.00,-8.17,1.85,-6.98,-0.29,-0.57,1.75,-32.23,6.67,12.32,-1.00
22728.00,-8.17,1.85,-6.98,-0.29,-0.57,1.75,-32.23,6.67,12.32,-1.00
22740.00,-8.98,4.27,-7.48,-0.39,-0.81,1.74,-32.23,6.67,12.32,-1.00
22752.00,-8.83,4.43,-8.96,-0.34,-1.21,1.21,-32.23,6.67,12.32,-1.00
22766.00,-8.83,4.43,-8.96,-0.34,-1.21,1.21,-32.23,6.67,12.32,-1.00
22778.00,-7.80,4.71,-8.23,-0.45,-1.81,0.69,-32.23,6.67,12.32,-1.00
22790.00,-7.80,4.71,-8.23,-0.45,-1.81,0.69,-32.23,6.67,12.32,-1.00
22802.00,-7.73,2.92,-6.30,-0.16,-2.27,0.32,-32.23,6.67,12.32,-1.00
22816.00,-8.23,1.88,-3.40,0.03,-2.42,0.36,-32.23,6.67,12.32,-1.00
22828.00,-8.23,1.88,-3.40,0.03,-2.42,0.36,-32.23,6.67,12.32,-1.00
22840.00,-8.68,1.74,-2.49,0.10,-2.12,0.54,-32.23,6.67,12.32,-1.00
22852.00,-9.17,1.60,-3.02,0.05,-1.61,0.77,-31.95,7.75,18.12,-1.00
22866.00,-9.17,1.60,-3.02,0.05,-1.61,0.77,-31.95,7.75,18.12,-1.00
22878.00,-7.58,1.10,-5.44,-0.08,-1.19,0.93,-31.95,7.75,18.12,-1.00
22890.00,-7.58,1.10,-5.44,-0.08,-1.19,0.93,-31.95,7.75,18.12,-1.00
22902.00,-7.32,1.55,-6.99,-0.01,-1.16,1.03,-31.95,7.75,18.12,-1.00
22916.00,-7.08,2.45,-7.81,-0.05,-1.50,0.99,-31.95,7.75,18.12,-1.00
22928.00,-7.08,2.45,-7.81,-0.05,-1.50,0.99,-31.95,7.75,18.12,-1.00
22940.00,-10.06,2.79,-4.89,-0.02,-2.03,0.84,-31.95,7.75,18.12,-1.00
22955.00,-9.11,2.07,-1.38,-0.02,-2.12,0.69,-31.95,7.75,18.12,-1.00
22966.00,-9.11,2.07,-1.38,-0.02,-2.12,0.69,-31.95,7.75,18.12,-1.00
22978.00,-8.77,1.07,-0.87,0.21,-1.42,0.75,-32.09,6.13,21.92,-1.00
22990.00,-8.77,1.07,-0.87,0.21,-1.42,0.75,-32.09,6.13,21.92,-1.00
23004.00,-8.28,1.10,-2.56,0.20,-0.61,1.03,-32.09,6.13,21.92,-1.00
23016.00,-8.01,1.23,-4.28,0.05,-0.15,1.35,-32.09,6.13,21.92,-1.00
23028.00,-8.01,1.23,-4.28,0.05,-0.15,1.35,-32.09,6.13,21.92,-1.00
23040.00,-8.37,2.17,-7.07,-0.15,-0.05,1.63,-32.09,6.13,21.92,-1.00
23054.00,-7.68,2.96,-8.98,-0.12,-0.31,1.77,-32.09,6.13,21.92,-1.00
23066.00,-7.68,2.96,-8.98,-0.12,-0.31,1.77,-32.09,6.13,21.92,-1.00
23078.00,-8.86,4.50,-8.63,0.14,-1.12,1.74,-32.09,6.13,21.92,-1.00
23090.00,-8.86,4.50,-8.63,0.14,-1.12,1.74,-32.09,6.13,21.92,-1.00
23105.00,-8.97,4.21,-7.02,0.25,-1.87,1.37,-32.51,9.19,15.00,-1.00
23116.00,-8.67,4.20,-6.55,0.02,-2.36,0.85,-32.51,9.19,15.00,-1.00
23128.00,-8.67,4.20,-6.55,0.02,-2.36,0.85,-32.51,9.19,15.00,-1.00
23140.00,-8.12,3.36,-4.76,0.11,-2.61,0.37,-32.51,9.19,15.00,-1.00
23154.00,-8.17,1.90,-2.03,0.44,-2.45,0.18,-32.51,9.19,15.00,-1.00
23166.00,-8.17,1.90,-2.03,0.44,-2.45,0.18,-32.51,9.19,15.00,-1.00
23178.00,-8.53,0.49,-0.72,0.55,-1.88,0.31,-32.51,9.19,15.00,-1.00
23192.00,-8.38,0.45,-1.92,0.45,-1.10,0.68,-32.51,9.19,15.00,-1.00
23204.00,-8.38,0.45,-1.92,0.45,-1.10,0.68,-32.51,9.19,15.00,-1.00
23216.00,-8.36,-0.73,-4.00,0.28,-0.55,1.10,-31.81,7.93,20.13,-1.00
23228.00,-8.36,-0.73,-4.00,0.28,-0.55,1.10,-31.81,7.93,20.13,-1.00
23242.00,-7.94,1.17,-6.48,-0.25,-0.39,1.66,-31.81,7.93,20.13,-1.00
23254.00,-8.76,3.96,-7.83,-0.11,-0.64,2.03,-31.81,7.93,20.13,-1.00
23266.00,-8.76,3.96,-7.83,-0.11,-0.64,2.03,-31.81,7.93,20.13,-1.00
23278.00,-9.43,5.01,-5.12,0.32,-1.40,1.90,-31.81,7.93,20.13,-1.00
23293.00,-9.33,3.93,-4.45,0.56,-1.64,1.30,-31.81,7.93,20.13,-1.00
23304.00,-9.33,3.93,-4.45,0.56,-1.64,1.30,-31.81,7.93,20.13,-1.00
23316.00,-9.69,2.89,-4.50,0.49,-1.58,0.93,-31.81,7.93,20.13,-1.00
23328.00,-9.69,2.89,-4.50,0.49,-1.58,0.93,-31.81,7.93,20.13,-1.00
23342.00,-10.59,3.28,-1.33,0.30,-1.41,0.82,-31.81,7.93,20.13,-1.00
23354.00,-8.05,1.46,-2.50,0.14,-0.73,0.68,-31.67,10.63,21.70,-1.00
23366.00,-8.05,1.46,-2.50,0.14,-0.73,0.68,-31.67,10.63,21.70,-1.00
23380.00,-6.02,0.57,-6.49,0.00,-0.23,0.78,-31.67,10.63,21.70,-1.00
23392.00,-4.96,0.38,-9.94,-0.19,-0.28,0.93,-31.67,10.63,21.70,-1.00
23404.00,-4.96,0.38,-9.94,-0.19,-0.28,0.93,-31.67,10.63,21.70,-1.00
23416.00,-5.64,0.75,-11.72,-0.33,-1.11,1.09,-31.67,10.63,21.70,-1.00
23430.00,-5.64,0.75,-11.72,-0.33,-1.11,1.09,-31.67,10.63,21.70,-1.00
23442.00,-7.39,1.98,-7.52,-0.45,-2.56,1.40,-31.67,10.63,21.70,-1.00
23454.00,-10.57,5.10,1.24,-0.79,-3.51,1.58,-31.67,10.63,21.70,-1.00
23466.00,-10.57,5.10,1.24,-0.79,-3.51,1.58,-31.67,10.63,21.70,-1.00
23480.00,-10.10,5.13,2.92,-0.18,-2.36,1.21,-32.23,11.70,25.27,-1.00
23492.00,-11.90,4.16,-1.40,0.29,-0.71,0.85,-32.23,11.70,25.27,-1.00
23504.00,-11.90,4.16,-1.40,0.29,-0.71,0.85,-32.23,11.70,25.27,-1.00
23516.00,-10.54,2.85,-1.06,0.23,0.05,0.62,-32.23,11.70,25.27,-1.00
23530.00,-10.54,2.85,-1.06,0.23,0.05,0.62,-32.23,11.70,25.27,-1.00
23542.00,-10.26,1.05,-0.57,-0.19,0.79,0.57,-32.23,11.70,25.27,-1.00
23554.00,-10.31,0.72,0.04,-1.00,1.66,0.84,-32.23,11.70,25.27,-1.00
23569.00,-10.31,0.72,0.04,-1.00,1.66,0.84,-32.23,11.70,25.27,-1.00
23580.00,-7.66,2.02,-5.33,-2.45,2.72,1.32,-32.23,11.70,25.27,-1.00
23592.00,-4.44,5.22,-10.58,-4.48,3.05,1.86,-31.11,13.14,6.96,-1.00
23604.00,-4.44,5.22,-10.58,-4.48,3.05,1.86,-31.11,13.14,6.96,-1.00
23618.00,-4.73,8.43,-15.96,-5.79,1.93,1.72,-31.11,13.14,6.96,-1.00
23630.00,-4.73,8.43,-15.96,-5.79,1.93,1.72,-31.11,13.14,6.96,-1.00
23642.00,-4.57,9.27,-13.63,-5.12,-0.55,0.86,-31.11,13.14,6.96,-1.00
23654.00,-4.75,8.09,-10.11,-3.16,-2.45,-0.02,-31.11,13.14,6.96,-1.00
23668.00,-4.75,8.09,-10.11,-3.16,-2.45,-0.02,-31.11,13.14,6.96,-1.00
23680.00,-4.92,6.07,-7.01,-1.28,-3.54,-0.72,-31.11,13.14,6.96,-1.00
23692.00,-5.89,4.03,-4.44,0.60,-4.03,-0.97,-31.11,13.14,6.96,-1.00
23704.00,-5.89,4.03,-4.44,0.60,-4.03,-0.97,-31.11,13.14,6.96,-1.00
23719.00,-5.34,2.73,-3.99,1.90,-3.85,-0.60,-33.77,14.04,15.67,-1.00
23730.00,-5.34,2.73,-3.99,1.90,-3.85,-0.60,-33.77,14.04,15.67,-1.00
23743.00,-6.24,2.08,-3.57,2.00,-3.60,-0.02,-33.77,14.04,15.67,-1.00
23756.00,-6.64,1.85,-2.89,0.60,-3.67,0.32,-33.77,14.04,15.67,-1.00
23768.00,-6.64,1.85,-2.89,0.60,-3.67,0.32,-33.77,14.04,15.67,-1.00
23780.00,-8.58,2.63,-2.34,-0.35,-3.86,0.55,-33.77,14.04,15.67,-1.00
23792.00,-10.84,3.06,-2.77,0.36,-3.69,0.94,-33.77,14.04,15.67,-1.00
23806.00,-10.84,3.06,-2.77,0.36,-3.69,0.94,-33.77,14.04,15.67,-1.00
23818.00,-9.69,0.01,0.73,5.10,-2.88,1.95,-33.77,14.04,15.67,-1.00
23830.00,-9.69,0.01,0.73,5.10,-2.88,1.95,-33.77,14.04,15.67,-1.00
23842.00,-8.61,0.47,-1.73,4.71,-1.81,3.08,-33.77,14.04,15.67,-1.00
23856.00,-6.42,1.17,-1.41,4.94,-0.59,3.99,-31.67,17.10,30.18,-1.00
23868.00,-6.42,1.17,-1.41,4.94,-0.59,3.99,-31.67,17.10,30.18,-1.00
23880.00,-5.77,3.38,-4.52,3.67,0.58,4.35,-31.67,17.10,30.18,-1.00
23892.00,-7.84,5.03,-5.37,2.70,1.45,4.15,-31.67,17.10,30.18,-1.00
23907.00,-7.84,5.03,-5.37,2.70,1.45,4.15,-31.67,17.10,30.18,-1.00
23918.00,-6.95,7.99,-9.59,-0.05,2.02,3.50,-31.67,17.10,30.18,-1.00
23930.00,-6.95,7.99,-9.59,-0.05,2.02,3.50,-31.67,17.10,30.18,-1.00
23944.00,-5.16,6.92,-8.28,-0.72,1.77,2.54,-31.67,17.10,30.18,-1.00
23956.00,-3.69,8.60,-11.34,1.51,1.04,1.47,-31.67,17.10,30.18,-1.00
23968.00,-3.69,8.60,-11.34,1.51,1.04,1.47,-31.67,17.10,30.18,-1.00
23980.00,-5.15,3.83,-7.84,3.94,0.22,0.52,-29.30,30.57,13.44,-1.00
23994.00,-5.71,1.02,-5.98,4.10,0.04,0.34,-29.30,30.57,13.44,-1.00
24006.00,-5.71,1.02,-5.98,4.10,0.04,0.34,-29.30,30.57,13.44,-1.00
24018.00,-4.12,0.17,-5.95,2.78,0.19,0.45,-29.30,30.57,13.44,-1.00
24030.00,-4.12,0.17,-5.95,2.78,0.19,0.45,-29.30,30.57,13.44,-1.00
24044.00,-4.42,-0.31,-7.06,1.51,0.25,0.72,-29.30,30.57,13.44,-1.00
24056.00,-5.30,1.21,-7.96,0.47,0.16,1.07,-29.30,30.57,13.44,-1.00
24068.00,-5.30,1.21,-7.96,0.47,0.16,1.07,-29.30,30.57,13.44,-1.00
24080.00,-5.49,2.67,-7.04,-0.05,0.18,1.57,-29.30,30.57,13.44,-1.00
24094.00,-4.79,3.60,-7.55,-0.85,0.21,1.63,-26.08,26.80,-1.96,-1.00
24106.00,-4.79,3.60,-7.55,-0.85,0.21,1.63,-26.08,26.80,-1.96,-1.00
24118.00,-4.21,3.78,-8.36,-1.41,-0.05,1.45,-26.08,26.80,-1.96,-1.00
24132.00,-3.74,3.49,-8.11,-1.09,-0.31,1.30,-26.08,26.80,-1.96,-1.00
24144.00,-3.74,3.49,-8.11,-1.09,-0.31,1.30,-26.08,26.80,-1.96,-1.00
24156.00,-4.57,3.66,-7.99,-0.56,-0.25,1.31,-26.08,26.80,-1.96,-1.00
24168.00,-4.57,3.66,-7.99,-0.56,-0.25,1.31,-26.08,26.80,-1.96,-1.00
24182.00,-5.13,4.55,-8.16,-0.75,-0.08,1.40,-26.08,26.80,-1.96,-1.00
24194.00,-3.95,4.55,-8.05,-0.98,0.10,1.39,-26.08,26.80,-1.96,-1.00
24206.00,-3.95,4.55,-8.05,-0.98,0.10,1.39,-26.08,26.80,-1.96,-1.00
24218.00,-3.48,3.81,-8.13,-0.50,0.21,1.31,-23.29,33.63,-5.54,-1.00
24232.00,-3.77,3.55,-7.76,-0.50,0.04,1.34,-23.29,33.63,-5.54,-1.00
24244.00,-3.77,3.55,-7.76,-0.50,0.04,1.34,-23.29,33.63,-5.54,-1.00
24256.00,-5.21,5.02,-6.99,-1.34,-0.17,1.48,-23.29,33.63,-5.54,-1.00
24268.00,-5.21,5.02,-6.99,-1.34,-0.17,1.48,-23.29,33.63,-5.54,-1.00
24282.00,-4.43,5.98,-5.55,-1.98,-0.10,1.58,-23.29,33.63,-5.54,-1.00
24294.00,-3.28,6.61,-6.90,-2.35,-0.05,1.54,-23.29,33.63,-5.54,-1.00
24306.00,-3.28,6.61,-6.90,-2.35,-0.05,1.54,-23.29,33.63,-5.54,-1.00
24320.00,-3.21,7.01,-7.24,-2.02,-0.21,1.42,-23.29,33.63,-5.54,-1.00
24332.00,-3.54,7.69,-8.04,-1.53,-0.52,1.40,-23.29,33.63,-5.54,-1.00
24344.00,-3.54,7.69,-8.04,-1.53,-0.52,1.40,-23.29,33.63,-5.54,-1.00
24356.00,-3.24,8.36,-6.95,-0.52,-0.63,1.59,-19.38,43.69,-3.75,-1.00
24370.00,-3.24,8.36,-6.95,-0.52,-0.63,1.59,-19.38,43.69,-3.75,-1.00
24382.00,-3.18,8.18,-5.55,-0.31,-0.58,1.57,-19.38,43.69,-3.75,-1.00
24394.00,-2.83,8.42,-5.86,-1.08,-0.74,1.25,-19.38,43.69,-3.75,-1.00
24406.00,-2.83,8.42,-5.86,-1.08,-0.74,1.25,-19.38,43.69,-3.75,-1.00
24420.00,-0.42,9.23,-6.83,-1.34,-0.80,1.02,-19.38,43.69,-3.75,-1.00
24432.00,-0.50,8.08,-6.86,-0.80,-0.74,0.86,-19.38,43.69,-3.75,-1.00
24444.00,-0.50,8.08,-6.86,-0.80,-0.74,0.86,-19.38,43.69,-3.75,-1.00
24459.00,-1.66,7.44,-6.51,-0.38,-0.79,0.86,-19.38,43.69,-3.75,-1.00
24470.00,-1.66,7.44,-6.51,-0.38,-0.79,0.86,-19.38,43.69,-3.75,-1.00
24482.00,-2.00,8.15,-5.79,-0.72,-1.02,0.99,-17.42,50.16,-1.96,-1.00
24494.00,-0.87,8.65,-5.10,-1.08,-1.01,1.04,-17.42,50.16,-1.96,-1.00
24508.00,-0.87,8.65,-5.10,-1.08,-1.01,1.04,-17.42,50.16,-1.96,-1.00
24520.00,-0.07,7.79,-7.23,-0.69,-0.73,0.89,-17.42,50.16,-1.96,-1.00
24532.00,-0.07,7.79,-7.23,-0.69,-0.73,0.89,-17.42,50.16,-1.96,-1.00
24544.00,-0.92,6.03,-6.43,-0.54,-1.02,0.73,-17.42,50.16,-1.96,-1.00
24558.00,-0.77,6.74,-4.72,-0.85,-1.38,0.88,-17.42,50.16,-1.96,-1.00
24570.00,-0.77,6.74,-4.72,-0.85,-1.38,0.88,-17.42,50.16,-1.96,-1.00
24582.00,-1.54,6.89,-4.29,-0.51,-1.21,1.21,-17.42,50.16,-1.96,-1.00
24594.00,-1.86,7.45,-5.90,-0.60,-0.94,1.54,-16.58,53.75,2.50,-1.00
24609.00,-1.86,7.45,-5.90,-0.60,-0.94,1.54,-16.58,53.75,2.50,-1.00
24696.00,-1.12,9.49,-5.87,-0.79,-1.31,0.94,-16.58,53.75,2.50,-1.00
24786.00,-1.24,7.58,-5.58,-0.12,-1.25,0.89,-13.37,55.01,12.10,-1.00
24800.00,-1.59,8.15,-5.23,-0.51,-1.20,1.13,-13.37,55.01,12.10,-1.00
24812.00,-1.59,8.15,-5.23,-0.51,-1.20,1.13,-13.37,55.01,12.10,-1.00
24824.00,-1.31,8.88,-5.52,-0.64,-1.11,1.30,-13.37,55.01,12.10,-1.00
24836.00,-0.56,9.55,-6.07,-0.71,-1.12,1.28,-13.37,55.01,12.10,-1.00
24850.00,-0.56,9.55,-6.07,-0.71,-1.12,1.28,-13.37,55.01,12.10,-1.00
24862.00,-1.01,9.73,-5.33,-0.48,-1.18,1.16,-12.67,55.55,15.00,-1.00
24874.00,-1.00,9.39,-4.66,-0.18,-1.14,1.04,-12.67,55.55,15.00,-1.00
24886.00,-1.00,9.39,-4.66,-0.18,-1.14,1.04,-12.67,55.55,15.00,-1.00
24900.00,-0.35,8.64,-5.13,-0.35,-1.14,0.85,-12.67,55.55,15.00,-1.00
24913.00,-0.61,7.88,-4.58,-0.48,-1.20,0.77,-12.67,55.55,15.00,-1.00
24925.00,-0.61,7.88,-4.58,-0.48,-1.20,0.77,-12.67,55.55,15.00,-1.00
24939.00,-0.83,7.96,-4.40,-0.70,-1.18,0.92,-12.67,55.55,15.00,-1.00
24951.00,-0.83,7.96,-4.40,-0.70,-1.18,0.92,-12.67,55.55,15.00,-1.00
24963.00,-1.13,8.47,-4.93,-0.70,-1.16,1.15,-12.67,55.55,15.00,-1.00
24975.00,-0.86,8.96,-4.74,-1.11,-1.18,1.29,-12.53,57.53,18.35,-1.00
24989.00,-0.86,8.96,-4.74,-1.11,-1.18,1.29,-12.53,57.53,18.35,-1.00
25001.00,-0.44,9.06,-4.07,-1.69,-1.24,1.30,-12.53,57.53,18.35,-1.00
25013.00,-0.85,8.51,-2.99,-1.98,-1.24,1.30,-12.53,57.53,18.35,-1.00
25025.00,-0.85,8.51,-2.99,-1.98,-1.24,1.30,-12.53,57.53,18.35,-1.00
25040.00,-0.17,9.65,-3.99,-2.26,-1.31,1.06,-12.53,57.53,18.35,-1.00
25051.00,-0.17,9.65,-3.99,-2.26,-1.31,1.06,-12.53,57.53,18.35,-1.00
25063.00,-0.34,9.04,-2.82,-2.08,-1.26,1.49,-12.53,57.53,18.35,-1.00
25075.00,-0.38,15.10,-3.26,-1.89,-1.24,1.73,-12.53,57.53,18.35,-1.00
25089.00,-0.38,15.10,-3.26,-1.89,-1.24,1.73,-12.53,57.53,18.35,-1.00
25101.00,-0.06,9.87,-1.75,-0.78,-1.31,0.76,-10.58,57.53,33.08,-1.00
25113.00,-0.05,9.66,-2.08,-0.46,-1.21,0.85,-10.58,57.53,33.08,-1.00
25127.00,-0.05,9.66,-2.08,-0.46,-1.21,0.85,-10.58,57.53,33.08,-1.00
25139.00,-0.40,9.79,-2.27,-0.71,-1.23,0.86,-10.58,57.53,33.08,-1.00
25151.00,-0.40,9.79,-2.27,-0.71,-1.23,0.86,-10.58,57.53,33.08,-1.00
25163.00,-0.44,9.78,-2.13,-0.50,-1.21,0.91,-10.58,57.53,33.08,-1.00
25177.00,-0.47,9.74,-1.86,-0.46,-1.21,0.93,-10.58,57.53,33.08,-1.00
25189.00,-0.47,9.74,-1.86,-0.46,-1.21,0.93,-10.58,57.53,33.08,-1.00
25201.00,-0.66,9.87,-1.45,-0.73,-1.21,0.88,-10.58,57.53,33.08,-1.00
25213.00,-1.09,9.84,-2.17,-1.00,-1.19,0.83,-10.58,57.53,33.08,-1.00
25228.00,-1.09,9.84,-2.17,-1.00,-1.19,0.83,-10.58,57.53,33.08,-1.00
25239.00,-1.19,9.74,-1.79,-0.72,-1.23,0.85,-12.12,56.27,36.43,-1.00
25251.00,-1.19,9.74,-1.79,-0.72,-1.23,0.85,-12.12,56.27,36.43,-1.00
25265.00,-0.66,9.90,-1.80,-0.48,-1.27,0.88,-12.12,56.27,36.43,-1.00
25277.00,-0.41,9.89,-1.52,-0.19,-1.26,0.85,-12.12,56.27,36.43,-1.00
25289.00,-0.41,9.89,-1.52,-0.19,-1.26,0.85,-12.12,56.27,36.43,-1.00
25301.00,-0.45,9.91,-1.48,-0.15,-1.23,0.82,-12.12,56.27,36.43,-1.00
25315.00,-0.31,9.71,-1.00,-0.18,-1.23,0.78,-12.12,56.27,36.43,-1.00
25327.00,-0.31,9.71,-1.00,-0.18,-1.23,0.78,-12.12,56.27,36.43,-1.00
25339.00,-0.57,9.85,-1.17,-0.40,-1.21,0.78,-12.12,56.27,36.43,-1.00
25351.00,-0.57,9.85,-1.17,-0.40,-1.21,0.78,-12.12,56.27,36.43,-1.00
25365.00,-0.47,10.00,-1.12,-0.39,-1.20,0.81,-11.28,56.63,40.00,-1.00
25377.00,-0.71,9.87,-1.13,-0.13,-1.17,0.86,-11.28,56.63,40.00,-1.00
25389.00,-0.71,9.87,-1.13,-0.13,-1.17,0.86,-11.28,56.63,40.00,-1.00
25401.00,-1.04,10.08,-1.37,-0.15,-1.19,0.84,-11.28,56.63,40.00,-1.00
25415.00,-1.04,10.03,-1.41,0.09,-1.24,0.54,-11.28,56.63,40.00,-1.00
25427.00,-1.04,10.03,-1.41,0.09,-1.24,0.54,-11.28,56.63,40.00,-1.00
25439.00,-1.38,9.73,-1.94,-0.21,-1.11,0.45,-11.28,56.63,40.00,-1.00
25453.00,-0.92,9.82,-1.11,-0.56,-1.20,0.91,-11.28,56.63,40.00,-1.00
25465.00,-0.92,9.82,-1.11,-0.56,-1.20,0.91,-11.28,56.63,40.00,-1.00
25477.00,-0.93,9.94,-0.83,-0.74,-1.23,0.91,-12.81,55.37,41.56,-1.00
25489.00,-0.93,9.94,-0.83,-0.74,-1.23,0.91,-12.81,55.37,41.56,-1.00
25504.00,-0.91,9.90,-0.74,-0.69,-1.15,0.90,-12.81,55.37,41.56,-1.00
25515.00,-0.93,9.91,-0.61,-0.62,-1.16,0.91,-12.81,55.37,41.56,-1.00
25527.00,-0.93,9.91,-0.61,-0.62,-1.16,0.91,-12.81,55.37,41.56,-1.00
25539.00,-0.98,10.01,-0.41,-0.54,-1.18,0.91,-12.81,55.37,41.56,-1.00
25553.00,-0.98,10.01,-0.41,-0.54,-1.18,0.91,-12.81,55.37,41.56,-1.00
25565.00,-1.02,9.97,-0.42,-0.14,-1.18,0.94,-12.81,55.37,41.56,-1.00
25577.00,-1.02,9.85,-0.57,0.06,-1.20,0.96,-12.81,55.37,41.56,-1.00
25591.00,-1.02,9.85,-0.57,0.06,-1.20,0.96,-12.81,55.37,41.56,-1.00
25603.00,-1.03,9.93,-0.46,-0.05,-1.21,0.95,-12.25,53.21,43.35,-1.00
25615.00,-1.00,9.90,-0.54,0.02,-1.21,0.96,-12.25,53.21,43.35,-1.00
25627.00,-1.00,9.90,-0.54,0.02,-1.21,0.96,-12.25,53.21,43.35,-1.00
25641.00,-0.98,9.91,-0.48,-0.02,-1.21,0.95,-12.25,53.21,43.35,-1.00
25653.00,-0.98,9.91,-0.48,-0.02,-1.21,0.95,-12.25,53.21,43.35,-1.00
25665.00,-0.96,9.89,-0.49,0.01,-1.21,0.96,-12.25,53.21,43.35,-1.00
25677.00,-0.94,9.93,-0.49,-0.01,-1.21,0.96,-12.25,53.21,43.35,-1.00
25691.00,-0.94,9.93,-0.49,-0.01,-1.21,0.96,-12.25,53.21,43.35,-1.00
25703.00,-0.95,9.90,-0.49,0.00,-1.21,0.95,-12.25,53.21,43.35,-1.00
25715.00,-0.97,9.90,-0.46,-0.00,-1.21,0.95,-12.25,53.21,43.35,-1.00
25727.00,-0.97,9.90,-0.46,-0.00,-1.21,0.95,-12.25,53.21,43.35,-1.00
25741.00,-0.99,9.92,-0.49,-0.00,-1.21,0.95,-12.25,53.57,44.68,-1.00
25753.00,-0.99,9.92,-0.49,-0.00,-1.21,0.95,-12.25,53.57,44.68,-1.00
25765.00,-1.02,9.90,-0.45,-0.00,-1.21,0.95,-12.25,53.57,44.68,-1.00
25779.00,-1.02,9.91,-0.46,0.00,-1.21,0.95,-12.25,53.57,44.68,-1.00
25791.00,-1.02,9.91,-0.46,0.00,-1.21,0.95,-12.25,53.57,44.68,-1.00
25803.00,-1.02,9.90,-0.47,0.00,-1.21,0.96,-12.25,53.57,44.68,-1.00
25815.00,-0.98,9.91,-0.45,0.00,-1.21,0.96,-12.25,53.57,44.68,-1.00
25830.00,-0.98,9.91,-0.45,0.00,-1.21,0.96,-12.25,53.57,44.68,-1.00
25841.00,-0.96,9.93,-0.47,0.00,-1.21,0.96,-12.25,53.57,44.68,-1.00
25853.00,-0.96,9.93,-0.47,0.00,-1.21,0.96,-12.25,53.57,44.68,-1.00
