time,ax,ay,az,gx,gy,gz,mx,my,mz,pressure
30.00,-0.26,-5.97,-8.07,0.00,-1.22,0.95,-12.39,-16.33,-14.46,-1.00
42.00,-0.25,-5.96,-8.07,0.00,-1.22,0.95,-12.39,-16.33,-14.46,-1.00
54.00,-0.25,-5.96,-8.07,0.00,-1.22,0.95,-12.39,-16.33,-14.46,-1.00
126.00,-0.26,-5.92,-8.06,0.00,-1.22,0.95,-12.39,-16.33,-14.46,-1.00
138.00,-0.25,-5.91,-8.09,0.00,-1.22,0.95,-11.98,-15.79,-13.79,-1.00
151.00,-0.25,-5.91,-8.09,0.00,-1.22,0.95,-11.98,-15.79,-13.79,-1.00
164.00,-0.26,-5.93,-8.09,0.00,-1.22,0.95,-11.98,-15.79,-13.79,-1.00
177.00,-0.26,-5.93,-8.09,0.00,-1.22,0.95,-11.98,-15.79,-13.79,-1.00
189.00,-0.25,-5.93,-8.04,0.00,-1.22,0.95,-11.98,-15.79,-13.79,-1.00
201.00,-0.25,-5.96,-8.01,0.01,-1.22,0.95,-11.98,-15.79,-13.79,-1.00
213.00,-0.25,-5.96,-8.01,0.01,-1.22,0.95,-11.98,-15.79,-13.79,-1.00
227.00,-0.26,-5.94,-8.01,0.00,-1.22,0.95,-11.98,-15.79,-13.79,-1.00
239.00,-0.25,-5.95,-8.02,0.00,-1.22,0.95,-11.98,-15.79,-13.79,-1.00
251.00,-0.25,-5.95,-8.02,0.00,-1.22,0.95,-11.98,-15.79,-13.79,-1.00
263.00,-0.26,-5.94,-8.09,-0.00,-1.22,0.95,-13.23,-16.69,-14.91,-1.00
278.00,-0.27,-5.92,-8.11,-0.00,-1.22,0.95,-13.23,-16.69,-14.91,-1.00
290.00,-0.27,-5.92,-8.11,-0.00,-1.22,0.95,-13.23,-16.69,-14.91,-1.00
303.00,-0.28,-5.90,-8.05,0.00,-1.22,0.95,-13.23,-16.69,-14.91,-1.00
317.00,-0.28,-5.90,-8.05,0.00,-1.22,0.95,-13.23,-16.69,-14.91,-1.00
329.00,-0.28,-5.92,-8.06,0.00,-1.22,0.95,-13.23,-16.69,-14.91,-1.00
341.00,-0.27,-5.93,-8.08,-0.00,-1.22,0.95,-13.23,-16.69,-14.91,-1.00
353.00,-0.27,-5.93,-8.08,-0.00,-1.22,0.95,-13.23,-16.69,-14.91,-1.00
367.00,-0.26,-5.95,-8.04,0.00,-1.22,0.95,-13.23,-16.69,-14.91,-1.00
379.00,-0.26,-5.95,-8.04,0.01,-1.21,0.95,-13.23,-16.69,-14.91,-1.00
391.00,-0.26,-5.95,-8.04,0.01,-1.21,0.95,-13.23,-16.69,-14.91,-1.00
403.00,-0.24,-5.95,-8.07,0.00,-1.22,0.95,-13.79,-16.33,-13.12,-1.00
417.00,-0.24,-5.95,-8.07,0.00,-1.22,0.95,-13.79,-16.33,-13.12,-1.00
429.00,-0.25,-5.94,-8.03,0.01,-1.22,0.95,-13.79,-16.33,-13.12,-1.00
441.00,-0.24,-5.94,-8.04,0.00,-1.21,0.95,-13.79,-16.33,-13.12,-1.00
456.00,-0.24,-5.94,-8.04,0.00,-1.21,0.95,-13.79,-16.33,-13.12,-1.00
468.00,-0.27,-5.94,-8.06,-0.00,-1.22,0.95,-13.79,-16.33,-13.12,-1.00
480.00,-0.28,-5.93,-8.05,0.00,-1.21,0.95,-13.79,-16.33,-13.12,-1.00
492.00,-0.28,-5.93,-8.05,0.00,-1.21,0.95,-13.79,-16.33,-13.12,-1.00
506.00,-0.27,-5.93,-8.06,-0.00,-1.21,0.95,-13.79,-16.33,-13.12,-1.00
518.00,-0.27,-5.93,-8.06,-0.00,-1.21,0.95,-13.79,-16.33,-13.12,-1.00
530.00,-0.28,-5.91,-8.09,0.00,-1.21,0.95,-12.95,-16.33,-12.68,-1.00
542.00,-0.27,-5.92,-8.08,0.00,-1.21,0.95,-12.95,-16.33,-12.68,-1.00
556.00,-0.27,-5.92,-8.08,0.00,-1.21,0.95,-12.95,-16.33,-12.68,-1.00
568.00,-0.24,-5.91,-8.04,0.00,-1.21,0.95,-12.95,-16.33,-12.68,-1.00
580.00,-0.24,-5.95,-8.06,0.01,-1.22,0.95,-12.95,-16.33,-12.68,-1.00
594.00,-0.24,-5.95,-8.06,0.01,-1.22,0.95,-12.95,-16.33,-12.68,-1.00
606.00,-0.26,-5.94,-8.03,0.01,-1.22,0.95,-12.95,-16.33,-12.68,-1.00
618.00,-0.26,-5.94,-8.03,0.01,-1.22,0.95,-12.95,-16.33,-12.68,-1.00
630.00,-0.27,-5.91,-8.04,0.00,-1.22,0.95,-12.95,-16.33,-12.68,-1.00
645.00,-0.29,-5.93,-8.06,-0.00,-1.22,0.95,-12.53,-15.79,-14.69,-1.00
656.00,-0.29,-5.93,-8.06,-0.00,-1.22,0.95,-12.53,-15.79,-14.69,-1.00
668.00,-0.26,-5.92,-8.07,0.00,-1.22,0.95,-12.53,-15.79,-14.69,-1.00
680.00,-0.26,-5.94,-8.05,0.00,-1.22,0.95,-12.53,-15.79,-14.69,-1.00
694.00,-0.26,-5.94,-8.05,0.00,-1.22,0.95,-12.53,-15.79,-14.69,-1.00
706.00,-0.26,-5.93,-8.05,0.00,-1.22,0.95,-12.53,-15.79,-14.69,-1.00
718.00,-0.26,-5.93,-8.05,0.00,-1.22,0.95,-12.53,-15.79,-14.69,-1.00
730.00,-0.25,-5.94,-8.05,-0.00,-1.22,0.95,-12.53,-15.79,-14.69,-1.00
744.00,-0.26,-5.92,-8.04,0.00,-1.22,0.95,-12.53,-15.79,-14.69,-1.00
756.00,-0.26,-5.92,-8.04,0.00,-1.22,0.95,-12.53,-15.79,-14.69,-1.00
768.00,-0.24,-5.96,-8.04,0.01,-1.21,0.95,-12.25,-15.79,-12.90,-1.00
782.00,-0.24,-5.94,-8.05,0.00,-1.21,0.95,-12.25,-15.79,-12.90,-1.00
794.00,-0.24,-5.94,-8.05,0.00,-1.21,0.95,-12.25,-15.79,-12.90,-1.00
806.00,-0.24,-5.92,-8.03,0.00,-1.22,0.95,-12.25,-15.79,-12.90,-1.00
818.00,-0.24,-5.92,-8.03,0.00,-1.22,0.95,-12.25,-15.79,-12.90,-1.00
832.00,-0.25,-5.92,-8.05,-0.00,-1.22,0.95,-12.25,-15.79,-12.90,-1.00
844.00,-0.26,-5.91,-8.06,0.00,-1.22,0.95,-12.25,-15.79,-12.90,-1.00
856.00,-0.26,-5.91,-8.06,0.00,-1.22,0.95,-12.25,-15.79,-12.90,-1.00
868.00,-0.27,-5.92,-8.05,0.00,-1.22,0.95,-12.25,-15.79,-12.90,-1.00
882.00,-0.28,-5.93,-8.09,-0.00,-1.22,0.95,-12.25,-15.79,-12.90,-1.00
895.00,-0.28,-5.93,-8.09,-0.00,-1.22,0.95,-12.25,-15.79,-12.90,-1.00
906.00,-0.25,-5.93,-8.07,0.00,-1.22,0.95,-12.95,-16.33,-13.57,-1.00
920.00,-0.26,-5.92,-8.06,0.00,-1.22,0.95,-12.95,-16.33,-13.57,-1.00
932.00,-0.26,-5.92,-8.06,0.00,-1.22,0.95,-12.95,-16.33,-13.57,-1.00
944.00,-0.25,-5.92,-8.04,0.00,-1.22,0.95,-12.95,-16.33,-13.57,-1.00
956.00,-0.25,-5.92,-8.04,0.00,-1.22,0.95,-12.95,-16.33,-13.57,-1.00
970.00,-0.24,-5.93,-8.04,0.00,-1.22,0.95,-12.95,-16.33,-13.57,-1.00
982.00,-0.23,-5.94,-8.05,0.00,-1.22,0.95,-12.95,-16.33,-13.57,-1.00
994.00,-0.23,-5.94,-8.05,0.00,-1.22,0.95,-12.95,-16.33,-13.57,-1.00
1006.00,-0.25,-5.93,-8.07,0.00,-1.22,0.95,-12.95,-16.33,-13.57,-1.00
1020.00,-0.26,-5.92,-8.05,0.00,-1.22,0.95,-12.39,-17.41,-13.57,-1.00
1032.00,-0.26,-5.92,-8.05,0.00,-1.22,0.95,-12.39,-17.41,-13.57,-1.00
1045.00,-0.28,-5.95,-8.04,0.00,-1.22,0.95,-12.39,-17.41,-13.57,-1.00
1058.00,-0.28,-5.95,-8.04,0.00,-1.22,0.95,-12.39,-17.41,-13.57,-1.00
1070.00,-0.29,-5.95,-8.08,-0.00,-1.21,0.95,-12.39,-17.41,-13.57,-1.00
1082.00,-0.29,-5.94,-8.10,-0.00,-1.21,0.95,-12.39,-17.41,-13.57,-1.00
1094.00,-0.29,-5.94,-8.10,-0.00,-1.21,0.95,-12.39,-17.41,-13.57,-1.00
1108.00,-0.31,-5.93,-8.06,0.00,-1.21,0.95,-12.39,-17.41,-13.57,-1.00
1120.00,-0.28,-5.94,-8.06,0.00,-1.21,0.95,-12.39,-17.41,-13.57,-1.00
1132.00,-0.28,-5.94,-8.06,0.00,-1.21,0.95,-12.39,-17.41,-13.57,-1.00
1144.00,-0.26,-5.95,-8.10,0.00,-1.21,0.94,-12.25,-15.79,-14.24,-1.00
1158.00,-0.26,-5.95,-8.10,0.00,-1.21,0.94,-12.25,-15.79,-14.24,-1.00
1247.00,-0.26,-5.93,-8.05,0.00,-1.21,0.95,-12.25,-15.79,-14.24,-1.00
1335.00,-0.26,-5.93,-8.06,0.00,-1.21,0.95,-12.95,-17.77,-12.23,-1.00
1349.00,-0.21,-5.92,-8.03,0.01,-1.21,0.95,-12.95,-17.77,-12.23,-1.00
1362.00,-0.18,-5.91,-8.10,-0.00,-1.21,0.95,-12.95,-17.77,-12.23,-1.00
1374.00,-0.18,-5.91,-8.10,-0.00,-1.21,0.95,-12.95,-17.77,-12.23,-1.00
1386.00,-0.20,-5.91,-8.05,0.01,-1.22,0.95,-12.95,-17.77,-12.23,-1.00
1400.00,-0.22,-5.93,-8.04,0.01,-1.22,0.95,-13.23,-17.05,-15.80,-1.00
1412.00,-0.22,-5.93,-8.04,0.01,-1.22,0.95,-13.23,-17.05,-15.80,-1.00
1424.00,-0.28,-5.95,-8.05,0.00,-1.22,0.95,-13.23,-17.05,-15.80,-1.00
1436.00,-0.28,-5.95,-8.05,0.00,-1.22,0.95,-13.23,-17.05,-15.80,-1.00
1450.00,-0.30,-5.97,-8.04,0.00,-1.22,0.95,-13.23,-17.05,-15.80,-1.00
1462.00,-0.28,-5.95,-8.09,-0.00,-1.21,0.95,-13.23,-17.05,-15.80,-1.00
1474.00,-0.28,-5.95,-8.09,-0.00,-1.21,0.95,-13.23,-17.05,-15.80,-1.00
1489.00,-0.26,-5.92,-8.06,0.00,-1.22,0.95,-13.23,-17.05,-15.80,-1.00
1500.00,-0.24,-5.91,-8.06,0.00,-1.21,0.95,-13.23,-17.05,-15.80,-1.00
1512.00,-0.24,-5.91,-8.06,0.00,-1.21,0.95,-13.23,-17.05,-15.80,-1.00
1524.00,-0.23,-5.90,-8.09,-0.00,-1.21,0.95,-12.39,-15.97,-14.91,-1.00
1538.00,-0.23,-5.90,-8.09,-0.00,-1.21,0.95,-12.39,-15.97,-14.91,-1.00
1550.00,-0.20,-5.92,-8.08,0.00,-1.22,0.95,-12.39,-15.97,-14.91,-1.00
1562.00,-0.22,-5.91,-8.04,0.00,-1.22,0.95,-12.39,-15.97,-14.91,-1.00
1576.00,-0.22,-5.91,-8.04,0.00,-1.22,0.95,-12.39,-15.97,-14.91,-1.00
1588.00,-0.24,-5.92,-8.04,0.00,-1.22,0.95,-12.39,-15.97,-14.91,-1.00
1600.00,-0.26,-5.95,-8.05,0.00,-1.22,0.95,-12.39,-15.97,-14.91,-1.00
1612.00,-0.26,-5.95,-8.05,0.00,-1.22,0.95,-12.39,-15.97,-14.91,-1.00
1626.00,-0.28,-5.94,-8.03,0.00,-1.22,0.95,-12.39,-15.97,-14.91,-1.00
1638.00,-0.28,-5.94,-8.03,0.00,-1.22,0.95,-12.39,-15.97,-14.91,-1.00
1650.00,-0.28,-5.95,-8.03,0.00,-1.22,0.95,-11.84,-16.69,-13.57,-1.00
1662.00,-0.27,-5.94,-8.12,-0.00,-1.21,0.95,-11.84,-16.69,-13.57,-1.00
1677.00,-0.27,-5.94,-8.12,-0.00,-1.21,0.95,-11.84,-16.69,-13.57,-1.00
1688.00,-0.25,-5.90,-8.04,0.00,-1.22,0.95,-11.84,-16.69,-13.57,-1.00
1700.00,-0.23,-5.91,-8.08,-0.00,-1.21,0.95,-11.84,-16.69,-13.57,-1.00
1714.00,-0.23,-5.91,-8.08,-0.00,-1.21,0.95,-11.84,-16.69,-13.57,-1.00
1726.00,-0.22,-5.89,-8.10,-0.00,-1.21,0.95,-11.84,-16.69,-13.57,-1.00
1738.00,-0.22,-5.89,-8.10,-0.00,-1.21,0.95,-11.84,-16.69,-13.57,-1.00
1750.00,-0.23,-5.92,-8.01,0.01,-1.22,0.95,-11.84,-16.69,-13.57,-1.00
1764.00,-0.24,-5.94,-8.08,-0.00,-1.21,0.95,-12.67,-16.33,-14.91,-1.00
1776.00,-0.24,-5.94,-8.08,-0.00,-1.21,0.95,-12.67,-16.33,-14.91,-1.00
1789.00,-0.25,-5.93,-8.06,0.01,-1.22,0.95,-12.67,-16.33,-14.91,-1.00
1800.00,-0.27,-5.93,-8.03,0.01,-1.22,0.95,-12.67,-16.33,-14.91,-1.00
1814.00,-0.27,-5.93,-8.03,0.01,-1.22,0.95,-12.67,-16.33,-14.91,-1.00
1826.00,-0.25,-5.96,-8.08,-0.00,-1.21,0.95,-12.67,-16.33,-14.91,-1.00
1838.00,-0.25,-5.96,-8.08,-0.00,-1.21,0.95,-12.67,-16.33,-14.91,-1.00
1852.00,-0.26,-5.94,-8.04,0.01,-1.22,0.95,-12.67,-16.33,-14.91,-1.00
1864.00,-0.25,-5.94,-8.05,0.00,-1.22,0.95,-12.67,-16.33,-14.91,-1.00
1876.00,-0.25,-5.94,-8.05,0.00,-1.22,0.95,-12.67,-16.33,-14.91,-1.00
1888.00,-0.24,-5.95,-8.10,-0.01,-1.21,0.95,-12.67,-16.33,-14.91,-1.00
1902.00,-0.26,-5.77,-8.09,-0.01,-1.22,0.96,-12.81,-17.59,-16.03,-1.00
1914.00,-0.26,-5.77,-8.09,-0.01,-1.22,0.96,-12.81,-17.59,-16.03,-1.00
1926.00,-0.25,-5.91,-8.06,0.02,-1.21,0.95,-12.81,-17.59,-16.03,-1.00
1938.00,-0.25,-5.91,-8.06,0.02,-1.21,0.95,-12.81,-17.59,-16.03,-1.00
1953.00,-0.23,-5.92,-8.13,0.02,-1.20,0.95,-12.81,-17.59,-16.03,-1.00
1964.00,-0.25,-5.96,-8.01,0.03,-1.21,0.95,-12.81,-17.59,-16.03,-1.00
1976.00,-0.25,-5.96,-8.01,0.03,-1.21,0.95,-12.81,-17.59,-16.03,-1.00
1990.00,-0.23,-5.95,-8.07,0.01,-1.21,0.95,-12.81,-17.59,-16.03,-1.00
2077.00,-0.23,-5.95,-8.04,0.00,-1.21,0.95,-12.53,-17.59,-14.69,-1.00
2167.00,-0.24,-5.94,-8.07,0.02,-1.21,0.95,-11.56,-17.05,-12.68,-1.00
2254.00,-0.22,-5.97,-8.01,0.02,-1.21,0.95,-11.56,-17.05,-12.68,-1.00
2269.00,-0.23,-5.95,-8.04,-0.00,-1.21,0.95,-11.42,-17.94,-15.58,-1.00
2280.00,-0.23,-5.92,-8.10,-0.01,-1.21,0.95,-11.42,-17.94,-15.58,-1.00
2292.00,-0.23,-5.92,-8.10,-0.01,-1.21,0.95,-11.42,-17.94,-15.58,-1.00
2306.00,-0.23,-5.94,-8.01,-0.00,-1.21,0.95,-11.42,-17.94,-15.58,-1.00
2318.00,-0.23,-5.94,-8.01,-0.00,-1.21,0.95,-11.42,-17.94,-15.58,-1.00
2330.00,-0.24,-5.94,-8.08,-0.01,-1.21,0.95,-11.42,-17.94,-15.58,-1.00
2342.00,-0.24,-5.94,-7.99,-0.01,-1.21,0.95,-11.42,-17.94,-15.58,-1.00
2356.00,-0.24,-5.94,-7.99,-0.01,-1.21,0.95,-11.42,-17.94,-15.58,-1.00
2368.00,-0.24,-5.94,-8.05,-0.01,-1.21,0.95,-11.42,-17.94,-15.58,-1.00
2380.00,-0.24,-5.94,-8.05,-0.01,-1.21,0.95,-11.42,-17.94,-15.58,-1.00
2392.00,-0.24,-5.94,-8.04,-0.01,-1.21,0.95,-11.42,-17.94,-15.58,-1.00
2406.00,-0.23,-5.94,-8.08,-0.01,-1.22,0.95,-13.23,-16.69,-14.02,-1.00
2418.00,-0.23,-5.94,-8.08,-0.01,-1.22,0.95,-13.23,-16.69,-14.02,-1.00
2430.00,-0.23,-5.95,-8.04,-0.00,-1.22,0.95,-13.23,-16.69,-14.02,-1.00
2445.00,-0.23,-5.95,-8.05,0.00,-1.22,0.95,-13.23,-16.69,-14.02,-1.00
2456.00,-0.23,-5.95,-8.05,0.00,-1.22,0.95,-13.23,-16.69,-14.02,-1.00
2468.00,-0.22,-5.95,-8.05,0.00,-1.22,0.95,-13.23,-16.69,-14.02,-1.00
2480.00,-0.22,-5.95,-8.05,0.00,-1.22,0.95,-13.23,-16.69,-14.02,-1.00
2494.00,-0.23,-5.96,-8.01,0.01,-1.22,0.95,-13.23,-16.69,-14.02,-1.00
2506.00,-0.23,-5.92,-8.00,0.00,-1.22,0.95,-13.23,-16.69,-14.02,-1.00
2518.00,-0.23,-5.92,-8.00,0.00,-1.22,0.95,-13.23,-16.69,-14.02,-1.00
2530.00,-0.23,-5.90,-8.06,0.00,-1.22,0.95,-11.84,-17.41,-15.36,-1.00
2544.00,-0.24,-5.93,-8.06,0.01,-1.22,0.95,-11.84,-17.41,-15.36,-1.00
2556.00,-0.24,-5.93,-8.06,0.01,-1.22,0.95,-11.84,-17.41,-15.36,-1.00
2568.00,-0.23,-5.84,-8.23,0.01,-1.21,0.95,-11.84,-17.41,-15.36,-1.00
2582.00,-0.15,-5.90,-8.66,0.10,-1.22,0.96,-11.84,-17.41,-15.36,-1.00
2595.00,-0.15,-5.90,-8.66,0.10,-1.22,0.96,-11.84,-17.41,-15.36,-1.00
2607.00,-0.34,-6.00,-7.76,0.30,-1.25,0.98,-11.84,-17.41,-15.36,-1.00
2619.00,-0.34,-6.00,-7.76,0.30,-1.25,0.98,-11.84,-17.41,-15.36,-1.00
2633.00,-0.26,-6.04,-7.60,0.16,-1.23,0.95,-11.84,-17.41,-15.36,-1.00
2645.00,-0.50,-5.97,-8.77,0.05,-1.20,0.96,-12.53,-16.15,-14.24,-1.00
2657.00,-0.50,-5.97,-8.77,0.05,-1.20,0.96,-12.53,-16.15,-14.24,-1.00
2669.00,-0.22,-6.12,-8.26,0.33,-1.22,1.03,-12.53,-16.15,-14.24,-1.00
2683.00,-0.29,-6.11,-8.06,0.55,-1.21,1.07,-12.53,-16.15,-14.24,-1.00
2695.00,-0.29,-6.11,-8.06,0.55,-1.21,1.07,-12.53,-16.15,-14.24,-1.00
2707.00,-0.30,-6.21,-7.74,0.65,-1.21,1.05,-12.53,-16.15,-14.24,-1.00
2722.00,-0.33,-6.40,-7.39,0.62,-1.22,1.02,-12.53,-16.15,-14.24,-1.00
2733.00,-0.33,-6.40,-7.39,0.62,-1.22,1.02,-12.53,-16.15,-14.24,-1.00
2745.00,-0.31,-6.45,-7.36,0.44,-1.21,1.01,-12.53,-16.15,-14.24,-1.00
2757.00,-0.31,-6.45,-7.36,0.44,-1.21,1.01,-12.53,-16.15,-14.24,-1.00
2771.00,-0.28,-6.46,-7.52,0.26,-1.17,0.99,-12.53,-16.15,-14.24,-1.00
2783.00,-0.27,-6.43,-7.97,0.21,-1.16,0.99,-12.12,-18.84,-12.23,-1.00
2795.00,-0.27,-6.43,-7.97,0.21,-1.16,0.99,-12.12,-18.84,-12.23,-1.00
2809.00,-0.23,-6.43,-8.10,0.44,-1.16,0.99,-12.12,-18.84,-12.23,-1.00
2821.00,-0.61,-6.63,-7.77,0.79,-1.21,0.99,-12.12,-18.84,-12.23,-1.00
2833.00,-0.61,-6.63,-7.77,0.79,-1.21,0.99,-12.12,-18.84,-12.23,-1.00
2845.00,-1.07,-6.80,-7.98,1.18,-1.27,0.99,-12.12,-18.84,-12.23,-1.00
2859.00,-1.07,-6.80,-7.98,1.18,-1.27,0.99,-12.12,-18.84,-12.23,-1.00
2871.00,-1.32,-6.89,-7.44,1.74,-1.24,1.06,-12.12,-18.84,-12.23,-1.00
2883.00,-0.38,-7.06,-6.09,1.99,-1.13,1.04,-12.12,-18.84,-12.23,-1.00
2895.00,-0.38,-7.06,-6.09,1.99,-1.13,1.04,-12.12,-18.84,-12.23,-1.00
2910.00,-0.23,-7.34,-6.72,1.58,-0.96,0.74,-12.25,-22.98,-8.88,-1.00
2921.00,-0.72,-7.77,-6.54,1.71,-0.85,0.43,-12.25,-22.98,-8.88,-1.00
2933.00,-0.72,-7.77,-6.54,1.71,-0.85,0.43,-12.25,-22.98,-8.88,-1.00
2947.00,-1.14,-8.72,-6.68,2.05,-0.84,0.21,-12.25,-22.98,-8.88,-1.00
2959.00,-1.14,-8.72,-6.68,2.05,-0.84,0.21,-12.25,-22.98,-8.88,-1.00
2971.00,-0.44,-8.97,-5.74,2.06,-0.83,0.11,-12.25,-22.98,-8.88,-1.00
2983.00,1.22,-8.59,-6.61,1.36,-0.87,0.08,-12.25,-22.98,-8.88,-1.00
2997.00,1.22,-8.59,-6.61,1.36,-0.87,0.08,-12.25,-22.98,-8.88,-1.00
3009.00,1.39,-8.94,-6.21,1.48,-1.18,0.46,-12.25,-22.98,-8.88,-1.00
3022.00,0.48,-9.58,-4.76,1.84,-1.49,0.90,-9.04,-31.42,1.16,-1.00
3033.00,0.48,-9.58,-4.76,1.84,-1.49,0.90,-9.04,-31.42,1.16,-1.00
3047.00,0.26,-9.61,-3.40,2.24,-1.49,1.27,-9.04,-31.42,1.16,-1.00
3059.00,0.26,-9.61,-3.40,2.24,-1.49,1.27,-9.04,-31.42,1.16,-1.00
3071.00,0.20,-8.66,-3.51,2.01,-1.29,1.51,-9.04,-31.42,1.16,-1.00
3083.00,0.13,-7.99,-3.70,1.76,-1.09,1.60,-9.04,-31.42,1.16,-1.00
3097.00,0.13,-7.99,-3.70,1.76,-1.09,1.60,-9.04,-31.42,1.16,-1.00
3109.00,-0.23,-8.10,-3.74,1.59,-1.11,1.46,-9.04,-31.42,1.16,-1.00
3121.00,-0.25,-9.23,-3.03,1.70,-1.21,1.22,-9.04,-31.42,1.16,-1.00
3133.00,-0.25,-9.23,-3.03,1.70,-1.21,1.22,-9.04,-31.42,1.16,-1.00
3147.00,0.02,-9.97,-2.37,2.13,-1.18,1.21,-9.74,-31.96,13.44,-1.00
3160.00,0.02,-9.97,-2.37,2.13,-1.18,1.21,-9.74,-31.96,13.44,-1.00
3171.00,1.05,-9.55,-2.26,2.23,-1.02,1.51,-9.74,-31.96,13.44,-1.00
3183.00,-0.20,-8.89,-2.27,1.71,-1.12,1.72,-9.74,-31.96,13.44,-1.00
3197.00,-0.20,-8.89,-2.27,1.71,-1.12,1.72,-9.74,-31.96,13.44,-1.00
3209.00,-0.99,-8.94,-1.40,1.63,-1.24,1.65,-9.74,-31.96,13.44,-1.00
3221.00,-1.01,-9.28,-0.72,1.92,-1.15,1.52,-9.74,-31.96,13.44,-1.00
3235.00,-1.01,-9.28,-0.72,1.92,-1.15,1.52,-9.74,-31.96,13.44,-1.00
3247.00,-0.03,-9.96,0.10,2.13,-0.86,1.50,-9.74,-31.96,13.44,-1.00
3259.00,-0.03,-9.96,0.10,2.13,-0.86,1.50,-9.74,-31.96,13.44,-1.00
3271.00,-0.08,-9.75,-0.50,1.55,-0.76,1.49,-9.74,-31.96,13.44,-1.00
3285.00,-0.90,-9.68,-0.09,1.10,-0.88,1.49,-12.25,-30.16,23.70,-1.00
3297.00,-0.90,-9.68,-0.09,1.10,-0.88,1.49,-12.25,-30.16,23.70,-1.00
3309.00,-1.42,-9.98,0.45,0.98,-0.91,1.41,-12.25,-30.16,23.70,-1.00
3321.00,-1.42,-9.98,0.45,0.98,-0.91,1.41,-12.25,-30.16,23.70,-1.00
3335.00,-0.22,-11.41,-0.59,1.55,-0.79,1.55,-12.25,-30.16,23.70,-1.00
3347.00,-0.36,-10.33,-0.85,1.22,-1.29,1.89,-12.25,-30.16,23.70,-1.00
3359.00,-0.36,-10.33,-0.85,1.22,-1.29,1.89,-12.25,-30.16,23.70,-1.00
3373.00,-0.54,-8.91,1.52,1.13,-1.76,1.99,-12.25,-30.16,23.70,-1.00
3385.00,-1.36,-8.80,2.10,1.22,-1.73,1.82,-12.25,-30.16,23.70,-1.00
3397.00,-1.36,-8.80,2.10,1.22,-1.73,1.82,-12.25,-30.16,23.70,-1.00
3409.00,-0.96,-8.83,1.70,1.11,-1.49,1.74,-14.91,-29.63,30.62,-1.00
3423.00,-2.27,-8.86,1.09,0.98,-1.39,1.72,-14.91,-29.63,30.62,-1.00
3435.00,-2.27,-8.86,1.09,0.98,-1.39,1.72,-14.91,-29.63,30.62,-1.00
3447.00,-1.54,-9.23,1.85,1.13,-1.34,1.67,-14.91,-29.63,30.62,-1.00
3459.00,-1.54,-9.23,1.85,1.13,-1.34,1.67,-14.91,-29.63,30.62,-1.00
3473.00,-1.83,-10.08,3.43,1.28,-1.38,1.56,-14.91,-29.63,30.62,-1.00
3485.00,-2.45,-10.34,2.90,1.53,-1.27,1.53,-14.91,-29.63,30.62,-1.00
3497.00,-2.45,-10.34,2.90,1.53,-1.27,1.53,-14.91,-29.63,30.62,-1.00
3509.00,-2.57,-10.54,2.38,1.67,-1.16,1.65,-14.91,-29.63,30.62,-1.00
3523.00,-2.87,-9.56,2.84,2.06,-1.11,1.96,-17.14,-26.03,36.43,-1.00
3535.00,-2.87,-9.56,2.84,2.06,-1.11,1.96,-17.14,-26.03,36.43,-1.00
3547.00,-2.79,-9.18,4.48,2.82,-0.92,2.14,-17.14,-26.03,36.43,-1.00
3561.00,-2.79,-9.18,4.48,2.82,-0.92,2.14,-17.14,-26.03,36.43,-1.00
3573.00,-2.38,-8.53,4.70,2.72,-0.55,2.17,-17.14,-26.03,36.43,-1.00
3585.00,-2.83,-7.26,3.14,1.96,-0.40,2.06,-17.14,-26.03,36.43,-1.00
3597.00,-2.83,-7.26,3.14,1.96,-0.40,2.06,-17.14,-26.03,36.43,-1.00
3612.00,-1.15,-6.23,2.65,2.00,-0.62,1.85,-17.14,-26.03,36.43,-1.00
3623.00,-5.25,-5.76,1.48,1.21,-0.85,1.61,-17.14,-26.03,36.43,-1.00
3635.00,-5.25,-5.76,1.48,1.21,-0.85,1.61,-17.14,-26.03,36.43,-1.00
3647.00,-3.96,-6.67,6.04,3.15,-1.13,1.63,-20.92,-16.51,46.47,-1.00
3661.00,-3.96,-6.67,6.04,3.15,-1.13,1.63,-20.92,-16.51,46.47,-1.00
3750.00,-4.11,-8.64,5.30,-0.71,-1.10,0.62,-20.92,-16.51,46.47,-1.00
3838.00,-3.13,-7.42,4.08,-2.78,-1.48,2.08,-21.75,-15.07,45.13,-1.00
3927.00,-4.97,-7.80,0.84,-3.26,-2.24,1.77,-22.59,-16.87,37.10,-1.00
3941.00,-4.97,-7.80,0.84,-3.26,-2.24,1.77,-22.59,-16.87,37.10,-1.00
3952.00,-4.02,-7.42,-0.19,-2.47,-2.24,1.59,-22.59,-16.87,37.10,-1.00
3964.00,-4.03,-7.16,0.96,-0.69,-2.35,1.62,-22.59,-16.87,37.10,-1.00
3978.00,-4.03,-7.16,0.96,-0.69,-2.35,1.62,-22.59,-16.87,37.10,-1.00
3990.00,-5.16,-6.85,1.57,0.58,-2.37,1.53,-22.59,-16.87,37.10,-1.00
4002.00,-5.46,-6.85,1.35,1.52,-2.20,1.46,-22.59,-16.87,37.10,-1.00
4014.00,-5.46,-6.85,1.35,1.52,-2.20,1.46,-22.59,-16.87,37.10,-1.00
4028.00,-5.25,-7.45,1.91,2.39,-2.01,1.41,-24.13,-14.89,44.02,-1.00
4040.00,-5.25,-7.45,1.91,2.39,-2.01,1.41,-24.13,-14.89,44.02,-1.00
4052.00,-4.89,-8.87,3.38,2.88,-1.93,1.26,-24.13,-14.89,44.02,-1.00
4064.00,-4.96,-9.76,4.64,2.78,-1.84,1.29,-24.13,-14.89,44.02,-1.00
4078.00,-4.96,-9.76,4.64,2.78,-1.84,1.29,-24.13,-14.89,44.02,-1.00
4090.00,-5.58,-8.78,4.53,2.07,-1.67,1.61,-24.13,-14.89,44.02,-1.00
4102.00,-5.66,-8.47,5.04,1.30,-1.45,1.87,-24.13,-14.89,44.02,-1.00
4114.00,-5.66,-8.47,5.04,1.30,-1.45,1.87,-24.13,-14.89,44.02,-1.00
4128.00,-5.72,-8.01,4.90,0.22,-1.26,1.90,-24.13,-14.89,44.02,-1.00
4140.00,-5.72,-8.01,4.90,0.22,-1.26,1.90,-24.13,-14.89,44.02,-1.00
4152.00,-5.56,-6.36,-0.40,-2.37,-1.35,1.52,-24.97,-9.86,44.91,-1.00
4166.00,-4.25,-5.94,2.78,-1.29,-1.83,1.60,-24.97,-9.86,44.91,-1.00
4178.00,-4.25,-5.94,2.78,-1.29,-1.83,1.60,-24.97,-9.86,44.91,-1.00
4190.00,-5.15,-6.17,1.57,-0.60,-2.04,1.29,-24.97,-9.86,44.91,-1.00
4202.00,-5.15,-6.17,1.57,-0.60,-2.04,1.29,-24.97,-9.86,44.91,-1.00
4217.00,-4.74,-6.74,4.46,0.49,-2.08,1.20,-24.97,-9.86,44.91,-1.00
4228.00,-4.36,-5.96,4.69,1.02,-1.92,1.11,-24.97,-9.86,44.91,-1.00
4240.00,-4.36,-5.96,4.69,1.02,-1.92,1.11,-24.97,-9.86,44.91,-1.00
4252.00,-4.61,-6.05,4.77,1.32,-1.68,1.02,-24.97,-9.86,44.91,-1.00
4266.00,-5.49,-6.22,4.13,1.50,-1.42,1.10,-24.97,-9.86,44.91,-1.00
4278.00,-5.49,-6.22,4.13,1.50,-1.42,1.10,-24.97,-9.86,44.91,-1.00
4290.00,-6.22,-6.32,3.68,2.04,-1.23,1.32,-24.41,-6.26,51.60,-1.00
4302.00,-6.22,-6.32,3.68,2.04,-1.23,1.32,-24.41,-6.26,51.60,-1.00
4316.00,-6.45,-5.84,4.30,2.12,-1.24,1.33,-24.41,-6.26,51.60,-1.00
4328.00,-5.38,-6.06,5.07,1.74,-1.31,1.09,-24.41,-6.26,51.60,-1.00
4340.00,-5.38,-6.06,5.07,1.74,-1.31,1.09,-24.41,-6.26,51.60,-1.00
4352.00,-4.04,-5.30,5.32,1.72,-1.38,1.06,-24.41,-6.26,51.60,-1.00
4367.00,-4.76,-4.77,5.07,2.31,-1.50,1.13,-24.41,-6.26,51.60,-1.00
4378.00,-4.76,-4.77,5.07,2.31,-1.50,1.13,-24.41,-6.26,51.60,-1.00
4391.00,-6.60,-6.74,7.14,3.23,-1.64,1.28,-24.41,-6.26,51.60,-1.00
4404.00,-7.19,-4.94,8.05,1.19,-1.56,1.36,-25.94,2.90,56.29,-1.00
4416.00,-7.19,-4.94,8.05,1.19,-1.56,1.36,-25.94,2.90,56.29,-1.00
4428.00,-5.57,-3.83,6.67,0.40,-1.05,1.18,-25.94,2.90,56.29,-1.00
4440.00,-5.57,-3.83,6.67,0.40,-1.05,1.18,-25.94,2.90,56.29,-1.00
4454.00,-4.99,-4.55,7.35,0.54,-0.95,0.66,-25.94,2.90,56.29,-1.00
4466.00,-5.30,-5.61,7.48,0.69,-0.89,0.45,-25.94,2.90,56.29,-1.00
4478.00,-5.30,-5.61,7.48,0.69,-0.89,0.45,-25.94,2.90,56.29,-1.00
4490.00,-5.82,-5.07,7.08,0.50,-0.77,0.61,-25.94,2.90,56.29,-1.00
4504.00,-4.37,-6.36,6.45,0.08,-0.77,0.68,-25.94,2.90,56.29,-1.00
4516.00,-4.37,-6.36,6.45,0.08,-0.77,0.68,-25.94,2.90,56.29,-1.00
4528.00,-5.77,-5.76,7.16,-1.54,-1.06,1.05,-24.83,1.46,55.84,-1.00
4540.00,-5.77,-5.76,7.16,-1.54,-1.06,1.05,-24.83,1.46,55.84,-1.00
4555.00,-4.69,-4.12,5.60,-2.59,-1.09,1.00,-24.83,1.46,55.84,-1.00
4566.00,-6.70,-6.76,5.08,-1.82,-1.25,0.57,-24.83,1.46,55.84,-1.00
4578.00,-6.70,-6.76,5.08,-1.82,-1.25,0.57,-24.83,1.46,55.84,-1.00
4590.00,-4.79,-5.96,5.97,-1.21,-1.21,1.14,-24.83,1.46,55.84,-1.00
4604.00,-4.46,-5.12,4.56,-2.22,-1.36,1.67,-24.83,1.46,55.84,-1.00
4616.00,-4.46,-5.12,4.56,-2.22,-1.36,1.67,-24.83,1.46,55.84,-1.00
4628.00,-3.94,-6.27,5.75,-2.51,-1.38,1.97,-24.83,1.46,55.84,-1.00
4640.00,-3.94,-6.27,5.75,-2.51,-1.38,1.97,-24.83,1.46,55.84,-1.00
4654.00,-4.79,-5.32,4.87,-2.35,-1.43,1.79,-24.83,1.46,55.84,-1.00
4666.00,-8.11,-3.81,3.59,-2.95,-1.47,1.27,-25.94,-3.21,51.83,-1.00
4678.00,-8.11,-3.81,3.59,-2.95,-1.47,1.27,-25.94,-3.21,51.83,-1.00
4690.00,-7.59,-2.81,3.86,-4.55,-1.25,0.54,-25.94,-3.21,51.83,-1.00
4705.00,-4.58,-4.00,0.15,-5.14,-1.39,-0.85,-25.94,-3.21,51.83,-1.00
4716.00,-4.58,-4.00,0.15,-5.14,-1.39,-0.85,-25.94,-3.21,51.83,-1.00
4728.00,-3.65,-6.07,-0.29,-2.84,-2.11,-1.90,-25.94,-3.21,51.83,-1.00
4742.00,-3.65,-6.07,-0.29,-2.84,-2.11,-1.90,-25.94,-3.21,51.83,-1.00
4754.00,-3.92,-8.76,0.33,-0.16,-2.75,-2.06,-25.94,-3.21,51.83,-1.00
4766.00,-2.53,-11.22,2.25,1.65,-3.11,-1.31,-25.94,-3.21,51.83,-1.00
4778.00,-2.53,-11.22,2.25,1.65,-3.11,-1.31,-25.94,-3.21,51.83,-1.00
4792.00,-2.47,-11.62,3.58,1.92,-3.24,0.05,-18.12,-19.74,54.95,-1.00
4804.00,-3.58,-8.68,1.57,0.54,-3.36,0.97,-18.12,-19.74,54.95,-1.00
4816.00,-3.58,-8.68,1.57,0.54,-3.36,0.97,-18.12,-19.74,54.95,-1.00
4828.00,-3.64,-6.22,2.22,0.31,-3.77,1.07,-18.12,-19.74,54.95,-1.00
4842.00,-3.64,-6.22,2.22,0.31,-3.77,1.07,-18.12,-19.74,54.95,-1.00
4854.00,-4.14,-6.17,7.95,1.96,-4.04,0.96,-18.12,-19.74,54.95,-1.00
4866.00,-4.06,-7.14,10.93,2.97,-3.24,0.98,-18.12,-19.74,54.95,-1.00
4880.00,-4.06,-7.14,10.93,2.97,-3.24,0.98,-18.12,-19.74,54.95,-1.00
4892.00,-2.73,-8.29,6.99,1.33,-1.75,0.62,-18.12,-19.74,54.95,-1.00
4904.00,-3.11,-10.08,7.48,0.90,-1.10,0.53,-13.93,-13.27,72.36,-1.00
4916.00,-3.11,-10.08,7.48,0.90,-1.10,0.53,-13.93,-13.27,72.36,-1.00
4930.00,-1.93,-8.20,4.79,-0.90,-0.96,0.50,-13.93,-13.27,72.36,-1.00
4942.00,-1.93,-8.20,4.79,-0.90,-0.96,0.50,-13.93,-13.27,72.36,-1.00
4954.00,-2.45,-7.63,5.40,-0.67,-0.99,0.98,-13.93,-13.27,72.36,-1.00
4966.00,-2.61,-5.66,4.36,-0.30,-1.20,1.27,-13.93,-13.27,72.36,-1.00
4981.00,-2.61,-5.66,4.36,-0.30,-1.20,1.27,-13.93,-13.27,72.36,-1.00
4992.00,-3.78,-6.60,5.05,0.42,-1.38,1.30,-13.93,-13.27,72.36,-1.00
5004.00,-3.77,-11.94,8.05,0.44,-1.32,1.19,-13.93,-13.27,72.36,-1.00
5016.00,-3.77,-11.94,8.05,0.44,-1.32,1.19,-13.93,-13.27,72.36,-1.00
5030.00,-1.21,-9.78,5.52,-0.56,-1.04,1.56,-14.35,-14.17,69.46,-1.00
5042.00,-1.21,-9.78,5.52,-0.56,-1.04,1.56,-14.35,-14.17,69.46,-1.00
5054.00,-2.24,-8.07,5.17,-0.17,-0.90,2.03,-14.35,-14.17,69.46,-1.00
5068.00,-2.39,-6.81,2.37,0.34,-0.79,2.30,-14.35,-14.17,69.46,-1.00
5080.00,-2.39,-6.81,2.37,0.34,-0.79,2.30,-14.35,-14.17,69.46,-1.00
5092.00,-3.13,-8.51,5.56,0.88,-1.04,2.47,-14.35,-14.17,69.46,-1.00
5104.00,-4.21,-7.46,4.96,0.43,-1.09,2.59,-14.35,-14.17,69.46,-1.00
5118.00,-4.21,-7.46,4.96,0.43,-1.09,2.59,-14.35,-14.17,69.46,-1.00
5130.00,-5.42,-5.81,5.08,0.03,-1.25,2.46,-14.35,-14.17,69.46,-1.00
5142.00,-5.42,-5.81,5.08,0.03,-1.25,2.46,-14.35,-14.17,69.46,-1.00
5155.00,-4.19,-5.92,5.30,-0.23,-1.52,2.11,-14.35,-14.17,69.46,-1.00
5168.00,-3.95,-6.39,5.68,-0.26,-1.64,1.96,-16.86,-6.62,69.91,-1.00
5180.00,-3.95,-6.39,5.68,-0.26,-1.64,1.96,-16.86,-6.62,69.91,-1.00
5192.00,-4.08,-6.69,6.44,-0.35,-1.56,1.99,-16.86,-6.62,69.91,-1.00
5204.00,-3.87,-6.29,6.72,-0.70,-1.32,2.00,-16.86,-6.62,69.91,-1.00
5218.00,-3.87,-6.29,6.72,-0.70,-1.32,2.00,-16.86,-6.62,69.91,-1.00
5230.00,-4.80,-6.13,6.90,-1.11,-0.99,2.00,-16.86,-6.62,69.91,-1.00
5242.00,-4.80,-6.13,6.90,-1.11,-0.99,2.00,-16.86,-6.62,69.91,-1.00
5256.00,-4.97,-6.04,6.17,-1.90,-0.67,2.06,-16.86,-6.62,69.91,-1.00
5268.00,-3.85,-5.67,4.11,-2.51,-0.44,2.14,-16.86,-6.62,69.91,-1.00
5280.00,-3.85,-5.67,4.11,-2.51,-0.44,2.14,-16.86,-6.62,69.91,-1.00
5292.00,-3.34,-7.80,4.08,-2.05,-0.53,1.83,-18.96,-8.24,66.11,-1.00
5306.00,-5.63,-8.63,6.41,-1.47,-0.66,1.60,-18.96,-8.24,66.11,-1.00
5318.00,-5.63,-8.63,6.41,-1.47,-0.66,1.60,-18.96,-8.24,66.11,-1.00
5330.00,-5.76,-7.26,3.55,-1.49,-0.64,1.34,-18.96,-8.24,66.11,-1.00
5342.00,-5.76,-7.26,3.55,-1.49,-0.64,1.34,-18.96,-8.24,66.11,-1.00
5356.00,-6.37,-7.71,2.44,-0.76,-0.76,1.26,-18.96,-8.24,66.11,-1.00
5368.00,-6.08,-7.42,2.89,-0.33,-1.08,1.43,-18.96,-8.24,66.11,-1.00
5380.00,-6.08,-7.42,2.89,-0.33,-1.08,1.43,-18.96,-8.24,66.11,-1.00
5392.00,-6.23,-7.70,3.36,-0.03,-1.18,1.57,-18.96,-8.24,66.11,-1.00
5406.00,-7.30,-7.17,2.96,0.27,-1.14,1.72,-20.22,-8.42,61.42,-1.00
5418.00,-7.30,-7.17,2.96,0.27,-1.14,1.72,-20.22,-8.42,61.42,-1.00
5430.00,-7.47,-6.58,2.94,0.27,-1.22,1.58,-20.22,-8.42,61.42,-1.00
5444.00,-7.05,-6.97,3.10,0.11,-1.32,1.21,-20.22,-8.42,61.42,-1.00
5456.00,-7.05,-6.97,3.10,0.11,-1.32,1.21,-20.22,-8.42,61.42,-1.00
5468.00,-5.82,-6.91,3.00,-0.03,-1.37,1.07,-20.22,-8.42,61.42,-1.00
5480.00,-5.82,-6.91,3.00,-0.03,-1.37,1.07,-20.22,-8.42,61.42,-1.00
5494.00,-4.42,-7.14,3.70,0.09,-1.32,1.18,-20.22,-8.42,61.42,-1.00
5506.00,-4.77,-6.00,3.53,0.18,-1.10,1.34,-20.22,-8.42,61.42,-1.00
5518.00,-4.77,-6.00,3.53,0.18,-1.10,1.34,-20.22,-8.42,61.42,-1.00
5530.00,-5.25,-4.47,2.87,0.16,-0.85,1.23,-21.33,-5.91,60.98,-1.00
5544.00,-5.18,-4.58,2.22,0.19,-0.81,0.97,-21.33,-5.91,60.98,-1.00
5557.00,-5.18,-4.58,2.22,0.19,-0.81,0.97,-21.33,-5.91,60.98,-1.00
5569.00,-4.83,-5.90,2.32,0.38,-0.99,0.87,-21.33,-5.91,60.98,-1.00
5581.00,-4.83,-5.90,2.32,0.38,-0.99,0.87,-21.33,-5.91,60.98,-1.00
5595.00,-5.40,-6.42,3.43,0.33,-1.05,1.13,-21.33,-5.91,60.98,-1.00
5607.00,-7.03,-6.17,3.10,0.05,-0.91,1.42,-21.33,-5.91,60.98,-1.00
5619.00,-7.03,-6.17,3.10,0.05,-0.91,1.42,-21.33,-5.91,60.98,-1.00
5631.00,-7.84,-5.82,2.59,-0.03,-0.93,1.37,-21.33,-5.91,60.98,-1.00
5645.00,-7.56,-7.54,3.29,-0.05,-1.27,0.85,-21.33,-5.91,60.98,-1.00
5657.00,-7.56,-7.54,3.29,-0.05,-1.27,0.85,-21.33,-5.91,60.98,-1.00
5669.00,-6.60,-8.78,4.19,-0.05,-1.53,0.53,-22.87,-4.29,60.31,-1.00
5684.00,-6.60,-8.78,4.19,-0.05,-1.53,0.53,-22.87,-4.29,60.31,-1.00
5695.00,-5.62,-8.81,4.53,-0.08,-1.50,0.51,-22.87,-4.29,60.31,-1.00
5707.00,-5.90,-8.31,4.12,-0.04,-1.25,0.69,-22.87,-4.29,60.31,-1.00
5719.00,-5.90,-8.31,4.12,-0.04,-1.25,0.69,-22.87,-4.29,60.31,-1.00
5733.00,-6.11,-7.36,3.31,0.06,-1.05,0.86,-22.87,-4.29,60.31,-1.00
5745.00,-6.23,-5.72,2.86,0.15,-1.02,0.95,-22.87,-4.29,60.31,-1.00
5757.00,-6.23,-5.72,2.86,0.15,-1.02,0.95,-22.87,-4.29,60.31,-1.00
5769.00,-6.15,-5.69,2.96,0.09,-1.09,0.91,-22.87,-4.29,60.31,-1.00
5783.00,-6.15,-5.69,2.96,0.09,-1.09,0.91,-22.87,-4.29,60.31,-1.00
5795.00,-5.69,-6.69,3.29,-0.06,-1.19,0.84,-22.03,-4.65,59.42,-1.00
5807.00,-5.44,-6.83,3.68,-0.11,-1.17,0.83,-22.03,-4.65,59.42,-1.00
5819.00,-5.44,-6.83,3.68,-0.11,-1.17,0.83,-22.03,-4.65,59.42,-1.00
5834.00,-5.92,-6.56,3.46,-0.06,-1.04,0.84,-22.03,-4.65,59.42,-1.00
5845.00,-6.36,-7.00,3.21,0.01,-0.89,0.89,-22.03,-4.65,59.42,-1.00
5857.00,-6.36,-7.00,3.21,0.01,-0.89,0.89,-22.03,-4.65,59.42,-1.00
5869.00,-6.65,-7.60,2.97,-0.13,-0.86,1.05,-22.03,-4.65,59.42,-1.00
5883.00,-6.65,-7.60,2.97,-0.13,-0.86,1.05,-22.03,-4.65,59.42,-1.00
5895.00,-6.86,-6.89,2.71,-0.21,-0.92,1.22,-22.03,-4.65,59.42,-1.00
5907.00,-6.86,-6.60,2.60,-0.18,-1.04,1.16,-21.33,-5.19,60.98,-1.00
5921.00,-6.86,-6.60,2.60,-0.18,-1.04,1.16,-21.33,-5.19,60.98,-1.00
5933.00,-6.66,-6.85,2.73,-0.06,-1.17,0.99,-21.33,-5.19,60.98,-1.00
5945.00,-6.45,-6.83,2.90,0.01,-1.25,0.96,-21.33,-5.19,60.98,-1.00
5957.00,-6.45,-6.83,2.90,0.01,-1.25,0.96,-21.33,-5.19,60.98,-1.00
5971.00,-6.51,-6.91,3.12,-0.05,-1.27,1.03,-21.33,-5.19,60.98,-1.00
5983.00,-6.51,-6.91,3.12,-0.05,-1.27,1.03,-21.33,-5.19,60.98,-1.00
5995.00,-6.02,-6.63,3.00,-0.09,-1.28,1.11,-21.33,-5.19,60.98,-1.00
6007.00,-5.87,-6.52,3.26,0.00,-1.28,1.07,-21.33,-5.19,60.98,-1.00
6022.00,-5.87,-6.52,3.26,0.00,-1.28,1.07,-21.33,-5.19,60.98,-1.00
6033.00,-6.02,-6.52,3.24,0.07,-1.25,1.00,-22.17,-4.83,59.19,-1.00
6045.00,-6.21,-6.54,3.34,0.02,-1.22,1.01,-22.17,-4.83,59.19,-1.00
6057.00,-6.21,-6.54,3.34,0.02,-1.22,1.01,-22.17,-4.83,59.19,-1.00
6071.00,-6.45,-6.71,3.27,-0.12,-1.17,1.14,-22.17,-4.83,59.19,-1.00
6160.00,-6.92,-6.41,2.39,0.03,-1.27,0.95,-22.17,-4.83,59.19,-1.00
6249.00,-6.58,-6.47,2.83,-0.11,-1.13,1.04,-23.01,-4.11,58.30,-1.00
6263.00,-6.58,-6.47,2.83,-0.11,-1.13,1.04,-23.01,-4.11,58.30,-1.00
6275.00,-6.49,-6.56,2.91,-0.16,-1.22,1.06,-23.01,-4.11,58.30,-1.00
6287.00,-6.40,-6.88,3.06,-0.16,-1.30,1.09,-23.71,-5.01,58.97,-1.00
6299.00,-6.40,-6.88,3.06,-0.16,-1.30,1.09,-23.71,-5.01,58.97,-1.00
6314.00,-6.29,-6.99,3.01,-0.13,-1.33,1.20,-23.71,-5.01,58.97,-1.00
6325.00,-6.30,-6.55,3.01,-0.04,-1.33,1.28,-23.71,-5.01,58.97,-1.00
6337.00,-6.30,-6.55,3.01,-0.04,-1.33,1.28,-23.71,-5.01,58.97,-1.00
6349.00,-6.44,-6.37,2.92,0.01,-1.26,1.27,-23.71,-5.01,58.97,-1.00
6363.00,-6.44,-6.37,2.92,0.01,-1.26,1.27,-23.71,-5.01,58.97,-1.00
6375.00,-6.59,-6.46,2.62,-0.11,-1.19,1.26,-23.71,-5.01,58.97,-1.00
6387.00,-7.15,-6.60,2.56,-0.25,-1.17,1.27,-23.71,-5.01,58.97,-1.00
6399.00,-7.15,-6.60,2.56,-0.25,-1.17,1.27,-23.71,-5.01,58.97,-1.00
6413.00,-6.68,-6.79,2.69,-0.40,-1.23,1.22,-23.15,-4.29,59.86,-1.00
6425.00,-6.33,-6.71,3.16,-0.32,-1.25,1.20,-23.15,-4.29,59.86,-1.00
6437.00,-6.33,-6.71,3.16,-0.32,-1.25,1.20,-23.15,-4.29,59.86,-1.00
6449.00,-6.74,-6.49,2.71,-0.19,-1.16,1.24,-23.15,-4.29,59.86,-1.00
6464.00,-6.74,-6.49,2.71,-0.19,-1.16,1.24,-23.15,-4.29,59.86,-1.00
6475.00,-6.71,-6.00,2.81,0.01,-1.12,1.20,-23.15,-4.29,59.86,-1.00
6488.00,-6.50,-6.07,3.22,0.12,-1.08,1.07,-23.15,-4.29,59.86,-1.00
6501.00,-6.50,-6.07,3.22,0.12,-1.08,1.07,-23.15,-4.29,59.86,-1.00
6513.00,-7.28,-5.48,1.79,-0.93,-0.96,0.81,-23.15,-4.29,59.86,-1.00
6525.00,-7.26,-6.71,2.04,-0.94,-0.82,0.78,-25.25,-3.75,56.96,-1.00
6537.00,-7.26,-6.71,2.04,-0.94,-0.82,0.78,-25.25,-3.75,56.96,-1.00
6551.00,-7.56,-6.12,1.91,-0.49,-0.96,0.99,-25.25,-3.75,56.96,-1.00
6563.00,-7.56,-6.12,1.91,-0.49,-0.96,0.99,-25.25,-3.75,56.96,-1.00
6575.00,-8.11,-5.62,2.05,-0.41,-1.21,0.87,-25.25,-3.75,56.96,-1.00
6587.00,-7.61,-6.52,1.96,-0.45,-1.41,0.71,-25.25,-3.75,56.96,-1.00
6601.00,-7.61,-6.52,1.96,-0.45,-1.41,0.71,-25.25,-3.75,56.96,-1.00
6613.00,-6.36,-6.88,1.85,-0.43,-1.60,0.79,-25.25,-3.75,56.96,-1.00
6625.00,-5.86,-6.36,2.68,-0.27,-1.63,0.91,-25.25,-3.75,56.96,-1.00
6637.00,-5.86,-6.36,2.68,-0.27,-1.63,0.91,-25.25,-3.75,56.96,-1.00
6652.00,-6.06,-6.44,2.59,-0.12,-1.44,0.91,-25.25,-3.75,56.96,-1.00
6663.00,-6.06,-6.44,2.59,-0.12,-1.44,0.91,-25.25,-3.75,56.96,-1.00
6675.00,-6.26,-6.77,2.36,-0.00,-1.22,0.91,-22.59,-6.09,56.74,-1.00
6689.00,-7.26,-7.00,2.05,0.00,-1.10,0.99,-22.59,-6.09,56.74,-1.00
6701.00,-7.26,-7.00,2.05,0.00,-1.10,0.99,-22.59,-6.09,56.74,-1.00
6713.00,-7.43,-6.64,1.73,-0.04,-1.12,1.05,-22.59,-6.09,56.74,-1.00
6725.00,-6.85,-6.80,1.97,0.06,-1.26,1.04,-22.59,-6.09,56.74,-1.00
6740.00,-6.85,-6.80,1.97,0.06,-1.26,1.04,-22.59,-6.09,56.74,-1.00
6752.00,-6.56,-6.61,2.39,0.18,-1.34,0.99,-22.59,-6.09,56.74,-1.00
6764.00,-6.56,-6.61,2.39,0.18,-1.34,0.99,-22.59,-6.09,56.74,-1.00
6776.00,-6.23,-6.31,2.55,0.24,-1.29,0.95,-22.59,-6.09,56.74,-1.00
6790.00,-6.14,-6.07,2.55,0.24,-1.19,0.93,-23.29,-5.91,55.62,-1.00
6802.00,-6.14,-6.07,2.55,0.24,-1.19,0.93,-23.29,-5.91,55.62,-1.00
6814.00,-6.62,-6.26,2.23,0.22,-1.08,0.97,-23.29,-5.91,55.62,-1.00
6826.00,-7.09,-6.71,2.07,0.06,-1.11,1.02,-23.29,-5.91,55.62,-1.00
6840.00,-7.09,-6.71,2.07,0.06,-1.11,1.02,-23.29,-5.91,55.62,-1.00
6852.00,-6.91,-7.01,2.20,-0.02,-1.21,1.05,-23.29,-5.91,55.62,-1.00
6864.00,-6.91,-7.01,2.20,-0.02,-1.21,1.05,-23.29,-5.91,55.62,-1.00
6876.00,-6.90,-6.86,2.53,0.06,-1.24,1.05,-23.29,-5.91,55.62,-1.00
6890.00,-7.05,-6.63,2.53,0.05,-1.16,1.05,-23.29,-5.91,55.62,-1.00
6902.00,-7.05,-6.63,2.53,0.05,-1.16,1.05,-23.29,-5.91,55.62,-1.00
6915.00,-7.23,-6.70,2.23,0.02,-1.07,1.09,-23.85,-3.39,56.51,-1.00
6929.00,-7.51,-6.35,1.98,0.00,-1.07,1.10,-23.85,-3.39,56.51,-1.00
6941.00,-7.51,-6.35,1.98,0.00,-1.07,1.10,-23.85,-3.39,56.51,-1.00
6953.00,-7.40,-6.14,1.85,-0.02,-1.16,1.02,-23.85,-3.39,56.51,-1.00
6965.00,-7.40,-6.14,1.85,-0.02,-1.16,1.02,-23.85,-3.39,56.51,-1.00
6979.00,-6.96,-6.33,2.00,-0.04,-1.29,0.88,-23.85,-3.39,56.51,-1.00
6991.00,-6.47,-6.32,2.23,-0.05,-1.38,0.77,-23.85,-3.39,56.51,-1.00
7003.00,-6.47,-6.32,2.23,-0.05,-1.38,0.77,-23.85,-3.39,56.51,-1.00
7015.00,-6.35,-6.32,2.59,-0.06,-1.36,0.79,-23.85,-3.39,56.51,-1.00
7029.00,-6.87,-6.69,2.54,-0.07,-1.24,0.92,-23.85,-3.39,56.51,-1.00
7041.00,-6.87,-6.69,2.54,-0.07,-1.24,0.92,-23.85,-3.39,56.51,-1.00
7053.00,-7.57,-7.13,2.21,-0.12,-1.14,0.99,-22.59,-4.65,54.95,-1.00
7065.00,-7.57,-7.13,2.21,-0.12,-1.14,0.99,-22.59,-4.65,54.95,-1.00
7080.00,-7.59,-6.89,1.91,-0.18,-1.16,0.96,-22.59,-4.65,54.95,-1.00
7091.00,-7.11,-6.75,2.07,-0.16,-1.26,0.85,-22.59,-4.65,54.95,-1.00
7103.00,-7.11,-6.75,2.07,-0.16,-1.26,0.85,-22.59,-4.65,54.95,-1.00
7115.00,-6.40,-7.03,2.46,-0.08,-1.36,0.80,-22.59,-4.65,54.95,-1.00
7129.00,-6.19,-6.69,2.83,-0.04,-1.35,0.92,-22.59,-4.65,54.95,-1.00
7141.00,-6.19,-6.69,2.83,-0.04,-1.35,0.92,-22.59,-4.65,54.95,-1.00
7153.00,-6.39,-6.60,2.96,-0.03,-1.25,1.07,-22.59,-4.65,54.95,-1.00
7167.00,-6.62,-6.34,2.65,-0.02,-1.15,1.14,-23.71,-5.01,58.52,-1.00
7179.00,-6.62,-6.34,2.65,-0.02,-1.15,1.14,-23.71,-5.01,58.52,-1.00
7191.00,-6.83,-6.13,2.22,0.05,-1.14,1.09,-23.71,-5.01,58.52,-1.00
7203.00,-6.83,-6.13,2.22,0.05,-1.14,1.09,-23.71,-5.01,58.52,-1.00
7217.00,-7.14,-6.11,1.87,0.07,-1.20,0.98,-23.71,-5.01,58.52,-1.00
7229.00,-6.92,-6.14,1.93,0.02,-1.29,0.90,-23.71,-5.01,58.52,-1.00
7241.00,-6.92,-6.14,1.93,0.02,-1.29,0.90,-23.71,-5.01,58.52,-1.00
7253.00,-6.77,-6.17,2.04,-0.03,-1.33,0.90,-23.71,-5.01,58.52,-1.00
7267.00,-6.73,-6.37,2.16,-0.03,-1.28,0.93,-23.71,-5.01,58.52,-1.00
7279.00,-6.73,-6.37,2.16,-0.03,-1.28,0.93,-23.71,-5.01,58.52,-1.00
7291.00,-6.97,-6.69,2.16,-0.02,-1.21,0.95,-21.89,-5.19,56.96,-1.00
7303.00,-6.97,-6.69,2.16,-0.02,-1.21,0.95,-21.89,-5.19,56.96,-1.00
7317.00,-7.24,-7.18,2.38,-0.03,-1.19,0.94,-21.89,-5.19,56.96,-1.00
7329.00,-7.33,-6.99,2.34,-0.11,-1.20,0.97,-21.89,-5.19,56.96,-1.00
7341.00,-7.33,-6.99,2.34,-0.11,-1.20,0.97,-21.89,-5.19,56.96,-1.00
7355.00,-7.25,-6.52,2.29,-0.10,-1.22,0.99,-21.89,-5.19,56.96,-1.00
7367.00,-7.04,-6.01,2.16,-0.07,-1.27,0.97,-21.89,-5.19,56.96,-1.00
7379.00,-7.04,-6.01,2.16,-0.07,-1.27,0.97,-21.89,-5.19,56.96,-1.00
7391.00,-6.74,-5.64,2.14,-0.06,-1.32,0.93,-21.89,-5.19,56.96,-1.00
7406.00,-6.74,-5.64,2.14,-0.06,-1.32,0.93,-21.89,-5.19,56.96,-1.00
7417.00,-6.61,-5.84,2.23,-0.06,-1.33,0.90,-23.01,-5.19,57.41,-1.00
7429.00,-6.41,-6.55,2.38,-0.10,-1.30,0.88,-23.01,-5.19,57.41,-1.00
7441.00,-6.41,-6.55,2.38,-0.10,-1.30,0.88,-23.01,-5.19,57.41,-1.00
7455.00,-6.49,-7.67,2.71,-0.10,-1.25,0.84,-23.01,-5.19,57.41,-1.00
7467.00,-6.67,-7.81,2.62,-0.07,-1.18,0.90,-23.01,-5.19,57.41,-1.00
7479.00,-6.67,-7.81,2.62,-0.07,-1.18,0.90,-23.01,-5.19,57.41,-1.00
7491.00,-6.63,-7.36,2.42,-0.03,-1.13,0.99,-23.01,-5.19,57.41,-1.00
7505.00,-6.63,-7.36,2.42,-0.03,-1.13,0.99,-23.01,-5.19,57.41,-1.00
7517.00,-6.63,-6.61,2.22,-0.00,-1.12,1.07,-23.01,-5.19,57.41,-1.00
7529.00,-6.60,-6.19,2.14,-0.01,-1.17,1.09,-23.01,-5.19,57.41,-1.00
7543.00,-6.60,-6.19,2.14,-0.01,-1.17,1.09,-23.01,-5.19,57.41,-1.00
7555.00,-6.12,-6.18,2.36,-0.01,-1.24,1.06,-22.87,-7.16,56.74,-1.00
7567.00,-6.32,-6.68,2.72,0.04,-1.24,1.03,-22.87,-7.16,56.74,-1.00
7579.00,-6.32,-6.68,2.72,0.04,-1.24,1.03,-22.87,-7.16,56.74,-1.00
7593.00,-6.88,-6.85,2.37,0.06,-1.12,1.05,-22.87,-7.16,56.74,-1.00
7605.00,-6.88,-6.85,2.37,0.06,-1.12,1.05,-22.87,-7.16,56.74,-1.00
7617.00,-7.06,-6.56,1.81,0.04,-1.06,1.10,-22.87,-7.16,56.74,-1.00
7629.00,-7.14,-6.21,1.63,0.04,-1.10,1.10,-22.87,-7.16,56.74,-1.00
7643.00,-7.14,-6.21,1.63,0.04,-1.10,1.10,-22.87,-7.16,56.74,-1.00
7655.00,-7.27,-6.60,1.80,0.05,-1.17,1.07,-22.87,-7.16,56.74,-1.00
7667.00,-7.22,-6.40,1.95,0.01,-1.21,1.10,-23.71,-3.93,56.74,-1.00
7679.00,-7.22,-6.40,1.95,0.01,-1.21,1.10,-23.71,-3.93,56.74,-1.00
7693.00,-7.44,-6.17,1.97,0.00,-1.21,1.10,-23.71,-3.93,56.74,-1.00
7705.00,-7.44,-6.17,1.97,0.00,-1.21,1.10,-23.71,-3.93,56.74,-1.00
7717.00,-7.38,-5.87,1.96,0.02,-1.22,1.05,-23.71,-3.93,56.74,-1.00
7729.00,-7.06,-6.26,2.25,0.06,-1.27,0.92,-23.71,-3.93,56.74,-1.00
7743.00,-7.06,-6.26,2.25,0.06,-1.27,0.92,-23.71,-3.93,56.74,-1.00
7755.00,-7.20,-6.68,2.34,0.05,-1.26,0.92,-23.71,-3.93,56.74,-1.00
7767.00,-7.38,-6.31,2.12,0.05,-1.24,1.03,-23.71,-3.93,56.74,-1.00
7779.00,-7.38,-6.31,2.12,0.05,-1.24,1.03,-23.71,-3.93,56.74,-1.00
7793.00,-7.43,-5.69,1.94,0.09,-1.27,1.10,-24.27,-5.01,55.84,-1.00
7805.00,-7.43,-5.69,1.94,0.09,-1.27,1.10,-24.27,-5.01,55.84,-1.00
7817.00,-7.25,-5.75,2.06,0.12,-1.33,1.12,-24.27,-5.01,55.84,-1.00
7831.00,-6.79,-6.06,2.30,0.10,-1.35,1.10,-24.27,-5.01,55.84,-1.00
7843.00,-6.79,-6.06,2.30,0.10,-1.35,1.10,-24.27,-5.01,55.84,-1.00
7855.00,-6.62,-6.30,2.28,0.10,-1.31,1.11,-24.27,-5.01,55.84,-1.00
7867.00,-6.64,-6.30,2.40,0.08,-1.26,1.16,-24.27,-5.01,55.84,-1.00
7881.00,-6.64,-6.30,2.40,0.08,-1.26,1.16,-24.27,-5.01,55.84,-1.00
7893.00,-6.79,-6.33,2.47,0.03,-1.20,1.14,-24.27,-5.01,55.84,-1.00
7905.00,-6.79,-6.33,2.47,0.03,-1.20,1.14,-24.27,-5.01,55.84,-1.00
7917.00,-7.02,-6.63,2.32,-0.05,-1.16,1.07,-23.29,-3.03,57.41,-1.00
7932.00,-6.88,-6.89,2.29,-0.06,-1.17,1.05,-23.29,-3.03,57.41,-1.00
7943.00,-6.88,-6.89,2.29,-0.06,-1.17,1.05,-23.29,-3.03,57.41,-1.00
7955.00,-6.72,-6.45,2.41,0.02,-1.19,1.07,-23.29,-3.03,57.41,-1.00
7967.00,-6.82,-6.24,2.64,0.13,-1.18,1.08,-23.29,-3.03,57.41,-1.00
7981.00,-6.82,-6.24,2.64,0.13,-1.18,1.08,-23.29,-3.03,57.41,-1.00
7993.00,-6.77,-6.15,2.78,0.18,-1.14,1.10,-23.29,-3.03,57.41,-1.00
8005.00,-6.77,-6.15,2.78,0.18,-1.14,1.10,-23.29,-3.03,57.41,-1.00
8017.00,-7.03,-6.14,2.74,0.14,-1.08,1.15,-23.29,-3.03,57.41,-1.00
8031.00,-7.35,-6.02,2.58,0.12,-1.05,1.21,-23.29,-3.03,57.41,-1.00
8043.00,-7.35,-6.02,2.58,0.12,-1.05,1.21,-23.29,-3.03,57.41,-1.00
8055.00,-7.37,-5.69,2.53,0.17,-1.07,1.17,-24.69,-2.67,56.96,-1.00
8069.00,-7.47,-5.62,2.46,0.22,-1.10,1.04,-24.69,-2.67,56.96,-1.00
8081.00,-7.47,-5.62,2.46,0.22,-1.10,1.04,-24.69,-2.67,56.96,-1.00
8093.00,-7.47,-6.21,2.41,0.24,-1.14,0.90,-24.69,-2.67,56.96,-1.00
8105.00,-7.47,-6.21,2.41,0.24,-1.14,0.90,-24.69,-2.67,56.96,-1.00
8120.00,-7.03,-6.87,2.69,0.18,-1.20,0.88,-24.69,-2.67,56.96,-1.00
8131.00,-6.76,-7.04,2.80,0.14,-1.21,1.01,-24.69,-2.67,56.96,-1.00
8143.00,-6.76,-7.04,2.80,0.14,-1.21,1.01,-24.69,-2.67,56.96,-1.00
8155.00,-7.00,-6.79,2.80,0.19,-1.15,1.16,-24.69,-2.67,56.96,-1.00
8169.00,-7.22,-6.40,2.70,0.18,-1.04,1.23,-24.83,-0.33,55.84,-1.00
8181.00,-7.22,-6.40,2.70,0.18,-1.04,1.23,-24.83,-0.33,55.84,-1.00
8193.00,-7.55,-5.76,2.37,0.19,-0.96,1.28,-24.83,-0.33,55.84,-1.00
8205.00,-7.55,-5.76,2.37,0.19,-0.96,1.28,-24.83,-0.33,55.84,-1.00
8219.00,-7.64,-4.81,1.87,0.17,-0.96,1.26,-24.83,-0.33,55.84,-1.00
8231.00,-7.80,-5.12,1.78,0.22,-1.09,1.17,-24.83,-0.33,55.84,-1.00
8243.00,-7.80,-5.12,1.78,0.22,-1.09,1.17,-24.83,-0.33,55.84,-1.00
8255.00,-6.21,-5.43,1.96,0.18,-1.26,1.12,-24.83,-0.33,55.84,-1.00
8270.00,-8.35,-5.62,3.16,0.33,-1.39,1.19,-24.83,-0.33,55.84,-1.00
8281.00,-8.35,-5.62,3.16,0.33,-1.39,1.19,-24.83,-0.33,55.84,-1.00
8293.00,-8.14,-5.00,2.76,0.28,-1.30,1.21,-25.38,2.18,54.06,-1.00
8307.00,-7.66,-4.88,2.36,0.23,-1.21,1.02,-25.38,2.18,54.06,-1.00
8319.00,-7.66,-4.88,2.36,0.23,-1.21,1.02,-25.38,2.18,54.06,-1.00
8331.00,-7.69,-4.70,2.21,0.17,-1.22,0.83,-25.38,2.18,54.06,-1.00
8343.00,-7.69,-4.70,2.21,0.17,-1.22,0.83,-25.38,2.18,54.06,-1.00
8357.00,-8.21,-4.43,1.88,0.15,-1.26,0.67,-25.38,2.18,54.06,-1.00
8447.00,-7.25,-6.85,2.91,-0.10,-1.22,0.80,-24.41,1.28,56.51,-1.00
8534.00,-6.78,-6.00,2.75,0.00,-1.17,0.97,-24.41,1.28,56.51,-1.00
8622.00,-7.78,-4.95,2.23,-0.04,-1.10,1.09,-23.43,-0.33,55.40,-1.00
8635.00,-7.87,-5.38,2.34,-0.07,-1.11,0.96,-23.43,-0.33,55.40,-1.00
8647.00,-7.90,-5.90,2.29,-0.14,-1.09,0.94,-23.43,-0.33,55.40,-1.00
8659.00,-7.90,-5.90,2.29,-0.14,-1.09,0.94,-23.43,-0.33,55.40,-1.00
8671.00,-8.02,-5.87,2.17,-0.19,-1.12,1.00,-23.71,1.10,55.84,-1.00
8685.00,-8.02,-5.87,2.17,-0.19,-1.12,1.00,-23.71,1.10,55.84,-1.00
8698.00,-7.70,-6.03,2.38,-0.15,-1.20,0.97,-23.71,1.10,55.84,-1.00
8710.00,-7.19,-6.16,2.73,-0.10,-1.22,0.93,-23.71,1.10,55.84,-1.00
8722.00,-7.19,-6.16,2.73,-0.10,-1.22,0.93,-23.71,1.10,55.84,-1.00
8737.00,-6.93,-6.42,2.82,-0.13,-1.14,0.96,-23.71,1.10,55.84,-1.00
8748.00,-7.19,-5.93,2.41,-0.18,-0.99,1.08,-23.71,1.10,55.84,-1.00
8760.00,-7.19,-5.93,2.41,-0.18,-0.99,1.08,-23.71,1.10,55.84,-1.00
8772.00,-7.70,-5.48,1.90,-0.14,-0.92,1.13,-23.71,1.10,55.84,-1.00
8786.00,-7.70,-5.48,1.90,-0.14,-0.92,1.13,-23.71,1.10,55.84,-1.00
8798.00,-7.84,-5.49,1.74,-0.07,-0.99,1.05,-24.41,0.92,52.94,-1.00
8810.00,-7.99,-5.55,1.79,-0.05,-1.12,0.90,-24.41,0.92,52.94,-1.00
8824.00,-7.99,-5.55,1.79,-0.05,-1.12,0.90,-24.41,0.92,52.94,-1.00
8836.00,-7.76,-5.65,2.03,-0.05,-1.22,0.77,-24.41,0.92,52.94,-1.00
8848.00,-7.49,-5.90,2.15,-0.07,-1.24,0.72,-24.41,0.92,52.94,-1.00
8860.00,-7.49,-5.90,2.15,-0.07,-1.24,0.72,-24.41,0.92,52.94,-1.00
8874.00,-7.24,-6.22,2.21,-0.12,-1.21,0.80,-24.41,0.92,52.94,-1.00
8886.00,-7.24,-6.22,2.21,-0.12,-1.21,0.80,-24.41,0.92,52.94,-1.00
8898.00,-7.40,-6.04,2.10,-0.12,-1.15,0.95,-24.41,0.92,52.94,-1.00
8910.00,-7.63,-5.80,2.02,-0.12,-1.13,1.01,-24.69,2.00,53.84,-1.00
8924.00,-7.63,-5.80,2.02,-0.12,-1.13,1.01,-24.69,2.00,53.84,-1.00
8936.00,-7.67,-5.68,1.87,-0.07,-1.15,0.94,-24.69,2.00,53.84,-1.00
8948.00,-7.26,-6.01,2.17,0.00,-1.21,0.85,-24.69,2.00,53.84,-1.00
8960.00,-7.26,-6.01,2.17,0.00,-1.21,0.85,-24.69,2.00,53.84,-1.00
8974.00,-7.03,-6.29,2.34,0.01,-1.15,0.87,-24.69,2.00,53.84,-1.00
8986.00,-7.03,-6.29,2.34,0.01,-1.15,0.87,-24.69,2.00,53.84,-1.00
8998.00,-7.40,-5.79,2.00,-0.01,-1.03,1.02,-24.69,2.00,53.84,-1.00
9010.00,-7.97,-5.70,1.74,-0.04,-0.98,1.08,-24.69,2.00,53.84,-1.00
9024.00,-7.97,-5.70,1.74,-0.04,-0.98,1.08,-24.69,2.00,53.84,-1.00
9036.00,-8.01,-5.75,1.66,-0.03,-1.04,1.00,-24.69,2.00,53.84,-1.00
9048.00,-7.92,-6.04,1.83,0.03,-1.14,0.87,-26.22,-1.77,50.04,-1.00
9062.00,-7.92,-6.04,1.83,0.03,-1.14,0.87,-26.22,-1.77,50.04,-1.00
9074.00,-7.35,-6.19,2.11,0.04,-1.21,0.81,-26.22,-1.77,50.04,-1.00
9086.00,-7.35,-6.19,2.11,0.04,-1.21,0.81,-26.22,-1.77,50.04,-1.00
9098.00,-6.97,-6.09,2.10,0.00,-1.21,0.84,-26.22,-1.77,50.04,-1.00
9112.00,-7.33,-6.04,2.07,0.01,-1.16,0.95,-26.22,-1.77,50.04,-1.00
9124.00,-7.33,-6.04,2.07,0.01,-1.16,0.95,-26.22,-1.77,50.04,-1.00
9136.00,-7.70,-5.70,1.77,0.04,-1.11,0.99,-26.22,-1.77,50.04,-1.00
9148.00,-7.88,-5.89,1.70,0.09,-1.14,0.92,-26.22,-1.77,50.04,-1.00
9163.00,-7.88,-5.89,1.70,0.09,-1.14,0.92,-26.22,-1.77,50.04,-1.00
9174.00,-7.67,-5.77,1.73,0.08,-1.19,0.89,-24.69,0.56,52.94,-1.00
9187.00,-7.67,-5.77,1.73,0.08,-1.19,0.89,-24.69,0.56,52.94,-1.00
9198.00,-7.58,-5.35,1.82,0.01,-1.19,0.93,-24.69,0.56,52.94,-1.00
9212.00,-7.75,-5.56,1.81,-0.04,-1.17,0.88,-24.69,0.56,52.94,-1.00
9224.00,-7.75,-5.56,1.81,-0.04,-1.17,0.88,-24.69,0.56,52.94,-1.00
9236.00,-7.78,-6.08,1.81,-0.08,-1.17,0.82,-24.69,0.56,52.94,-1.00
9248.00,-7.73,-6.22,1.75,-0.12,-1.19,0.81,-24.69,0.56,52.94,-1.00
9262.00,-7.73,-6.22,1.75,-0.12,-1.19,0.81,-24.69,0.56,52.94,-1.00
9274.00,-7.43,-6.32,1.74,-0.13,-1.22,0.83,-24.69,0.56,52.94,-1.00
9286.00,-7.43,-6.32,1.74,-0.13,-1.22,0.83,-24.69,0.56,52.94,-1.00
9298.00,-7.07,-6.28,1.95,-0.10,-1.24,0.89,-25.52,-0.51,53.39,-1.00
9313.00,-7.23,-6.14,1.97,-0.05,-1.20,0.93,-25.52,-0.51,53.39,-1.00
9324.00,-7.23,-6.14,1.97,-0.05,-1.20,0.93,-25.52,-0.51,53.39,-1.00
9336.00,-7.34,-6.10,1.95,-0.04,-1.17,0.94,-25.52,-0.51,53.39,-1.00
9351.00,-7.48,-6.01,1.81,-0.07,-1.14,0.95,-25.52,-0.51,53.39,-1.00
9362.00,-7.48,-6.01,1.81,-0.07,-1.14,0.95,-25.52,-0.51,53.39,-1.00
9374.00,-7.54,-5.89,1.69,-0.07,-1.15,0.97,-25.52,-0.51,53.39,-1.00
9386.00,-7.54,-5.89,1.69,-0.07,-1.15,0.97,-25.52,-0.51,53.39,-1.00
9400.00,-7.53,-5.90,1.70,-0.07,-1.17,0.97,-25.52,-0.51,53.39,-1.00
9412.00,-7.68,-6.07,1.66,-0.08,-1.18,0.95,-25.80,-0.51,52.50,-1.00
9424.00,-7.68,-6.07,1.66,-0.08,-1.18,0.95,-25.80,-0.51,52.50,-1.00
9436.00,-7.52,-6.12,1.72,-0.05,-1.20,0.91,-25.80,-0.51,52.50,-1.00
9450.00,-7.46,-6.10,1.70,0.01,-1.21,0.88,-25.80,-0.51,52.50,-1.00
9462.00,-7.46,-6.10,1.70,0.01,-1.21,0.88,-25.80,-0.51,52.50,-1.00
9474.00,-7.32,-6.00,1.77,0.04,-1.23,0.91,-25.80,-0.51,52.50,-1.00
9486.00,-7.32,-6.00,1.77,0.04,-1.23,0.91,-25.80,-0.51,52.50,-1.00
9501.00,-7.29,-5.95,1.88,0.03,-1.23,0.92,-25.80,-0.51,52.50,-1.00
9512.00,-7.30,-6.38,1.91,-0.01,-1.18,0.88,-25.80,-0.51,52.50,-1.00
9524.00,-7.30,-6.38,1.91,-0.01,-1.18,0.88,-25.80,-0.51,52.50,-1.00
9536.00,-7.34,-6.39,1.81,-0.03,-1.11,0.88,-25.80,-0.51,52.50,-1.00
9550.00,-7.50,-6.12,1.62,-0.03,-1.08,0.91,-25.66,0.02,50.04,-1.00
9562.00,-7.50,-6.12,1.62,-0.03,-1.08,0.91,-25.66,0.02,50.04,-1.00
9574.00,-7.41,-5.93,1.68,-0.05,-1.10,0.93,-25.66,0.02,50.04,-1.00
9588.00,-7.66,-5.82,1.56,-0.09,-1.12,0.93,-25.66,0.02,50.04,-1.00
9600.00,-7.66,-5.82,1.56,-0.09,-1.12,0.93,-25.66,0.02,50.04,-1.00
9612.00,-7.85,-5.91,1.46,-0.11,-1.14,0.90,-25.66,0.02,50.04,-1.00
9624.00,-7.85,-5.91,1.46,-0.11,-1.14,0.90,-25.66,0.02,50.04,-1.00
9638.00,-7.75,-5.99,1.30,-0.12,-1.19,0.87,-25.66,0.02,50.04,-1.00
9650.00,-7.24,-6.43,1.50,-0.09,-1.27,0.86,-25.66,0.02,50.04,-1.00
9662.00,-7.24,-6.43,1.50,-0.09,-1.27,0.86,-25.66,0.02,50.04,-1.00
9674.00,-6.97,-6.60,1.75,-0.01,-1.31,0.88,-24.97,-1.59,52.05,-1.00
9688.00,-6.85,-6.46,1.78,0.03,-1.26,0.96,-24.97,-1.59,52.05,-1.00
9700.00,-6.85,-6.46,1.78,0.03,-1.26,0.96,-24.97,-1.59,52.05,-1.00
9712.00,-7.31,-6.24,1.69,0.03,-1.18,1.02,-24.97,-1.59,52.05,-1.00
9724.00,-7.31,-6.24,1.69,0.03,-1.18,1.02,-24.97,-1.59,52.05,-1.00
9738.00,-7.68,-6.10,1.53,0.02,-1.14,1.02,-24.97,-1.59,52.05,-1.00
9750.00,-7.62,-6.18,1.61,-0.01,-1.17,0.97,-24.97,-1.59,52.05,-1.00
9762.00,-7.62,-6.18,1.61,-0.01,-1.17,0.97,-24.97,-1.59,52.05,-1.00
9774.00,-7.24,-6.26,1.78,-0.02,-1.19,0.90,-24.97,-1.59,52.05,-1.00
9788.00,-7.24,-6.26,1.78,-0.02,-1.19,0.90,-24.97,-1.59,52.05,-1.00
9800.00,-7.25,-6.03,1.73,-0.03,-1.13,0.94,-24.55,-0.69,51.83,-1.00
9812.00,-7.13,-6.42,1.75,-0.02,-1.07,1.03,-24.55,-0.69,51.83,-1.00
9826.00,-7.13,-6.42,1.75,-0.02,-1.07,1.03,-24.55,-0.69,51.83,-1.00
9838.00,-7.26,-6.96,1.71,-0.08,-1.04,1.22,-24.55,-0.69,51.83,-1.00
9850.00,-7.42,-6.34,1.48,-0.09,-1.02,1.37,-24.55,-0.69,51.83,-1.00
9862.00,-7.42,-6.34,1.48,-0.09,-1.02,1.37,-24.55,-0.69,51.83,-1.00
9876.00,-8.53,-5.35,1.06,-0.05,-1.01,1.33,-24.55,-0.69,51.83,-1.00
9888.00,-8.53,-5.35,1.06,-0.05,-1.01,1.33,-24.55,-0.69,51.83,-1.00
9900.00,-7.89,-5.44,0.97,-0.07,-1.05,1.12,-24.55,-0.69,51.83,-1.00
9912.00,-7.81,-5.41,1.04,-0.08,-1.14,1.02,-25.80,-0.87,49.37,-1.00
9926.00,-7.81,-5.41,1.04,-0.08,-1.14,1.02,-25.80,-0.87,49.37,-1.00
9938.00,-7.74,-5.63,1.13,-0.10,-1.20,0.95,-25.80,-0.87,49.37,-1.00
9950.00,-7.61,-6.34,1.39,-0.12,-1.24,0.92,-25.80,-0.87,49.37,-1.00
9962.00,-7.61,-6.34,1.39,-0.12,-1.24,0.92,-25.80,-0.87,49.37,-1.00
9976.00,-7.52,-6.49,1.55,-0.09,-1.24,0.97,-25.80,-0.87,49.37,-1.00
9988.00,-7.52,-6.49,1.55,-0.09,-1.24,0.97,-25.80,-0.87,49.37,-1.00
10000.00,-7.60,-6.10,1.45,-0.06,-1.20,1.04,-25.80,-0.87,49.37,-1.00
10014.00,-7.69,-5.72,1.25,-0.07,-1.18,1.05,-25.80,-0.87,49.37,-1.00
10026.00,-7.69,-5.72,1.25,-0.07,-1.18,1.05,-25.80,-0.87,49.37,-1.00
10038.00,-7.76,-5.46,1.28,-0.07,-1.19,1.01,-25.80,-0.87,49.37,-1.00
10050.00,-7.76,-5.73,1.30,-0.09,-1.20,0.94,-26.08,-0.51,51.16,-1.00
10064.00,-7.76,-5.73,1.30,-0.09,-1.20,0.94,-26.08,-0.51,51.16,-1.00
10152.00,-7.75,-5.73,1.27,-0.04,-1.21,1.00,-26.08,-0.51,51.16,-1.00
10241.00,-7.72,-5.92,1.14,-0.08,-1.19,1.04,-26.08,-0.87,51.16,-1.00
10328.00,-8.05,-5.90,0.92,-0.15,-1.26,1.01,-26.78,-1.41,49.60,-1.00
10343.00,-7.67,-6.04,1.18,-0.15,-1.30,1.06,-26.78,-1.41,49.60,-1.00
10354.00,-7.60,-5.40,1.23,-0.09,-1.30,1.10,-26.78,-1.41,49.60,-1.00
10366.00,-7.60,-5.40,1.23,-0.09,-1.30,1.10,-26.78,-1.41,49.60,-1.00
10380.00,-7.66,-5.83,1.11,-0.03,-1.29,0.98,-26.78,-1.41,49.60,-1.00
10392.00,-7.87,-5.83,1.35,-0.04,-1.31,0.94,-26.78,-1.41,49.60,-1.00
10404.00,-7.87,-5.83,1.35,-0.04,-1.31,0.94,-26.78,-1.41,49.60,-1.00
10416.00,-7.81,-6.27,1.10,-0.12,-1.29,0.94,-26.08,-1.23,49.82,-1.00
10430.00,-7.75,-5.96,1.29,-0.14,-1.30,1.04,-26.08,-1.23,49.82,-1.00
10442.00,-7.75,-5.96,1.29,-0.14,-1.30,1.04,-26.08,-1.23,49.82,-1.00
10454.00,-7.76,-5.54,0.99,-0.12,-1.30,1.08,-26.08,-1.23,49.82,-1.00
10466.00,-7.76,-5.54,0.99,-0.12,-1.30,1.08,-26.08,-1.23,49.82,-1.00
10480.00,-7.92,-5.51,1.27,-0.08,-1.36,1.07,-26.08,-1.23,49.82,-1.00
10492.00,-8.13,-5.75,1.14,-0.11,-1.37,1.02,-26.08,-1.23,49.82,-1.00
10504.00,-8.13,-5.75,1.14,-0.11,-1.37,1.02,-26.08,-1.23,49.82,-1.00
10516.00,-7.67,-6.22,1.17,-0.15,-1.38,1.02,-26.08,-1.23,49.82,-1.00
10530.00,-7.74,-6.12,1.13,-0.12,-1.39,1.08,-26.08,-1.23,49.82,-1.00
10542.00,-7.74,-6.12,1.13,-0.12,-1.39,1.08,-26.08,-1.23,49.82,-1.00
10554.00,-7.64,-5.95,1.15,-0.04,-1.40,1.14,-26.78,-1.05,53.61,-1.00
10568.00,-7.64,-5.95,1.15,-0.04,-1.40,1.14,-26.78,-1.05,53.61,-1.00
10580.00,-7.83,-5.47,1.08,-0.05,-1.41,1.15,-26.78,-1.05,53.61,-1.00
10592.00,-8.16,-5.48,1.34,-0.09,-1.44,1.11,-26.78,-1.05,53.61,-1.00
10604.00,-8.16,-5.48,1.34,-0.09,-1.44,1.11,-26.78,-1.05,53.61,-1.00
10618.00,-7.78,-5.97,1.50,-0.11,-1.46,1.09,-26.78,-1.05,53.61,-1.00
10630.00,-7.76,-5.93,1.71,-0.08,-1.45,1.11,-26.78,-1.05,53.61,-1.00
10642.00,-7.76,-5.93,1.71,-0.08,-1.45,1.11,-26.78,-1.05,53.61,-1.00
10654.00,-7.91,-5.77,1.46,-0.04,-1.39,1.10,-26.78,-1.05,53.61,-1.00
10669.00,-7.91,-5.77,1.46,-0.04,-1.39,1.10,-26.78,-1.05,53.61,-1.00
10680.00,-7.97,-5.42,1.57,-0.01,-1.40,1.10,-26.08,-0.16,53.84,-1.00
10692.00,-8.00,-5.73,1.35,-0.02,-1.41,1.08,-26.08,-0.16,53.84,-1.00
10706.00,-8.00,-5.73,1.35,-0.02,-1.41,1.08,-26.08,-0.16,53.84,-1.00
10718.00,-7.76,-5.89,1.48,-0.04,-1.43,1.10,-26.08,-0.16,53.84,-1.00
10730.00,-7.66,-5.82,1.48,0.01,-1.45,1.14,-26.08,-0.16,53.84,-1.00
10742.00,-7.66,-5.82,1.48,0.01,-1.45,1.14,-26.08,-0.16,53.84,-1.00
10756.00,-7.66,-5.80,1.67,0.06,-1.42,1.11,-26.08,-0.16,53.84,-1.00
10768.00,-7.66,-5.80,1.67,0.06,-1.42,1.11,-26.08,-0.16,53.84,-1.00
10780.00,-7.90,-5.63,1.59,0.09,-1.35,1.09,-26.08,-0.16,53.84,-1.00
10792.00,-7.91,-5.33,1.36,0.09,-1.35,1.11,-25.80,-0.16,54.28,-1.00
10806.00,-7.91,-5.33,1.36,0.09,-1.35,1.11,-25.80,-0.16,54.28,-1.00
10818.00,-7.98,-5.40,1.44,0.11,-1.39,1.08,-25.80,-0.16,54.28,-1.00
10830.00,-7.90,-5.75,1.69,0.11,-1.40,1.06,-25.80,-0.16,54.28,-1.00
10842.00,-7.90,-5.75,1.69,0.11,-1.40,1.06,-25.80,-0.16,54.28,-1.00
10856.00,-7.98,-5.39,2.18,0.16,-1.40,1.13,-25.80,-0.16,54.28,-1.00
10868.00,-7.98,-5.39,2.18,0.16,-1.40,1.13,-25.80,-0.16,54.28,-1.00
10880.00,-7.93,-5.42,2.12,0.13,-1.35,1.07,-25.80,-0.16,54.28,-1.00
10894.00,-7.82,-5.53,1.62,0.09,-1.26,1.03,-25.80,-0.16,54.28,-1.00
10906.00,-7.82,-5.53,1.62,0.09,-1.26,1.03,-25.80,-0.16,54.28,-1.00
10918.00,-8.11,-5.31,2.03,0.14,-1.30,1.04,-25.80,-0.16,54.28,-1.00
10930.00,-7.89,-5.60,1.60,0.10,-1.24,1.00,-25.80,1.28,56.07,-1.00
10945.00,-7.89,-5.60,1.60,0.10,-1.24,1.00,-25.80,1.28,56.07,-1.00
10956.00,-8.00,-5.26,1.88,0.12,-1.24,1.02,-25.80,1.28,56.07,-1.00
10968.00,-8.00,-5.26,1.88,0.12,-1.24,1.02,-25.80,1.28,56.07,-1.00
10980.00,-7.94,-5.25,1.71,0.12,-1.23,0.97,-25.80,1.28,56.07,-1.00
10994.00,-8.00,-5.42,1.94,0.11,-1.25,0.94,-25.80,1.28,56.07,-1.00
11081.00,-7.87,-5.37,1.81,0.07,-1.22,0.89,-25.11,3.98,55.84,-1.00
11171.00,-8.14,-5.55,1.77,-0.02,-1.10,0.81,-25.94,0.74,55.40,-1.00
11259.00,-7.96,-5.68,1.38,-0.04,-1.06,0.82,-25.94,0.74,55.40,-1.00
11273.00,-7.68,-5.37,2.09,-0.04,-1.12,0.86,-25.94,0.74,55.40,-1.00
11286.00,-7.68,-5.37,2.09,-0.04,-1.12,0.86,-25.94,0.74,55.40,-1.00
11298.00,-7.94,-5.62,1.56,-0.07,-1.04,0.79,-25.11,1.82,53.61,-1.00
11310.00,-8.04,-5.47,1.60,-0.10,-1.04,0.82,-25.11,1.82,53.61,-1.00
11324.00,-8.04,-5.47,1.60,-0.10,-1.04,0.82,-25.11,1.82,53.61,-1.00
11336.00,-7.79,-5.41,1.66,-0.12,-1.07,0.85,-25.11,1.82,53.61,-1.00
11348.00,-7.79,-5.41,1.66,-0.12,-1.07,0.85,-25.11,1.82,53.61,-1.00
11362.00,-7.80,-5.61,1.41,-0.14,-1.07,0.80,-25.11,1.82,53.61,-1.00
11374.00,-7.79,-5.72,1.60,-0.10,-1.08,0.76,-25.11,1.82,53.61,-1.00
11386.00,-7.79,-5.72,1.60,-0.10,-1.08,0.76,-25.11,1.82,53.61,-1.00
11398.00,-7.97,-5.76,1.62,-0.09,-1.06,0.76,-25.11,1.82,53.61,-1.00
11413.00,-7.63,-5.85,1.64,-0.11,-1.05,0.79,-25.11,1.82,53.61,-1.00
11424.00,-7.63,-5.85,1.64,-0.11,-1.05,0.79,-25.11,1.82,53.61,-1.00
11436.00,-7.82,-5.85,1.37,-0.10,-1.05,0.82,-26.78,1.46,53.17,-1.00
11448.00,-7.82,-5.85,1.37,-0.10,-1.05,0.82,-26.78,1.46,53.17,-1.00
11462.00,-7.92,-5.61,1.21,-0.09,-1.05,0.85,-26.78,1.46,53.17,-1.00
11474.00,-7.82,-5.80,1.21,-0.06,-1.08,0.85,-26.78,1.46,53.17,-1.00
11486.00,-7.82,-5.80,1.21,-0.06,-1.08,0.85,-26.78,1.46,53.17,-1.00
11498.00,-7.79,-5.72,1.33,-0.02,-1.10,0.86,-26.78,1.46,53.17,-1.00
11512.00,-7.73,-6.04,1.21,-0.01,-1.10,0.84,-26.78,1.46,53.17,-1.00
11524.00,-7.73,-6.04,1.21,-0.01,-1.10,0.84,-26.78,1.46,53.17,-1.00
11536.00,-7.65,-5.78,1.68,-0.03,-1.10,0.86,-26.78,1.46,53.17,-1.00
11550.00,-7.65,-5.78,1.68,-0.03,-1.10,0.86,-26.78,1.46,53.17,-1.00
11562.00,-7.88,-5.71,1.15,-0.05,-1.07,0.85,-26.64,-1.23,52.05,-1.00
11574.00,-7.70,-5.87,1.28,-0.05,-1.10,0.85,-26.64,-1.23,52.05,-1.00
11586.00,-7.70,-5.87,1.28,-0.05,-1.10,0.85,-26.64,-1.23,52.05,-1.00
11601.00,-7.63,-5.94,1.42,-0.04,-1.13,0.85,-26.64,-1.23,52.05,-1.00
11612.00,-7.82,-6.00,1.15,-0.06,-1.09,0.85,-26.64,-1.23,52.05,-1.00
11624.00,-7.82,-6.00,1.15,-0.06,-1.09,0.85,-26.64,-1.23,52.05,-1.00
11636.00,-7.77,-5.85,1.12,-0.07,-1.09,0.89,-26.64,-1.23,52.05,-1.00
11650.00,-7.77,-5.85,1.12,-0.07,-1.09,0.89,-26.64,-1.23,52.05,-1.00
11662.00,-7.65,-5.78,1.24,-0.04,-1.11,0.89,-26.64,-1.23,52.05,-1.00
11674.00,-7.64,-5.93,1.15,-0.02,-1.12,0.86,-26.08,-0.87,51.16,-1.00
11688.00,-7.64,-5.93,1.15,-0.02,-1.12,0.86,-26.08,-0.87,51.16,-1.00
11700.00,-7.71,-6.06,1.27,-0.01,-1.12,0.84,-26.08,-0.87,51.16,-1.00
11712.00,-7.73,-6.12,0.99,-0.04,-1.09,0.86,-26.08,-0.87,51.16,-1.00
11724.00,-7.73,-6.12,0.99,-0.04,-1.09,0.86,-26.08,-0.87,51.16,-1.00
11738.00,-7.70,-5.92,1.31,-0.05,-1.12,0.90,-26.08,-0.87,51.16,-1.00
11750.00,-7.70,-5.92,1.31,-0.05,-1.12,0.90,-26.08,-0.87,51.16,-1.00
11762.00,-7.75,-5.97,0.99,-0.05,-1.10,0.91,-26.08,-0.87,51.16,-1.00
11774.00,-7.64,-5.80,1.37,-0.02,-1.14,0.92,-26.08,-0.87,51.16,-1.00
11788.00,-7.64,-5.80,1.37,-0.02,-1.14,0.92,-26.08,-0.87,51.16,-1.00
11800.00,-7.73,-5.95,1.01,-0.01,-1.11,0.87,-25.52,-1.95,48.48,-1.00
11812.00,-7.64,-5.77,1.26,-0.02,-1.09,0.86,-25.52,-1.95,48.48,-1.00
11824.00,-7.64,-5.77,1.26,-0.02,-1.09,0.86,-25.52,-1.95,48.48,-1.00
11838.00,-7.55,-6.28,0.87,-0.05,-1.08,0.84,-25.52,-1.95,48.48,-1.00
11850.00,-7.55,-6.28,0.87,-0.05,-1.08,0.84,-25.52,-1.95,48.48,-1.00
11862.00,-7.61,-6.04,0.93,-0.06,-1.11,0.88,-25.52,-1.95,48.48,-1.00
11877.00,-7.69,-6.06,0.66,-0.04,-1.12,0.90,-25.52,-1.95,48.48,-1.00
11888.00,-7.69,-6.06,0.66,-0.04,-1.12,0.90,-25.52,-1.95,48.48,-1.00
11900.00,-7.73,-6.00,1.10,-0.00,-1.18,0.92,-25.52,-1.95,48.48,-1.00
11912.00,-7.66,-6.27,0.86,-0.02,-1.18,0.92,-25.52,-1.95,48.48,-1.00
11926.00,-7.66,-6.27,0.86,-0.02,-1.18,0.92,-25.52,-1.95,48.48,-1.00
11938.00,-7.60,-6.09,0.91,-0.07,-1.15,0.93,-27.06,-3.93,50.04,-1.00
11950.00,-7.60,-6.09,0.91,-0.07,-1.15,0.93,-27.06,-3.93,50.04,-1.00
11962.00,-7.62,-6.02,0.87,-0.07,-1.13,0.91,-27.06,-3.93,50.04,-1.00
11976.00,-7.74,-5.90,0.65,-0.08,-1.14,0.91,-27.06,-3.93,50.04,-1.00
11988.00,-7.74,-5.90,0.65,-0.08,-1.14,0.91,-27.06,-3.93,50.04,-1.00
12000.00,-7.60,-6.18,0.70,-0.07,-1.20,0.90,-27.06,-3.93,50.04,-1.00
12014.00,-7.60,-6.04,0.65,-0.07,-1.20,0.92,-27.06,-3.93,50.04,-1.00
12026.00,-7.60,-6.04,0.65,-0.07,-1.20,0.92,-27.06,-3.93,50.04,-1.00
12038.00,-7.76,-6.11,1.03,-0.05,-1.21,0.90,-27.06,-3.93,50.04,-1.00
12050.00,-7.76,-6.11,1.03,-0.05,-1.21,0.90,-27.06,-3.93,50.04,-1.00
12064.00,-7.65,-6.11,0.67,-0.10,-1.16,0.92,-26.64,-2.31,49.82,-1.00
12076.00,-7.39,-6.05,0.77,-0.11,-1.20,0.93,-26.64,-2.31,49.82,-1.00
12088.00,-7.39,-6.05,0.77,-0.11,-1.20,0.93,-26.64,-2.31,49.82,-1.00
12100.00,-7.54,-6.37,0.99,-0.09,-1.23,0.89,-26.64,-2.31,49.82,-1.00
12114.00,-7.65,-6.18,0.91,-0.09,-1.20,0.93,-26.64,-2.31,49.82,-1.00
12126.00,-7.65,-6.18,0.91,-0.09,-1.20,0.93,-26.64,-2.31,49.82,-1.00
12138.00,-7.75,-5.91,0.76,-0.06,-1.18,0.95,-26.64,-2.31,49.82,-1.00
12152.00,-7.59,-6.05,0.64,-0.08,-1.19,0.94,-26.64,-2.31,49.82,-1.00
12164.00,-7.59,-6.05,0.64,-0.08,-1.19,0.94,-26.64,-2.31,49.82,-1.00
12176.00,-7.66,-6.06,0.84,-0.09,-1.22,0.92,-26.50,-3.57,49.60,-1.00
12188.00,-7.66,-6.06,0.84,-0.09,-1.22,0.92,-26.50,-3.57,49.60,-1.00
12202.00,-7.48,-6.27,0.42,-0.11,-1.21,0.92,-26.50,-3.57,49.60,-1.00
12214.00,-7.58,-6.42,0.96,-0.07,-1.25,0.93,-26.50,-3.57,49.60,-1.00
12226.00,-7.58,-6.42,0.96,-0.07,-1.25,0.93,-26.50,-3.57,49.60,-1.00
12238.00,-7.59,-6.10,0.67,-0.09,-1.20,0.97,-26.50,-3.57,49.60,-1.00
12252.00,-7.77,-5.87,0.71,-0.09,-1.18,0.97,-26.50,-3.57,49.60,-1.00
12264.00,-7.77,-5.87,0.71,-0.09,-1.18,0.97,-26.50,-3.57,49.60,-1.00
12276.00,-7.54,-6.18,0.58,-0.11,-1.17,0.94,-26.50,-3.57,49.60,-1.00
12288.00,-7.54,-6.18,0.58,-0.11,-1.17,0.94,-26.50,-3.57,49.60,-1.00
12303.00,-7.51,-6.12,0.65,-0.12,-1.20,0.96,-25.80,-4.11,48.93,-1.00
12314.00,-7.71,-6.11,0.65,-0.08,-1.21,0.95,-25.80,-4.11,48.93,-1.00
12326.00,-7.71,-6.11,0.65,-0.08,-1.21,0.95,-25.80,-4.11,48.93,-1.00
12340.00,-7.67,-5.92,0.75,-0.09,-1.22,0.96,-25.80,-4.11,48.93,-1.00
12352.00,-7.60,-6.30,0.56,-0.12,-1.21,0.93,-25.80,-4.11,48.93,-1.00
12364.00,-7.60,-6.30,0.56,-0.12,-1.21,0.93,-25.80,-4.11,48.93,-1.00
12376.00,-7.54,-6.15,0.74,-0.12,-1.25,0.97,-25.80,-4.11,48.93,-1.00
12390.00,-7.54,-6.15,0.74,-0.12,-1.25,0.97,-25.80,-4.11,48.93,-1.00
12402.00,-7.69,-6.05,0.76,-0.08,-1.25,0.97,-25.80,-4.11,48.93,-1.00
12414.00,-7.67,-6.07,0.54,-0.09,-1.22,0.96,-25.80,-4.11,48.93,-1.00
12426.00,-7.67,-6.07,0.54,-0.09,-1.22,0.96,-25.80,-4.11,48.93,-1.00
12440.00,-7.55,-6.17,0.69,-0.11,-1.23,0.96,-26.50,-5.01,47.81,-1.00
12453.00,-7.54,-6.36,0.50,-0.12,-1.25,0.96,-26.50,-5.01,47.81,-1.00
12464.00,-7.54,-6.36,0.50,-0.12,-1.25,0.96,-26.50,-5.01,47.81,-1.00
12478.00,-7.67,-6.22,0.50,-0.12,-1.27,0.98,-26.50,-5.01,47.81,-1.00
12490.00,-7.67,-6.22,0.50,-0.12,-1.27,0.98,-26.50,-5.01,47.81,-1.00
12502.00,-7.57,-6.15,0.87,-0.13,-1.26,1.00,-26.50,-5.01,47.81,-1.00
12514.00,-7.78,-6.04,0.41,-0.14,-1.23,0.99,-26.50,-5.01,47.81,-1.00
12528.00,-7.78,-6.04,0.41,-0.14,-1.23,0.99,-26.50,-5.01,47.81,-1.00
12540.00,-7.53,-5.93,0.68,-0.17,-1.23,0.98,-26.50,-5.01,47.81,-1.00
12552.00,-7.54,-6.01,0.01,-0.21,-1.24,0.97,-27.20,-4.11,48.93,-1.00
12564.00,-7.54,-6.01,0.01,-0.21,-1.24,0.97,-27.20,-4.11,48.93,-1.00
12579.00,-7.60,-6.26,0.81,-0.16,-1.33,0.98,-27.20,-4.11,48.93,-1.00
12590.00,-7.60,-6.26,0.81,-0.16,-1.33,0.98,-27.20,-4.11,48.93,-1.00
12602.00,-7.53,-6.51,0.26,-0.13,-1.31,0.98,-27.20,-4.11,48.93,-1.00
12614.00,-7.59,-6.01,0.42,-0.11,-1.33,1.06,-27.20,-4.11,48.93,-1.00
12628.00,-7.59,-6.01,0.42,-0.11,-1.33,1.06,-27.20,-4.11,48.93,-1.00
12640.00,-7.49,-6.17,0.36,-0.09,-1.37,1.05,-27.20,-4.11,48.93,-1.00
12652.00,-7.70,-6.06,0.96,-0.04,-1.38,1.03,-27.20,-4.11,48.93,-1.00
12666.00,-7.70,-6.06,0.96,-0.04,-1.38,1.03,-27.20,-4.11,48.93,-1.00
12755.00,-7.71,-6.03,0.55,-0.10,-1.32,1.01,-26.78,-5.37,48.70,-1.00
12842.00,-7.64,-6.27,1.08,0.03,-1.39,1.06,-26.50,-4.29,51.83,-1.00
12932.00,-7.83,-5.62,0.92,0.14,-1.50,1.13,-26.50,-4.29,51.83,-1.00
12945.00,-7.66,-5.77,0.76,0.13,-1.44,1.06,-25.80,-3.39,51.60,-1.00
12957.00,-7.86,-5.70,1.06,0.12,-1.40,1.01,-25.80,-3.39,51.60,-1.00
12969.00,-7.86,-5.70,1.06,0.12,-1.40,1.01,-25.80,-3.39,51.60,-1.00
12981.00,-7.65,-6.16,0.75,0.10,-1.36,0.97,-25.80,-3.39,51.60,-1.00
12995.00,-7.60,-6.32,0.84,0.14,-1.36,0.98,-25.80,-3.39,51.60,-1.00
13007.00,-7.60,-6.32,0.84,0.14,-1.36,0.98,-25.80,-3.39,51.60,-1.00
13019.00,-7.31,-6.27,1.02,0.19,-1.37,1.02,-25.80,-3.39,51.60,-1.00
13033.00,-7.60,-6.02,1.12,0.20,-1.36,1.01,-25.80,-3.39,51.60,-1.00
13045.00,-7.60,-6.02,1.12,0.20,-1.36,1.01,-25.80,-3.39,51.60,-1.00
13057.00,-7.85,-5.76,1.16,0.16,-1.29,0.98,-25.94,-2.13,53.17,-1.00
13069.00,-7.85,-5.76,1.16,0.16,-1.29,0.98,-25.94,-2.13,53.17,-1.00
13083.00,-7.83,-5.83,1.35,0.10,-1.27,0.94,-25.94,-2.13,53.17,-1.00
13095.00,-7.66,-5.92,0.96,0.06,-1.22,0.93,-25.94,-2.13,53.17,-1.00
13107.00,-7.66,-5.92,0.96,0.06,-1.22,0.93,-25.94,-2.13,53.17,-1.00
13119.00,-7.82,-5.83,1.19,0.06,-1.22,0.93,-25.94,-2.13,53.17,-1.00
13133.00,-7.66,-5.81,1.10,0.10,-1.19,0.92,-25.94,-2.13,53.17,-1.00
13145.00,-7.66,-5.81,1.10,0.10,-1.19,0.92,-25.94,-2.13,53.17,-1.00
13157.00,-7.93,-5.92,1.15,0.13,-1.18,0.90,-25.94,-2.13,53.17,-1.00
13169.00,-7.93,-5.92,1.15,0.13,-1.18,0.90,-25.94,-2.13,53.17,-1.00
13183.00,-7.82,-5.81,1.02,0.08,-1.17,0.90,-25.25,-1.95,53.84,-1.00
13195.00,-7.68,-5.83,1.36,0.06,-1.17,0.89,-25.25,-1.95,53.84,-1.00
13207.00,-7.68,-5.83,1.36,0.06,-1.17,0.89,-25.25,-1.95,53.84,-1.00
13219.00,-7.74,-5.90,0.87,0.05,-1.10,0.86,-25.25,-1.95,53.84,-1.00
13234.00,-7.70,-5.90,1.12,0.06,-1.11,0.87,-25.25,-1.95,53.84,-1.00
13245.00,-7.70,-5.90,1.12,0.06,-1.11,0.87,-25.25,-1.95,53.84,-1.00
13257.00,-7.76,-5.78,0.98,0.03,-1.13,0.89,-25.25,-1.95,53.84,-1.00
13271.00,-7.76,-5.78,0.98,0.03,-1.13,0.89,-25.25,-1.95,53.84,-1.00
13283.00,-7.85,-5.89,0.97,0.01,-1.15,0.89,-25.25,-1.95,53.84,-1.00
13295.00,-7.71,-5.81,1.26,0.00,-1.16,0.89,-25.25,-1.95,53.84,-1.00
13307.00,-7.71,-5.81,1.26,0.00,-1.16,0.89,-25.25,-1.95,53.84,-1.00
13321.00,-7.77,-5.87,1.13,0.02,-1.12,0.87,-24.41,-3.39,52.50,-1.00
13333.00,-7.78,-6.03,0.94,-0.02,-1.10,0.86,-24.41,-3.39,52.50,-1.00
13345.00,-7.78,-6.03,0.94,-0.02,-1.10,0.86,-24.41,-3.39,52.50,-1.00
13357.00,-7.69,-5.96,1.09,-0.03,-1.09,0.88,-24.41,-3.39,52.50,-1.00
13372.00,-7.69,-5.96,1.09,-0.03,-1.09,0.88,-24.41,-3.39,52.50,-1.00
13384.00,-7.74,-5.98,0.92,-0.03,-1.09,0.87,-24.41,-3.39,52.50,-1.00
13396.00,-7.91,-5.96,1.12,-0.00,-1.11,0.86,-24.41,-3.39,52.50,-1.00
13410.00,-7.91,-5.96,1.12,-0.00,-1.11,0.86,-24.41,-3.39,52.50,-1.00
13422.00,-7.87,-5.93,0.87,-0.03,-1.08,0.86,-24.41,-3.39,52.50,-1.00
13434.00,-7.74,-5.99,1.01,-0.04,-1.10,0.88,-25.80,-1.95,52.50,-1.00
13446.00,-7.74,-5.99,1.01,-0.04,-1.10,0.88,-25.80,-1.95,52.50,-1.00
13460.00,-7.83,-6.01,0.66,-0.03,-1.11,0.89,-25.80,-1.95,52.50,-1.00
13472.00,-7.83,-6.01,0.66,-0.03,-1.11,0.89,-25.80,-1.95,52.50,-1.00
13484.00,-7.59,-5.80,1.27,-0.01,-1.15,0.91,-25.80,-1.95,52.50,-1.00
13497.00,-7.72,-6.18,0.63,0.00,-1.10,0.87,-25.80,-1.95,52.50,-1.00
13511.00,-7.72,-6.18,0.63,0.00,-1.10,0.87,-25.80,-1.95,52.50,-1.00
13523.00,-7.64,-5.85,1.29,-0.02,-1.14,0.89,-25.80,-1.95,52.50,-1.00
13535.00,-7.60,-6.14,0.55,-0.06,-1.06,0.85,-25.80,-1.95,52.50,-1.00
13547.00,-7.60,-6.14,0.55,-0.06,-1.06,0.85,-25.80,-1.95,52.50,-1.00
13561.00,-7.61,-6.17,0.50,-0.06,-1.09,0.85,-26.78,-4.65,51.38,-1.00
13649.00,-7.66,-5.96,0.48,-0.03,-1.11,0.88,-26.78,-4.65,51.38,-1.00
13737.00,-7.54,-6.08,0.82,-0.03,-1.09,0.90,-25.66,-3.21,52.27,-1.00
13751.00,-7.54,-6.08,0.82,-0.03,-1.09,0.90,-25.66,-3.21,52.27,-1.00
13763.00,-7.75,-6.21,0.39,-0.04,-1.09,0.89,-25.66,-3.21,52.27,-1.00
13775.00,-7.59,-5.96,0.77,-0.03,-1.18,0.93,-25.66,-3.21,52.27,-1.00
13787.00,-7.59,-5.96,0.77,-0.03,-1.18,0.93,-25.66,-3.21,52.27,-1.00
13801.00,-7.73,-6.27,0.85,0.00,-1.18,0.89,-25.66,-3.21,52.27,-1.00
13813.00,-7.60,-6.20,0.59,-0.02,-1.14,0.92,-25.52,-3.03,50.26,-1.00
13825.00,-7.60,-6.20,0.59,-0.02,-1.14,0.92,-25.52,-3.03,50.26,-1.00
13837.00,-7.46,-6.45,0.70,0.01,-1.18,0.92,-25.52,-3.03,50.26,-1.00
13852.00,-7.46,-6.45,0.70,0.01,-1.18,0.92,-25.52,-3.03,50.26,-1.00
13863.00,-7.53,-6.32,0.66,-0.01,-1.17,0.94,-25.52,-3.03,50.26,-1.00
13875.00,-7.58,-6.12,0.90,0.00,-1.19,0.95,-25.52,-3.03,50.26,-1.00
13887.00,-7.58,-6.12,0.90,0.00,-1.19,0.95,-25.52,-3.03,50.26,-1.00
13901.00,-7.53,-6.24,0.45,-0.01,-1.16,0.94,-25.52,-3.03,50.26,-1.00
13913.00,-7.66,-6.16,0.91,-0.00,-1.22,0.95,-25.52,-3.03,50.26,-1.00
13925.00,-7.66,-6.16,0.91,-0.00,-1.22,0.95,-25.52,-3.03,50.26,-1.00
13939.00,-7.57,-6.22,0.95,-0.01,-1.19,0.94,-26.50,-5.73,50.49,-1.00
13951.00,-7.57,-6.22,0.95,-0.01,-1.19,0.94,-26.50,-5.73,50.49,-1.00
13963.00,-7.53,-6.11,0.28,-0.02,-1.13,0.96,-26.50,-5.73,50.49,-1.00
13975.00,-7.52,-6.16,0.87,0.00,-1.19,0.94,-26.50,-5.73,50.49,-1.00
13989.00,-7.52,-6.16,0.87,0.00,-1.19,0.94,-26.50,-5.73,50.49,-1.00
14001.00,-7.63,-6.21,0.33,-0.02,-1.14,0.92,-26.50,-5.73,50.49,-1.00
14013.00,-7.65,-6.03,0.71,-0.01,-1.18,0.95,-26.50,-5.73,50.49,-1.00
14025.00,-7.65,-6.03,0.71,-0.01,-1.18,0.95,-26.50,-5.73,50.49,-1.00
14039.00,-7.55,-5.97,0.39,-0.01,-1.16,0.94,-26.50,-5.73,50.49,-1.00
14051.00,-7.55,-5.97,0.39,-0.01,-1.16,0.94,-26.50,-5.73,50.49,-1.00
14063.00,-7.61,-6.37,0.37,0.01,-1.20,0.91,-25.38,-5.37,50.04,-1.00
14077.00,-7.57,-6.30,0.59,0.00,-1.23,0.94,-25.38,-5.37,50.04,-1.00
14089.00,-7.57,-6.30,0.59,0.00,-1.23,0.94,-25.38,-5.37,50.04,-1.00
14101.00,-7.48,-6.15,0.91,-0.00,-1.22,0.95,-25.38,-5.37,50.04,-1.00
14113.00,-7.48,-6.15,0.91,-0.00,-1.22,0.95,-25.38,-5.37,50.04,-1.00
14128.00,-7.51,-6.35,0.64,-0.01,-1.18,0.93,-25.38,-5.37,50.04,-1.00
14139.00,-7.58,-6.05,0.56,-0.02,-1.16,0.94,-25.38,-5.37,50.04,-1.00
14151.00,-7.58,-6.05,0.56,-0.02,-1.16,0.94,-25.38,-5.37,50.04,-1.00
14163.00,-7.66,-6.05,0.78,-0.01,-1.20,0.94,-25.38,-5.37,50.04,-1.00
14177.00,-7.56,-6.06,0.58,-0.03,-1.20,0.94,-26.08,-5.55,51.60,-1.00
14189.00,-7.56,-6.06,0.58,-0.03,-1.20,0.94,-26.08,-5.55,51.60,-1.00
14201.00,-7.64,-6.13,0.72,-0.01,-1.22,0.93,-26.08,-5.55,51.60,-1.00
14213.00,-7.64,-6.13,0.72,-0.01,-1.22,0.93,-26.08,-5.55,51.60,-1.00
14227.00,-7.56,-6.36,0.66,-0.01,-1.21,0.93,-26.08,-5.55,51.60,-1.00
14239.00,-7.47,-6.37,0.47,-0.03,-1.18,0.95,-26.08,-5.55,51.60,-1.00
14251.00,-7.47,-6.37,0.47,-0.03,-1.18,0.95,-26.08,-5.55,51.60,-1.00
14265.00,-7.42,-6.22,0.45,-0.03,-1.21,0.96,-26.08,-5.55,51.60,-1.00
14277.00,-7.48,-6.32,0.78,-0.02,-1.23,0.93,-26.08,-5.55,51.60,-1.00
14289.00,-7.48,-6.32,0.78,-0.02,-1.23,0.93,-26.08,-5.55,51.60,-1.00
14301.00,-7.68,-6.02,0.78,-0.03,-1.18,0.92,-26.08,-5.55,51.60,-1.00
14315.00,-7.67,-6.19,0.57,-0.05,-1.15,0.91,-27.06,-5.37,50.04,-1.00
14327.00,-7.67,-6.19,0.57,-0.05,-1.15,0.91,-27.06,-5.37,50.04,-1.00
14339.00,-7.57,-6.25,0.36,-0.06,-1.15,0.93,-27.06,-5.37,50.04,-1.00
14351.00,-7.57,-6.25,0.36,-0.06,-1.15,0.93,-27.06,-5.37,50.04,-1.00
14365.00,-7.40,-6.29,0.25,-0.05,-1.18,0.94,-27.06,-5.37,50.04,-1.00
14377.00,-7.55,-6.32,0.62,-0.02,-1.24,0.93,-27.06,-5.37,50.04,-1.00
14389.00,-7.55,-6.32,0.62,-0.02,-1.24,0.93,-27.06,-5.37,50.04,-1.00
14404.00,-7.47,-6.43,0.58,-0.02,-1.23,0.93,-27.06,-5.37,50.04,-1.00
14415.00,-7.69,-6.02,0.68,-0.02,-1.18,0.97,-27.06,-5.37,50.04,-1.00
14427.00,-7.69,-6.02,0.68,-0.02,-1.18,0.97,-27.06,-5.37,50.04,-1.00
14439.00,-7.61,-6.00,0.46,-0.04,-1.19,0.95,-25.52,-6.26,50.71,-1.00
14453.00,-7.61,-6.00,0.46,-0.04,-1.19,0.95,-25.52,-6.26,50.71,-1.00
14465.00,-7.45,-6.34,0.57,-0.05,-1.22,0.92,-25.52,-6.26,50.71,-1.00
14477.00,-7.56,-6.33,0.45,-0.05,-1.21,0.94,-25.52,-6.26,50.71,-1.00
14489.00,-7.56,-6.33,0.45,-0.05,-1.21,0.94,-25.52,-6.26,50.71,-1.00
14503.00,-7.62,-6.24,0.41,-0.03,-1.21,0.96,-25.52,-6.26,50.71,-1.00
14515.00,-7.60,-6.10,0.65,-0.04,-1.21,0.97,-25.52,-6.26,50.71,-1.00
14527.00,-7.60,-6.10,0.65,-0.04,-1.21,0.97,-25.52,-6.26,50.71,-1.00
14541.00,-7.58,-6.24,0.50,-0.06,-1.20,0.94,-25.52,-6.26,50.71,-1.00
14553.00,-7.58,-6.24,0.50,-0.06,-1.20,0.94,-25.52,-6.26,50.71,-1.00
14565.00,-7.44,-6.40,0.42,-0.06,-1.21,0.93,-27.76,-5.91,48.48,-1.00
14577.00,-7.52,-6.22,0.63,-0.07,-1.20,0.94,-27.76,-5.91,48.48,-1.00
14591.00,-7.52,-6.22,0.63,-0.07,-1.20,0.94,-27.76,-5.91,48.48,-1.00
14603.00,-7.67,-6.18,0.25,-0.08,-1.16,0.93,-27.76,-5.91,48.48,-1.00
14615.00,-7.49,-6.34,0.52,-0.08,-1.20,0.94,-27.76,-5.91,48.48,-1.00
14627.00,-7.49,-6.34,0.52,-0.08,-1.20,0.94,-27.76,-5.91,48.48,-1.00
14641.00,-7.41,-6.25,0.55,-0.10,-1.20,0.95,-27.76,-5.91,48.48,-1.00
14653.00,-7.41,-6.25,0.55,-0.10,-1.20,0.95,-27.76,-5.91,48.48,-1.00
14665.00,-7.34,-6.44,0.33,-0.10,-1.18,0.91,-27.76,-5.91,48.48,-1.00
14677.00,-7.51,-6.41,0.41,-0.10,-1.18,0.91,-24.69,-6.26,50.26,-1.00
14691.00,-7.51,-6.41,0.41,-0.10,-1.18,0.91,-24.69,-6.26,50.26,-1.00
14703.00,-7.52,-6.12,0.19,-0.12,-1.15,0.94,-24.69,-6.26,50.26,-1.00
14715.00,-7.55,-6.23,0.20,-0.13,-1.17,0.93,-24.69,-6.26,50.26,-1.00
14729.00,-7.55,-6.23,0.20,-0.13,-1.17,0.93,-24.69,-6.26,50.26,-1.00
14741.00,-7.51,-6.31,0.35,-0.12,-1.22,0.94,-24.69,-6.26,50.26,-1.00
14753.00,-7.51,-6.31,0.35,-0.12,-1.22,0.94,-24.69,-6.26,50.26,-1.00
14765.00,-7.65,-6.42,0.25,-0.11,-1.22,0.93,-24.69,-6.26,50.26,-1.00
14779.00,-7.41,-6.25,0.32,-0.11,-1.22,0.98,-24.69,-6.26,50.26,-1.00
14791.00,-7.41,-6.25,0.32,-0.11,-1.22,0.98,-24.69,-6.26,50.26,-1.00
14803.00,-7.51,-6.24,0.29,-0.10,-1.23,0.98,-24.69,-6.26,50.26,-1.00
14815.00,-7.53,-6.17,0.22,-0.11,-1.23,0.99,-26.22,-7.88,50.04,-1.00
14830.00,-7.53,-6.17,0.22,-0.11,-1.23,0.99,-26.22,-7.88,50.04,-1.00
14841.00,-7.47,-6.14,0.26,-0.10,-1.25,1.00,-26.22,-7.88,50.04,-1.00
14853.00,-7.47,-6.14,0.26,-0.10,-1.25,1.00,-26.22,-7.88,50.04,-1.00
14868.00,-7.55,-6.23,0.36,-0.09,-1.25,0.96,-26.22,-7.88,50.04,-1.00
14879.00,-7.69,-6.36,0.30,-0.11,-1.24,0.97,-26.22,-7.88,50.04,-1.00
14891.00,-7.69,-6.36,0.30,-0.11,-1.24,0.97,-26.22,-7.88,50.04,-1.00
14903.00,-7.67,-6.37,0.41,-0.12,-1.25,1.01,-26.22,-7.88,50.04,-1.00
14917.00,-7.53,-6.23,-0.13,-0.12,-1.24,1.04,-26.22,-7.88,50.04,-1.00
14929.00,-7.53,-6.23,-0.13,-0.12,-1.24,1.04,-26.22,-7.88,50.04,-1.00
14941.00,-7.39,-6.21,0.28,-0.11,-1.30,1.04,-27.76,-8.42,49.82,-1.00
14953.00,-7.39,-6.21,0.28,-0.11,-1.30,1.04,-27.76,-8.42,49.82,-1.00
14967.00,-7.74,-6.20,0.33,-0.11,-1.31,1.01,-27.76,-8.42,49.82,-1.00
14979.00,-7.68,-6.45,0.08,-0.17,-1.30,1.01,-27.76,-8.42,49.82,-1.00
14991.00,-7.68,-6.45,0.08,-0.17,-1.30,1.01,-27.76,-8.42,49.82,-1.00
15003.00,-7.54,-6.29,0.25,-0.15,-1.34,1.06,-27.76,-8.42,49.82,-1.00
15018.00,-7.52,-6.39,0.31,-0.11,-1.35,1.08,-27.76,-8.42,49.82,-1.00
15029.00,-7.52,-6.39,0.31,-0.11,-1.35,1.08,-27.76,-8.42,49.82,-1.00
15041.00,-7.56,-6.32,0.48,-0.09,-1.36,1.10,-27.76,-8.42,49.82,-1.00
15055.00,-7.58,-6.02,0.46,-0.07,-1.35,1.12,-27.76,-6.98,51.60,-1.00
15067.00,-7.58,-6.02,0.46,-0.07,-1.35,1.12,-27.76,-6.98,51.60,-1.00
15079.00,-7.56,-6.03,0.40,-0.07,-1.35,1.07,-27.76,-6.98,51.60,-1.00
15091.00,-7.56,-6.03,0.40,-0.07,-1.35,1.07,-27.76,-6.98,51.60,-1.00
15105.00,-7.48,-6.04,0.42,-0.08,-1.31,1.02,-27.76,-6.98,51.60,-1.00
15117.00,-7.69,-6.20,0.18,-0.10,-1.33,0.99,-27.76,-6.98,51.60,-1.00
15129.00,-7.69,-6.20,0.18,-0.10,-1.33,0.99,-27.76,-6.98,51.60,-1.00
15141.00,-7.75,-6.27,0.27,-0.09,-1.34,1.00,-27.76,-6.98,51.60,-1.00
15155.00,-7.59,-6.44,0.29,-0.06,-1.33,1.01,-27.76,-6.98,51.60,-1.00
15243.00,-7.55,-6.36,0.32,0.00,-1.32,1.03,-26.78,-7.88,51.83,-1.00
15333.00,-7.67,-6.09,0.45,0.01,-1.32,1.00,-26.78,-6.44,51.38,-1.00
15346.00,-7.79,-6.28,0.37,0.02,-1.31,0.97,-26.78,-6.44,51.38,-1.00
15358.00,-7.72,-6.16,0.06,-0.00,-1.28,1.01,-26.78,-6.44,51.38,-1.00
15370.00,-7.72,-6.16,0.06,-0.00,-1.28,1.01,-26.78,-6.44,51.38,-1.00
15382.00,-7.58,-6.08,0.54,0.02,-1.32,1.02,-26.78,-6.44,51.38,-1.00
15396.00,-7.61,-5.97,0.49,0.02,-1.25,0.97,-26.78,-6.44,51.38,-1.00
15408.00,-7.61,-5.97,0.49,0.02,-1.25,0.97,-26.78,-6.44,51.38,-1.00
15420.00,-7.70,-6.17,0.19,0.04,-1.22,0.93,-26.78,-6.44,51.38,-1.00
15432.00,-7.70,-6.17,0.19,0.04,-1.22,0.93,-26.78,-6.44,51.38,-1.00
15447.00,-7.83,-6.02,0.39,0.05,-1.25,0.96,-26.50,-6.80,51.83,-1.00
15458.00,-7.63,-5.91,0.19,0.03,-1.27,0.97,-26.50,-6.80,51.83,-1.00
15470.00,-7.63,-5.91,0.19,0.03,-1.27,0.97,-26.50,-6.80,51.83,-1.00
15482.00,-7.50,-6.38,0.65,0.08,-1.34,0.95,-26.50,-6.80,51.83,-1.00
15496.00,-7.65,-6.46,0.55,0.08,-1.26,0.96,-26.50,-6.80,51.83,-1.00
15508.00,-7.65,-6.46,0.55,0.08,-1.26,0.96,-26.50,-6.80,51.83,-1.00
15520.00,-7.62,-5.97,0.45,0.07,-1.21,1.01,-26.50,-6.80,51.83,-1.00
15534.00,-7.62,-5.97,0.45,0.07,-1.21,1.01,-26.50,-6.80,51.83,-1.00
15546.00,-7.62,-5.81,0.41,0.06,-1.20,0.97,-26.50,-6.80,51.83,-1.00
15558.00,-7.68,-5.98,0.30,0.07,-1.20,0.92,-26.08,-6.26,50.71,-1.00
15570.00,-7.68,-5.98,0.30,0.07,-1.20,0.92,-26.08,-6.26,50.71,-1.00
15584.00,-7.73,-6.26,0.47,0.09,-1.24,0.90,-26.08,-6.26,50.71,-1.00
15596.00,-7.62,-6.23,0.40,0.07,-1.23,0.93,-26.08,-6.26,50.71,-1.00
15608.00,-7.62,-6.23,0.40,0.07,-1.23,0.93,-26.08,-6.26,50.71,-1.00
15620.00,-7.71,-5.86,0.73,0.09,-1.22,0.95,-26.08,-6.26,50.71,-1.00
15635.00,-7.71,-5.86,0.73,0.09,-1.22,0.95,-26.08,-6.26,50.71,-1.00
15646.00,-7.66,-5.87,0.47,0.07,-1.19,0.92,-26.08,-6.26,50.71,-1.00
15658.00,-7.82,-6.17,0.59,0.05,-1.19,0.87,-26.08,-6.26,50.71,-1.00
15670.00,-7.82,-6.17,0.59,0.05,-1.19,0.87,-26.08,-6.26,50.71,-1.00
15684.00,-7.84,-6.06,0.46,0.02,-1.17,0.91,-26.08,-6.26,50.71,-1.00
15696.00,-7.66,-5.92,0.58,0.02,-1.17,0.94,-26.92,-6.26,52.05,-1.00
15708.00,-7.66,-5.92,0.58,0.02,-1.17,0.94,-26.92,-6.26,52.05,-1.00
15722.00,-7.77,-6.08,0.46,0.05,-1.15,0.91,-26.92,-6.26,52.05,-1.00
15734.00,-7.77,-6.08,0.46,0.05,-1.15,0.91,-26.92,-6.26,52.05,-1.00
15746.00,-7.63,-6.05,0.40,0.05,-1.14,0.92,-26.92,-6.26,52.05,-1.00
15758.00,-7.69,-5.93,0.59,0.06,-1.15,0.90,-26.92,-6.26,52.05,-1.00
15772.00,-7.69,-5.93,0.59,0.06,-1.15,0.90,-26.92,-6.26,52.05,-1.00
15784.00,-7.67,-6.00,0.72,0.04,-1.13,0.86,-26.92,-6.26,52.05,-1.00
15796.00,-7.82,-5.94,0.27,0.02,-1.08,0.86,-26.92,-6.26,52.05,-1.00
15808.00,-7.82,-5.94,0.27,0.02,-1.08,0.86,-26.92,-6.26,52.05,-1.00
15822.00,-7.76,-6.01,0.33,-0.00,-1.12,0.89,-26.78,-6.09,51.38,-1.00
15834.00,-7.76,-6.01,0.33,-0.00,-1.12,0.89,-26.78,-6.09,51.38,-1.00
15846.00,-7.71,-6.12,0.53,0.00,-1.16,0.89,-26.78,-6.09,51.38,-1.00
15858.00,-7.59,-6.16,0.46,-0.02,-1.13,0.88,-26.78,-6.09,51.38,-1.00
15872.00,-7.59,-6.16,0.46,-0.02,-1.13,0.88,-26.78,-6.09,51.38,-1.00
15884.00,-7.71,-6.22,0.29,0.00,-1.12,0.86,-26.78,-6.09,51.38,-1.00
15896.00,-7.69,-6.17,0.21,-0.02,-1.09,0.87,-26.78,-6.09,51.38,-1.00
15911.00,-7.69,-6.17,0.21,-0.02,-1.09,0.87,-26.78,-6.09,51.38,-1.00
15922.00,-7.49,-6.20,0.27,-0.03,-1.10,0.87,-26.78,-6.09,51.38,-1.00
15934.00,-7.49,-6.20,0.27,-0.03,-1.10,0.87,-26.78,-6.09,51.38,-1.00
15946.00,-7.67,-6.29,0.14,-0.01,-1.11,0.85,-26.92,-7.70,51.16,-1.00
15960.00,-7.66,-6.21,0.23,-0.01,-1.15,0.88,-26.92,-7.70,51.16,-1.00
15972.00,-7.66,-6.21,0.23,-0.01,-1.15,0.88,-26.92,-7.70,51.16,-1.00
15984.00,-7.56,-6.43,0.06,0.00,-1.16,0.89,-26.92,-7.70,51.16,-1.00
15996.00,-7.48,-6.45,0.26,-0.00,-1.16,0.90,-26.92,-7.70,51.16,-1.00
16010.00,-7.48,-6.45,0.26,-0.00,-1.16,0.90,-26.92,-7.70,51.16,-1.00
16022.00,-7.42,-6.11,0.36,-0.01,-1.14,0.90,-26.92,-7.70,51.16,-1.00
16034.00,-7.42,-6.11,0.36,-0.01,-1.14,0.90,-26.92,-7.70,51.16,-1.00
16046.00,-7.60,-6.07,0.17,-0.02,-1.12,0.87,-26.92,-7.70,51.16,-1.00
16061.00,-7.63,-6.30,0.45,-0.01,-1.16,0.84,-27.48,-8.06,49.37,-1.00
16072.00,-7.63,-6.30,0.45,-0.01,-1.16,0.84,-27.48,-8.06,49.37,-1.00
16084.00,-7.56,-6.34,0.22,-0.03,-1.13,0.86,-27.48,-8.06,49.37,-1.00
16098.00,-7.65,-6.26,0.34,-0.02,-1.15,0.89,-27.48,-8.06,49.37,-1.00
16110.00,-7.65,-6.26,0.34,-0.02,-1.15,0.89,-27.48,-8.06,49.37,-1.00
16122.00,-7.55,-6.18,0.11,-0.03,-1.14,0.92,-27.48,-8.06,49.37,-1.00
16134.00,-7.55,-6.18,0.11,-0.03,-1.14,0.92,-27.48,-8.06,49.37,-1.00
16148.00,-7.39,-6.18,0.47,-0.01,-1.16,0.91,-27.48,-8.06,49.37,-1.00
16160.00,-7.55,-6.30,0.04,0.00,-1.12,0.87,-27.48,-8.06,49.37,-1.00
16172.00,-7.55,-6.30,0.04,0.00,-1.12,0.87,-27.48,-8.06,49.37,-1.00
16184.00,-7.47,-6.19,0.55,-0.02,-1.12,0.86,-27.48,-8.06,49.37,-1.00
16198.00,-7.55,-6.46,-0.04,-0.06,-1.08,0.86,-25.94,-8.60,48.70,-1.00
16210.00,-7.55,-6.46,-0.04,-0.06,-1.08,0.86,-25.94,-8.60,48.70,-1.00
16222.00,-7.54,-6.34,0.09,-0.04,-1.17,0.92,-25.94,-8.60,48.70,-1.00
16237.00,-7.58,-6.16,0.64,0.01,-1.20,0.93,-25.94,-8.60,48.70,-1.00
16248.00,-7.58,-6.16,0.64,0.01,-1.20,0.93,-25.94,-8.60,48.70,-1.00
16260.00,-7.46,-6.39,0.13,0.00,-1.16,0.92,-25.94,-8.60,48.70,-1.00
16272.00,-7.46,-6.39,0.13,0.00,-1.16,0.92,-25.94,-8.60,48.70,-1.00
16286.00,-7.42,-6.42,0.15,0.01,-1.17,0.93,-25.94,-8.60,48.70,-1.00
16298.00,-7.47,-6.50,-0.03,0.01,-1.15,0.92,-25.94,-8.60,48.70,-1.00
16310.00,-7.47,-6.50,-0.03,0.01,-1.15,0.92,-25.94,-8.60,48.70,-1.00
16322.00,-7.49,-6.40,0.44,0.02,-1.18,0.93,-27.06,-7.52,49.60,-1.00
16336.00,-7.44,-6.27,0.13,-0.00,-1.16,0.93,-27.06,-7.52,49.60,-1.00
16348.00,-7.44,-6.27,0.13,-0.00,-1.16,0.93,-27.06,-7.52,49.60,-1.00
16360.00,-7.61,-6.20,-0.14,0.00,-1.15,0.94,-27.06,-7.52,49.60,-1.00
16372.00,-7.61,-6.20,-0.14,0.00,-1.15,0.94,-27.06,-7.52,49.60,-1.00
16386.00,-7.54,-6.38,0.22,0.04,-1.22,0.95,-27.06,-7.52,49.60,-1.00
16398.00,-7.53,-6.24,0.43,0.04,-1.21,0.95,-27.06,-7.52,49.60,-1.00
16410.00,-7.53,-6.24,0.43,0.04,-1.21,0.95,-27.06,-7.52,49.60,-1.00
16424.00,-7.47,-6.43,0.19,0.01,-1.16,0.92,-27.06,-7.52,49.60,-1.00
16436.00,-7.49,-6.36,-0.07,-0.01,-1.16,0.94,-26.08,-8.42,48.03,-1.00
16448.00,-7.49,-6.36,-0.07,-0.01,-1.16,0.94,-26.08,-8.42,48.03,-1.00
16460.00,-7.53,-6.27,0.15,-0.02,-1.24,0.95,-26.08,-8.42,48.03,-1.00
16474.00,-7.53,-6.27,0.15,-0.02,-1.24,0.95,-26.08,-8.42,48.03,-1.00
16486.00,-7.44,-6.52,0.38,-0.05,-1.23,0.93,-26.08,-8.42,48.03,-1.00
16498.00,-7.38,-6.66,0.06,-0.07,-1.15,0.93,-26.08,-8.42,48.03,-1.00
16510.00,-7.38,-6.66,0.06,-0.07,-1.15,0.93,-26.08,-8.42,48.03,-1.00
16524.00,-7.50,-6.37,-0.14,-0.08,-1.13,0.97,-26.08,-8.42,48.03,-1.00
16536.00,-7.54,-6.10,-0.06,-0.06,-1.19,0.99,-26.08,-8.42,48.03,-1.00
16548.00,-7.54,-6.10,-0.06,-0.06,-1.19,0.99,-26.08,-8.42,48.03,-1.00
16562.00,-7.59,-6.18,0.14,-0.02,-1.24,0.96,-26.92,-6.98,49.82,-1.00
16574.00,-7.59,-6.18,0.14,-0.02,-1.24,0.96,-26.92,-6.98,49.82,-1.00
16586.00,-7.54,-6.21,0.15,-0.01,-1.20,0.92,-26.92,-6.98,49.82,-1.00
16598.00,-7.52,-6.36,-0.32,-0.04,-1.15,0.91,-26.92,-6.98,49.82,-1.00
16612.00,-7.52,-6.36,-0.32,-0.04,-1.15,0.91,-26.92,-6.98,49.82,-1.00
16624.00,-7.64,-6.26,0.34,-0.02,-1.22,0.93,-26.92,-6.98,49.82,-1.00
16636.00,-7.43,-6.40,0.10,-0.05,-1.19,0.91,-26.92,-6.98,49.82,-1.00
16648.00,-7.43,-6.40,0.10,-0.05,-1.19,0.91,-26.92,-6.98,49.82,-1.00
16662.00,-7.49,-6.60,0.17,-0.04,-1.17,0.92,-26.92,-6.98,49.82,-1.00
16674.00,-7.49,-6.60,0.17,-0.04,-1.17,0.92,-26.92,-6.98,49.82,-1.00
16686.00,-7.42,-6.44,0.18,-0.03,-1.17,0.95,-26.92,-6.98,49.82,-1.00
16698.00,-7.44,-6.27,-0.18,-0.04,-1.16,0.96,-26.92,-8.06,48.48,-1.00
16712.00,-7.44,-6.27,-0.18,-0.04,-1.16,0.96,-26.92,-8.06,48.48,-1.00
16724.00,-7.64,-6.12,0.40,-0.04,-1.19,0.93,-26.92,-8.06,48.48,-1.00
16736.00,-7.50,-6.21,-0.36,-0.12,-1.10,0.89,-26.92,-8.06,48.48,-1.00
16750.00,-7.50,-6.21,-0.36,-0.12,-1.10,0.89,-26.92,-8.06,48.48,-1.00
16762.00,-7.41,-6.39,-0.19,-0.08,-1.15,0.88,-26.92,-8.06,48.48,-1.00
16774.00,-7.41,-6.39,-0.19,-0.08,-1.15,0.88,-26.92,-8.06,48.48,-1.00
16786.00,-7.44,-6.72,0.09,-0.00,-1.20,0.88,-26.92,-8.06,48.48,-1.00
16801.00,-7.40,-6.58,-0.15,-0.04,-1.14,0.93,-26.92,-8.06,48.48,-1.00
16812.00,-7.40,-6.58,-0.15,-0.04,-1.14,0.93,-26.92,-8.06,48.48,-1.00
16824.00,-7.66,-6.38,0.07,-0.03,-1.14,0.96,-27.34,-8.24,48.26,-1.00
16836.00,-7.64,-6.12,-0.11,-0.04,-1.11,0.96,-27.34,-8.24,48.26,-1.00
16850.00,-7.64,-6.12,-0.11,-0.04,-1.11,0.96,-27.34,-8.24,48.26,-1.00
16862.00,-7.34,-6.14,-0.59,-0.07,-1.09,0.94,-27.34,-8.24,48.26,-1.00
16874.00,-7.34,-6.14,-0.59,-0.07,-1.09,0.94,-27.34,-8.24,48.26,-1.00
16888.00,-7.41,-6.54,-0.06,-0.04,-1.18,0.88,-27.34,-8.24,48.26,-1.00
16900.00,-7.43,-6.63,-0.15,-0.08,-1.18,0.89,-27.34,-8.24,48.26,-1.00
16912.00,-7.43,-6.63,-0.15,-0.08,-1.18,0.89,-27.34,-8.24,48.26,-1.00
16924.00,-7.54,-6.32,0.08,-0.09,-1.18,0.94,-27.34,-8.24,48.26,-1.00
16938.00,-7.33,-6.36,-0.28,-0.10,-1.18,0.96,-25.66,-10.40,46.47,-1.00
16950.00,-7.33,-6.36,-0.28,-0.10,-1.18,0.96,-25.66,-10.40,46.47,-1.00
16962.00,-7.59,-6.25,-0.17,-0.11,-1.20,0.96,-25.66,-10.40,46.47,-1.00
16976.00,-7.70,-6.47,-0.05,-0.16,-1.18,0.94,-25.66,-10.40,46.47,-1.00
16988.00,-7.70,-6.47,-0.05,-0.16,-1.18,0.94,-25.66,-10.40,46.47,-1.00
17000.00,-7.19,-6.63,-0.48,-0.20,-1.13,0.98,-25.66,-10.40,46.47,-1.00
17012.00,-7.19,-6.63,-0.48,-0.20,-1.13,0.98,-25.66,-10.40,46.47,-1.00
17026.00,-7.25,-6.46,0.13,-0.13,-1.19,0.99,-25.66,-10.40,46.47,-1.00
17038.00,-7.49,-6.48,-0.30,-0.13,-1.15,0.95,-25.66,-10.40,46.47,-1.00
17050.00,-7.49,-6.48,-0.30,-0.13,-1.15,0.95,-25.66,-10.40,46.47,-1.00
17062.00,-7.40,-6.51,-0.43,-0.14,-1.18,0.97,-25.66,-10.40,46.47,-1.00
17077.00,-7.40,-6.51,-0.43,-0.14,-1.18,0.97,-25.66,-10.40,46.47,-1.00
17088.00,-7.53,-6.55,-0.19,-0.10,-1.21,0.98,-28.60,-8.42,45.35,-1.00
17100.00,-7.77,-6.38,-0.46,-0.12,-1.18,1.03,-28.60,-8.42,45.35,-1.00
17114.00,-7.77,-6.38,-0.46,-0.12,-1.18,1.03,-28.60,-8.42,45.35,-1.00
17126.00,-7.60,-6.22,-0.60,-0.16,-1.22,1.08,-28.60,-8.42,45.35,-1.00
17138.00,-7.34,-6.32,-0.63,-0.17,-1.34,1.13,-28.60,-8.42,45.35,-1.00
17150.00,-7.34,-6.32,-0.63,-0.17,-1.34,1.13,-28.60,-8.42,45.35,-1.00
17164.00,-7.34,-6.18,-0.45,-0.16,-1.38,1.11,-28.60,-8.42,45.35,-1.00
17176.00,-7.34,-6.18,-0.45,-0.16,-1.38,1.11,-28.60,-8.42,45.35,-1.00
17188.00,-7.51,-6.43,-0.01,-0.15,-1.32,1.02,-28.60,-8.42,45.35,-1.00
17200.00,-7.43,-6.27,-0.43,-0.16,-1.27,1.00,-26.92,-10.58,47.14,-1.00
17214.00,-7.43,-6.27,-0.43,-0.16,-1.27,1.00,-26.92,-10.58,47.14,-1.00
17226.00,-7.60,-6.37,-0.35,-0.17,-1.32,0.99,-26.92,-10.58,47.14,-1.00
17238.00,-7.50,-6.40,-0.23,-0.14,-1.36,0.99,-26.92,-10.58,47.14,-1.00
17253.00,-7.50,-6.40,-0.23,-0.14,-1.36,0.99,-26.92,-10.58,47.14,-1.00
17264.00,-7.58,-6.35,-0.04,-0.12,-1.39,1.00,-26.92,-10.58,47.14,-1.00
17276.00,-7.58,-6.35,-0.04,-0.12,-1.39,1.00,-26.92,-10.58,47.14,-1.00
17288.00,-7.31,-6.14,-0.48,-0.14,-1.35,1.02,-26.92,-10.58,47.14,-1.00
17302.00,-7.42,-6.43,-0.08,-0.10,-1.40,0.98,-26.92,-10.58,47.14,-1.00
17314.00,-7.42,-6.43,-0.08,-0.10,-1.40,0.98,-26.92,-10.58,47.14,-1.00
17326.00,-7.62,-6.51,-0.44,-0.14,-1.38,0.97,-27.90,-9.32,45.58,-1.00
17340.00,-7.73,-6.00,-0.25,-0.15,-1.39,1.04,-27.90,-9.32,45.58,-1.00
17352.00,-7.73,-6.00,-0.25,-0.15,-1.39,1.04,-27.90,-9.32,45.58,-1.00
17364.00,-7.70,-5.89,-0.16,-0.12,-1.45,1.05,-27.90,-9.32,45.58,-1.00
17376.00,-7.70,-5.89,-0.16,-0.12,-1.45,1.05,-27.90,-9.32,45.58,-1.00
17390.00,-7.74,-5.98,-0.18,-0.13,-1.44,1.01,-27.90,-9.32,45.58,-1.00
17403.00,-7.69,-6.14,-0.13,-0.14,-1.45,0.95,-27.90,-9.32,45.58,-1.00
17415.00,-7.69,-6.14,-0.13,-0.14,-1.45,0.95,-27.90,-9.32,45.58,-1.00
17427.00,-7.25,-6.68,-0.28,-0.16,-1.41,0.92,-27.90,-9.32,45.58,-1.00
17441.00,-7.41,-6.57,-0.03,-0.15,-1.43,0.98,-27.90,-10.76,49.60,-1.00
17530.00,-7.41,-6.33,-0.06,-0.06,-1.41,0.93,-27.90,-10.76,49.60,-1.00
17619.00,-7.40,-6.34,-0.23,-0.00,-1.29,0.98,-27.20,-10.94,49.82,-1.00
17633.00,-7.40,-6.34,-0.23,-0.00,-1.29,0.98,-27.20,-10.94,49.82,-1.00
17645.00,-7.53,-6.14,-0.08,0.05,-1.28,0.97,-27.20,-10.94,49.82,-1.00
17657.00,-7.34,-6.36,-0.41,0.05,-1.23,0.93,-27.20,-10.94,49.82,-1.00
17669.00,-7.34,-6.36,-0.41,0.05,-1.23,0.93,-27.20,-10.94,49.82,-1.00
17683.00,-7.56,-6.30,0.05,0.08,-1.23,0.93,-27.20,-10.94,49.82,-1.00
17695.00,-7.56,-6.30,0.05,0.08,-1.23,0.93,-27.20,-10.94,49.82,-1.00
17707.00,-7.35,-6.19,-0.35,0.07,-1.18,0.95,-27.34,-11.12,49.60,-1.00
17719.00,-7.44,-6.37,-0.18,0.10,-1.20,0.92,-27.34,-11.12,49.60,-1.00
17733.00,-7.44,-6.37,-0.18,0.10,-1.20,0.92,-27.34,-11.12,49.60,-1.00
17745.00,-7.65,-6.37,-0.06,0.13,-1.19,0.91,-27.34,-11.12,49.60,-1.00
17757.00,-7.68,-6.30,-0.24,0.12,-1.16,0.91,-27.34,-11.12,49.60,-1.00
17771.00,-7.68,-6.30,-0.24,0.12,-1.16,0.91,-27.34,-11.12,49.60,-1.00
17783.00,-7.48,-6.44,-0.28,0.10,-1.16,0.93,-27.34,-11.12,49.60,-1.00
17795.00,-7.48,-6.44,-0.28,0.10,-1.16,0.93,-27.34,-11.12,49.60,-1.00
17807.00,-7.53,-6.15,0.05,0.09,-1.18,0.96,-27.34,-11.12,49.60,-1.00
17821.00,-7.46,-6.18,-0.27,0.10,-1.14,0.94,-27.06,-7.88,48.26,-1.00
17833.00,-7.46,-6.18,-0.27,0.10,-1.14,0.94,-27.06,-7.88,48.26,-1.00
17845.00,-7.81,-6.37,-0.28,0.13,-1.14,0.90,-27.06,-7.88,48.26,-1.00
17857.00,-7.81,-6.37,-0.28,0.13,-1.14,0.90,-27.06,-7.88,48.26,-1.00
17872.00,-7.39,-6.24,-0.05,0.15,-1.12,0.90,-27.06,-7.88,48.26,-1.00
17883.00,-7.65,-6.04,-0.11,0.15,-1.09,0.88,-27.06,-7.88,48.26,-1.00
17895.00,-7.65,-6.04,-0.11,0.15,-1.09,0.88,-27.06,-7.88,48.26,-1.00
17909.00,-7.90,-6.09,-0.31,0.11,-1.05,0.85,-27.06,-7.88,48.26,-1.00
17921.00,-7.40,-6.38,-0.14,0.09,-1.08,0.84,-27.06,-7.88,48.26,-1.00
17933.00,-7.40,-6.38,-0.14,0.09,-1.08,0.84,-27.06,-7.88,48.26,-1.00
17945.00,-7.73,-6.08,0.00,0.10,-1.10,0.85,-25.11,-10.40,52.27,-1.00
17959.00,-7.59,-6.26,-0.14,0.07,-1.06,0.84,-25.11,-10.40,52.27,-1.00
17971.00,-7.59,-6.26,-0.14,0.07,-1.06,0.84,-25.11,-10.40,52.27,-1.00
17983.00,-7.50,-6.22,-0.36,0.06,-1.06,0.86,-25.11,-10.40,52.27,-1.00
17995.00,-7.50,-6.22,-0.36,0.06,-1.06,0.86,-25.11,-10.40,52.27,-1.00
18009.00,-7.70,-6.35,-0.38,0.10,-1.07,0.85,-25.11,-10.40,52.27,-1.00
18022.00,-7.93,-6.32,-0.24,0.07,-1.05,0.84,-25.11,-10.40,52.27,-1.00
18034.00,-7.93,-6.32,-0.24,0.07,-1.05,0.84,-25.11,-10.40,52.27,-1.00
18048.00,-7.51,-6.20,-0.19,0.03,-1.04,0.87,-25.11,-10.40,52.27,-1.00
18060.00,-7.76,-6.40,-0.58,0.06,-1.06,0.88,-25.11,-10.40,52.27,-1.00
18072.00,-7.76,-6.40,-0.58,0.06,-1.06,0.88,-25.11,-10.40,52.27,-1.00
18084.00,-7.52,-6.28,0.01,0.08,-1.10,0.92,-25.80,-11.66,49.37,-1.00
18098.00,-7.31,-6.40,0.11,0.10,-1.11,0.91,-25.80,-11.66,49.37,-1.00
18110.00,-7.31,-6.40,0.11,0.10,-1.11,0.91,-25.80,-11.66,49.37,-1.00
18122.00,-7.54,-6.36,-0.08,0.07,-1.07,0.88,-25.80,-11.66,49.37,-1.00
18134.00,-7.54,-6.36,-0.08,0.07,-1.07,0.88,-25.80,-11.66,49.37,-1.00
18149.00,-7.54,-6.02,-0.51,0.02,-1.05,0.89,-25.80,-11.66,49.37,-1.00
18160.00,-7.72,-6.25,-0.35,0.04,-1.09,0.87,-25.80,-11.66,49.37,-1.00
18172.00,-7.72,-6.25,-0.35,0.04,-1.09,0.87,-25.80,-11.66,49.37,-1.00
18187.00,-7.61,-6.27,-0.26,0.01,-1.11,0.88,-25.80,-11.66,49.37,-1.00
18198.00,-7.51,-6.50,-0.10,0.01,-1.14,0.90,-26.08,-10.94,47.59,-1.00
18210.00,-7.51,-6.50,-0.10,0.01,-1.14,0.90,-26.08,-10.94,47.59,-1.00
18222.00,-7.34,-6.43,-0.06,0.01,-1.11,0.92,-26.08,-10.94,47.59,-1.00
18236.00,-7.34,-6.43,-0.06,0.01,-1.11,0.92,-26.08,-10.94,47.59,-1.00
18248.00,-7.40,-6.41,-0.48,0.01,-1.09,0.93,-26.08,-10.94,47.59,-1.00
18260.00,-7.35,-6.47,-0.23,0.01,-1.13,0.92,-26.08,-10.94,47.59,-1.00
18272.00,-7.35,-6.47,-0.23,0.01,-1.13,0.92,-26.08,-10.94,47.59,-1.00
18286.00,-7.35,-6.51,-0.33,-0.02,-1.10,0.90,-26.08,-10.94,47.59,-1.00
18298.00,-7.59,-6.33,-0.24,-0.02,-1.11,0.90,-26.08,-10.94,47.59,-1.00
18310.00,-7.59,-6.33,-0.24,-0.02,-1.11,0.90,-26.08,-10.94,47.59,-1.00
18324.00,-7.49,-6.29,-0.40,-0.01,-1.10,0.90,-26.36,-10.94,47.14,-1.00
18336.00,-7.49,-6.29,-0.40,-0.01,-1.10,0.90,-26.36,-10.94,47.14,-1.00
18348.00,-7.55,-6.45,-0.63,-0.03,-1.10,0.89,-26.36,-10.94,47.14,-1.00
18360.00,-7.53,-6.48,-0.22,-0.02,-1.13,0.91,-26.36,-10.94,47.14,-1.00
18374.00,-7.53,-6.48,-0.22,-0.02,-1.13,0.91,-26.36,-10.94,47.14,-1.00
18386.00,-7.34,-6.57,-0.45,-0.00,-1.14,0.93,-26.36,-10.94,47.14,-1.00
18398.00,-7.30,-6.60,-0.45,-0.00,-1.14,0.93,-26.36,-10.94,47.14,-1.00
18410.00,-7.30,-6.60,-0.45,-0.00,-1.14,0.93,-26.36,-10.94,47.14,-1.00
18424.00,-7.35,-6.32,-0.18,-0.03,-1.14,0.91,-26.36,-10.94,47.14,-1.00
18436.00,-7.35,-6.32,-0.18,-0.03,-1.14,0.91,-26.36,-10.94,47.14,-1.00
18448.00,-7.44,-6.34,-0.46,-0.04,-1.12,0.88,-27.20,-11.66,48.03,-1.00
18463.00,-7.51,-6.49,-0.88,-0.05,-1.11,0.88,-27.20,-11.66,48.03,-1.00
18474.00,-7.51,-6.49,-0.88,-0.05,-1.11,0.88,-27.20,-11.66,48.03,-1.00
18486.00,-7.40,-6.45,-0.51,-0.03,-1.19,0.91,-27.20,-11.66,48.03,-1.00
18498.00,-7.47,-6.59,-0.05,-0.00,-1.23,0.90,-27.20,-11.66,48.03,-1.00
18512.00,-7.47,-6.59,-0.05,-0.00,-1.23,0.90,-27.20,-11.66,48.03,-1.00
18524.00,-7.29,-6.57,-0.28,-0.02,-1.16,0.93,-27.20,-11.66,48.03,-1.00
18536.00,-7.29,-6.57,-0.28,-0.02,-1.16,0.93,-27.20,-11.66,48.03,-1.00
18550.00,-7.35,-6.63,-0.90,0.01,-1.15,0.94,-27.20,-11.66,48.03,-1.00
18562.00,-7.40,-6.45,-0.41,-0.02,-1.15,0.95,-27.20,-11.66,48.03,-1.00
18574.00,-7.40,-6.45,-0.41,-0.02,-1.15,0.95,-27.20,-11.66,48.03,-1.00
18586.00,-7.28,-6.62,-0.39,-0.02,-1.21,0.94,-27.62,-12.19,46.02,-1.00
18600.00,-7.39,-6.50,-0.51,-0.03,-1.20,0.94,-27.62,-12.19,46.02,-1.00
18612.00,-7.39,-6.50,-0.51,-0.03,-1.20,0.94,-27.62,-12.19,46.02,-1.00
18624.00,-7.39,-6.48,-0.34,-0.03,-1.17,0.94,-27.62,-12.19,46.02,-1.00
18636.00,-7.39,-6.48,-0.34,-0.03,-1.17,0.94,-27.62,-12.19,46.02,-1.00
18650.00,-7.37,-6.35,-0.78,-0.04,-1.15,0.95,-27.62,-12.19,46.02,-1.00
18662.00,-7.40,-6.32,-0.54,-0.01,-1.21,0.94,-27.62,-12.19,46.02,-1.00
18674.00,-7.40,-6.32,-0.54,-0.01,-1.21,0.94,-27.62,-12.19,46.02,-1.00
18688.00,-7.29,-6.68,-0.50,-0.03,-1.22,0.90,-27.62,-12.19,46.02,-1.00
18700.00,-7.25,-6.90,-0.46,-0.01,-1.21,0.93,-26.36,-12.73,46.25,-1.00
18712.00,-7.25,-6.90,-0.46,-0.01,-1.21,0.93,-26.36,-12.73,46.25,-1.00
18724.00,-7.41,-6.63,-0.36,0.00,-1.19,0.97,-26.36,-12.73,46.25,-1.00
18738.00,-7.33,-6.25,-0.78,-0.03,-1.13,1.00,-26.36,-12.73,46.25,-1.00
18750.00,-7.33,-6.25,-0.78,-0.03,-1.13,1.00,-26.36,-12.73,46.25,-1.00
18762.00,-7.43,-6.21,-0.52,-0.01,-1.18,0.95,-26.36,-12.73,46.25,-1.00
18776.00,-7.43,-6.21,-0.52,-0.01,-1.18,0.95,-26.36,-12.73,46.25,-1.00
18788.00,-7.31,-6.57,-0.85,-0.02,-1.17,0.90,-26.36,-12.73,46.25,-1.00
18800.00,-7.37,-6.77,-0.46,-0.02,-1.21,0.92,-26.36,-12.73,46.25,-1.00
18812.00,-7.37,-6.77,-0.46,-0.02,-1.21,0.92,-26.36,-12.73,46.25,-1.00
18826.00,-7.34,-6.74,-0.64,-0.02,-1.21,0.96,-26.78,-13.63,46.02,-1.00
18838.00,-7.34,-6.74,-0.64,-0.02,-1.21,0.96,-26.78,-13.63,46.02,-1.00
18850.00,-7.34,-6.35,-0.50,-0.03,-1.18,1.00,-26.78,-13.63,46.02,-1.00
18862.00,-7.32,-6.40,-0.49,-0.04,-1.16,0.95,-26.78,-13.63,46.02,-1.00
18876.00,-7.32,-6.40,-0.49,-0.04,-1.16,0.95,-26.78,-13.63,46.02,-1.00
18888.00,-7.35,-6.17,-0.85,-0.07,-1.13,0.93,-26.78,-13.63,46.02,-1.00
18900.00,-7.43,-6.50,-0.67,-0.05,-1.17,0.91,-26.78,-13.63,46.02,-1.00
18914.00,-7.43,-6.50,-0.67,-0.05,-1.17,0.91,-26.78,-13.63,46.02,-1.00
18926.00,-7.36,-6.64,-0.44,-0.04,-1.20,0.93,-26.78,-13.63,46.02,-1.00
18938.00,-7.36,-6.64,-0.44,-0.04,-1.20,0.93,-26.78,-13.63,46.02,-1.00
18950.00,-7.25,-6.46,-0.78,-0.04,-1.18,0.96,-27.34,-13.27,46.92,-1.00
18964.00,-7.39,-6.59,-0.34,-0.03,-1.20,0.96,-27.34,-13.27,46.92,-1.00
18976.00,-7.39,-6.59,-0.34,-0.03,-1.20,0.96,-27.34,-13.27,46.92,-1.00
18988.00,-7.27,-6.47,-0.74,-0.04,-1.18,0.98,-27.34,-13.27,46.92,-1.00
19002.00,-7.32,-6.21,-0.86,-0.06,-1.17,0.98,-27.34,-13.27,46.92,-1.00
19014.00,-7.32,-6.21,-0.86,-0.06,-1.17,0.98,-27.34,-13.27,46.92,-1.00
19026.00,-7.48,-6.51,-0.65,-0.05,-1.20,0.93,-27.34,-13.27,46.92,-1.00
19039.00,-7.36,-6.60,-0.59,-0.06,-1.18,0.94,-27.34,-13.27,46.92,-1.00
19052.00,-7.36,-6.60,-0.59,-0.06,-1.18,0.94,-27.34,-13.27,46.92,-1.00
19064.00,-7.26,-6.30,-0.80,-0.06,-1.13,0.97,-27.34,-13.27,46.92,-1.00
19076.00,-7.26,-6.30,-0.80,-0.06,-1.13,0.97,-27.34,-13.27,46.92,-1.00
19088.00,-7.39,-6.58,-0.51,-0.02,-1.16,0.93,-27.62,-14.71,46.02,-1.00
19102.00,-7.28,-6.51,-0.92,-0.06,-1.16,0.94,-27.62,-14.71,46.02,-1.00
19114.00,-7.28,-6.51,-0.92,-0.06,-1.16,0.94,-27.62,-14.71,46.02,-1.00
19126.00,-7.33,-6.60,-0.72,-0.07,-1.20,0.93,-27.62,-14.71,46.02,-1.00
19140.00,-7.32,-6.70,-0.80,-0.09,-1.18,0.94,-27.62,-14.71,46.02,-1.00
19152.00,-7.32,-6.70,-0.80,-0.09,-1.18,0.94,-27.62,-14.71,46.02,-1.00
19164.00,-7.25,-6.59,-0.90,-0.04,-1.17,0.98,-27.62,-14.71,46.02,-1.00
19176.00,-7.25,-6.59,-0.90,-0.04,-1.17,0.98,-27.62,-14.71,46.02,-1.00
19191.00,-7.37,-6.28,-0.92,-0.02,-1.19,0.98,-27.62,-14.71,46.02,-1.00
19203.00,-7.43,-6.18,-0.99,-0.06,-1.18,0.94,-26.50,-13.63,43.79,-1.00
19215.00,-7.43,-6.18,-0.99,-0.06,-1.18,0.94,-26.50,-13.63,43.79,-1.00
19227.00,-7.58,-6.54,-0.83,-0.08,-1.20,0.89,-26.50,-13.63,43.79,-1.00
19241.00,-7.35,-6.38,-1.12,-0.12,-1.18,0.93,-26.50,-13.63,43.79,-1.00
19253.00,-7.35,-6.38,-1.12,-0.12,-1.18,0.93,-26.50,-13.63,43.79,-1.00
19265.00,-7.39,-6.50,-0.62,-0.13,-1.17,0.93,-26.50,-13.63,43.79,-1.00
19279.00,-7.36,-6.55,-0.71,-0.16,-1.18,0.94,-26.50,-13.63,43.79,-1.00
19291.00,-7.36,-6.55,-0.71,-0.16,-1.18,0.94,-26.50,-13.63,43.79,-1.00
19303.00,-7.30,-6.69,-0.87,-0.16,-1.18,0.95,-26.50,-13.63,43.79,-1.00
19315.00,-7.30,-6.69,-0.87,-0.16,-1.18,0.95,-26.50,-13.63,43.79,-1.00
19329.00,-7.52,-6.67,-1.04,-0.14,-1.19,0.98,-29.02,-12.91,43.35,-1.00
19341.00,-7.52,-6.51,-1.07,-0.14,-1.22,1.04,-29.02,-12.91,43.35,-1.00
19353.00,-7.52,-6.51,-1.07,-0.14,-1.22,1.04,-29.02,-12.91,43.35,-1.00
19367.00,-7.33,-6.07,-1.22,-0.19,-1.26,1.07,-29.02,-12.91,43.35,-1.00
19379.00,-7.20,-6.54,-0.79,-0.16,-1.32,0.98,-29.02,-12.91,43.35,-1.00
19391.00,-7.20,-6.54,-0.79,-0.16,-1.32,0.98,-29.02,-12.91,43.35,-1.00
19403.00,-7.22,-6.91,-1.05,-0.15,-1.27,0.94,-29.02,-12.91,43.35,-1.00
19417.00,-7.22,-6.91,-1.05,-0.15,-1.27,0.94,-29.02,-12.91,43.35,-1.00
19429.00,-7.42,-6.87,-1.16,-0.15,-1.25,1.01,-29.02,-12.91,43.35,-1.00
19441.00,-7.27,-6.44,-0.97,-0.16,-1.30,1.12,-29.02,-12.91,43.35,-1.00
19453.00,-7.27,-6.44,-0.97,-0.16,-1.30,1.12,-29.02,-12.91,43.35,-1.00
19469.00,-7.25,-6.23,-0.88,-0.12,-1.35,1.13,-29.02,-13.63,44.68,-1.00
19480.00,-7.66,-6.34,-0.97,-0.07,-1.37,1.08,-29.02,-13.63,44.68,-1.00
19492.00,-7.66,-6.34,-0.97,-0.07,-1.37,1.08,-29.02,-13.63,44.68,-1.00
19507.00,-7.52,-6.41,-1.09,-0.10,-1.37,1.06,-29.02,-13.63,44.68,-1.00
19518.00,-7.52,-6.41,-1.09,-0.10,-1.37,1.06,-29.02,-13.63,44.68,-1.00
19530.00,-7.40,-6.34,-0.82,-0.10,-1.40,1.06,-29.02,-13.63,44.68,-1.00
19542.00,-7.58,-6.54,-1.16,-0.13,-1.39,1.08,-29.02,-13.63,44.68,-1.00
19556.00,-7.58,-6.54,-1.16,-0.13,-1.39,1.08,-29.02,-13.63,44.68,-1.00
19568.00,-7.45,-6.26,-0.79,-0.12,-1.40,1.13,-29.02,-13.63,44.68,-1.00
19580.00,-7.55,-5.91,-1.31,-0.13,-1.41,1.10,-28.60,-13.81,44.02,-1.00
19594.00,-7.55,-5.91,-1.31,-0.13,-1.41,1.10,-28.60,-13.81,44.02,-1.00
19606.00,-7.53,-6.24,-0.91,-0.10,-1.47,1.03,-28.60,-13.81,44.02,-1.00
19618.00,-7.53,-6.24,-0.91,-0.10,-1.47,1.03,-28.60,-13.81,44.02,-1.00
19630.00,-7.24,-6.48,-0.53,-0.06,-1.46,0.96,-28.60,-13.81,44.02,-1.00
19644.00,-7.47,-6.47,-0.71,-0.03,-1.40,0.96,-28.60,-13.81,44.02,-1.00
19732.00,-7.56,-6.25,-0.51,0.02,-1.50,1.11,-28.04,-13.09,46.69,-1.00
19822.00,-7.44,-6.19,-0.11,0.13,-1.42,1.04,-27.90,-12.19,49.15,-1.00
19910.00,-7.54,-6.23,-0.60,0.05,-1.21,0.93,-27.90,-12.19,49.15,-1.00
19923.00,-7.65,-5.96,-0.40,0.10,-1.23,0.93,-27.90,-12.19,49.15,-1.00
19935.00,-7.65,-5.96,-0.40,0.10,-1.23,0.93,-27.90,-12.19,49.15,-1.00
19947.00,-7.74,-6.01,-0.29,0.15,-1.25,0.89,-27.90,-12.19,49.15,-1.00
19962.00,-7.84,-5.87,-0.15,0.15,-1.26,0.88,-27.48,-10.94,47.59,-1.00
19973.00,-7.84,-5.87,-0.15,0.15,-1.26,0.88,-27.48,-10.94,47.59,-1.00
19985.00,-7.83,-6.46,-0.40,0.07,-1.22,0.86,-27.48,-10.94,47.59,-1.00
19997.00,-7.83,-6.46,-0.40,0.07,-1.22,0.86,-27.48,-10.94,47.59,-1.00
20011.00,-7.65,-6.35,-0.48,0.02,-1.19,0.93,-27.48,-10.94,47.59,-1.00
20023.00,-7.72,-6.06,-0.39,0.05,-1.18,0.97,-27.48,-10.94,47.59,-1.00
20035.00,-7.72,-6.06,-0.39,0.05,-1.18,0.97,-27.48,-10.94,47.59,-1.00
20049.00,-7.38,-5.92,-0.32,0.09,-1.17,0.94,-27.48,-10.94,47.59,-1.00
20061.00,-7.58,-6.05,-0.39,0.12,-1.17,0.85,-27.48,-10.94,47.59,-1.00
20073.00,-7.58,-6.05,-0.39,0.12,-1.17,0.85,-27.48,-10.94,47.59,-1.00
20085.00,-7.63,-6.39,-0.14,0.07,-1.17,0.80,-27.90,-10.76,49.15,-1.00
20099.00,-7.63,-6.39,-0.14,0.07,-1.17,0.80,-27.90,-10.76,49.15,-1.00
20111.00,-7.70,-6.61,-0.44,0.04,-1.10,0.83,-27.90,-10.76,49.15,-1.00
20123.00,-7.65,-6.06,-0.38,0.01,-1.08,0.89,-27.90,-10.76,49.15,-1.00
20135.00,-7.65,-6.06,-0.38,0.01,-1.08,0.89,-27.90,-10.76,49.15,-1.00
20149.00,-7.66,-6.05,-0.46,0.01,-1.06,0.87,-27.90,-10.76,49.15,-1.00
20161.00,-7.63,-6.13,-0.64,-0.03,-1.08,0.85,-27.90,-10.76,49.15,-1.00
20173.00,-7.63,-6.13,-0.64,-0.03,-1.08,0.85,-27.90,-10.76,49.15,-1.00
20187.00,-7.70,-6.22,-0.45,-0.03,-1.11,0.83,-27.90,-10.76,49.15,-1.00
20199.00,-7.70,-6.22,-0.45,-0.03,-1.11,0.83,-27.90,-10.76,49.15,-1.00
20211.00,-7.53,-6.44,-0.28,-0.05,-1.08,0.83,-28.60,-12.02,48.03,-1.00
20223.00,-7.67,-6.29,-0.76,-0.05,-1.03,0.85,-28.60,-12.02,48.03,-1.00
20238.00,-7.67,-6.29,-0.76,-0.05,-1.03,0.85,-28.60,-12.02,48.03,-1.00
20249.00,-7.61,-6.29,-0.49,-0.00,-1.07,0.87,-28.60,-12.02,48.03,-1.00
20261.00,-7.86,-6.09,-0.76,-0.02,-1.06,0.87,-28.60,-12.02,48.03,-1.00
20273.00,-7.86,-6.09,-0.76,-0.02,-1.06,0.87,-28.60,-12.02,48.03,-1.00
20287.00,-7.54,-6.29,-0.74,-0.06,-1.08,0.85,-28.60,-12.02,48.03,-1.00
20299.00,-7.54,-6.29,-0.74,-0.06,-1.08,0.85,-28.60,-12.02,48.03,-1.00
20311.00,-7.49,-6.59,-0.21,-0.03,-1.12,0.85,-28.60,-12.02,48.03,-1.00
20325.00,-7.44,-6.44,-0.76,-0.05,-1.06,0.89,-27.34,-12.55,49.60,-1.00
20337.00,-7.44,-6.44,-0.76,-0.05,-1.06,0.89,-27.34,-12.55,49.60,-1.00
20349.00,-7.40,-6.20,-0.41,-0.01,-1.09,0.91,-27.34,-12.55,49.60,-1.00
20361.00,-7.55,-6.04,-0.78,-0.03,-1.06,0.87,-27.34,-12.55,49.60,-1.00
20375.00,-7.55,-6.04,-0.78,-0.03,-1.06,0.87,-27.34,-12.55,49.60,-1.00
20387.00,-7.57,-6.28,-0.81,-0.03,-1.11,0.84,-27.34,-12.55,49.60,-1.00
20399.00,-7.57,-6.28,-0.81,-0.03,-1.11,0.84,-27.34,-12.55,49.60,-1.00
20413.00,-7.42,-6.50,-0.63,-0.01,-1.16,0.87,-27.34,-12.55,49.60,-1.00
20425.00,-7.42,-6.62,-0.62,0.00,-1.13,0.89,-27.34,-12.55,49.60,-1.00
20437.00,-7.42,-6.62,-0.62,0.00,-1.13,0.89,-27.34,-12.55,49.60,-1.00
20449.00,-7.37,-6.47,-0.58,0.01,-1.11,0.93,-27.34,-12.55,49.60,-1.00
20463.00,-7.33,-6.29,-0.81,0.01,-1.12,0.95,-27.34,-11.84,46.02,-1.00
20475.00,-7.33,-6.29,-0.81,0.01,-1.12,0.95,-27.34,-11.84,46.02,-1.00
20487.00,-7.43,-6.17,-0.66,0.02,-1.14,0.92,-27.34,-11.84,46.02,-1.00
20499.00,-7.43,-6.17,-0.66,0.02,-1.14,0.92,-27.34,-11.84,46.02,-1.00
20513.00,-7.45,-6.45,-0.78,-0.02,-1.09,0.87,-27.34,-11.84,46.02,-1.00
20525.00,-7.36,-6.51,-0.99,-0.03,-1.08,0.87,-27.34,-11.84,46.02,-1.00
20538.00,-7.36,-6.51,-0.99,-0.03,-1.08,0.87,-27.34,-11.84,46.02,-1.00
20551.00,-7.30,-6.52,-0.49,0.03,-1.13,0.88,-27.34,-11.84,46.02,-1.00
20563.00,-7.49,-6.58,-0.96,0.02,-1.07,0.89,-27.34,-11.84,46.02,-1.00
20575.00,-7.49,-6.58,-0.96,0.02,-1.07,0.89,-27.34,-11.84,46.02,-1.00
20587.00,-7.41,-6.35,-0.80,-0.02,-1.08,0.89,-27.20,-14.17,44.91,-1.00
20601.00,-7.65,-6.37,-0.85,-0.02,-1.06,0.87,-27.20,-14.17,44.91,-1.00
20613.00,-7.65,-6.37,-0.85,-0.02,-1.06,0.87,-27.20,-14.17,44.91,-1.00
20625.00,-7.42,-6.69,-1.14,-0.05,-1.06,0.88,-27.20,-14.17,44.91,-1.00
20637.00,-7.42,-6.69,-1.14,-0.05,-1.06,0.88,-27.20,-14.17,44.91,-1.00
20651.00,-7.32,-6.70,-0.85,-0.02,-1.13,0.94,-27.20,-14.17,44.91,-1.00
20663.00,-7.29,-6.49,-0.63,0.01,-1.14,0.98,-27.20,-14.17,44.91,-1.00
20675.00,-7.29,-6.49,-0.63,0.01,-1.14,0.98,-27.20,-14.17,44.91,-1.00
20689.00,-7.29,-6.42,-0.90,0.00,-1.10,0.96,-27.20,-14.17,44.91,-1.00
20701.00,-7.38,-6.31,-0.83,-0.02,-1.09,0.94,-28.60,-13.81,42.68,-1.00
20713.00,-7.38,-6.31,-0.83,-0.02,-1.09,0.94,-28.60,-13.81,42.68,-1.00
20725.00,-7.29,-6.43,-1.22,-0.05,-1.07,0.90,-28.60,-13.81,42.68,-1.00
20739.00,-7.29,-6.43,-1.22,-0.05,-1.07,0.90,-28.60,-13.81,42.68,-1.00
20751.00,-7.45,-6.66,-1.13,-0.03,-1.10,0.88,-28.60,-13.81,42.68,-1.00
20763.00,-7.43,-6.63,-0.95,-0.03,-1.12,0.91,-28.60,-13.81,42.68,-1.00
20777.00,-7.43,-6.63,-0.95,-0.03,-1.12,0.91,-28.60,-13.81,42.68,-1.00
20789.00,-7.31,-6.47,-0.92,-0.05,-1.12,0.95,-28.60,-13.81,42.68,-1.00
20801.00,-7.36,-6.45,-1.06,-0.03,-1.11,0.94,-28.60,-13.81,42.68,-1.00
20813.00,-7.36,-6.45,-1.06,-0.03,-1.11,0.94,-28.60,-13.81,42.68,-1.00
20827.00,-7.29,-6.40,-1.00,-0.04,-1.08,0.94,-28.32,-13.81,43.57,-1.00
20839.00,-7.29,-6.40,-1.00,-0.04,-1.08,0.94,-28.32,-13.81,43.57,-1.00
20851.00,-7.41,-6.59,-0.98,-0.04,-1.08,0.93,-28.32,-13.81,43.57,-1.00
20863.00,-7.34,-6.34,-1.50,-0.10,-1.03,0.95,-28.32,-13.81,43.57,-1.00
20878.00,-7.34,-6.34,-1.50,-0.10,-1.03,0.95,-28.32,-13.81,43.57,-1.00
20889.00,-7.45,-6.43,-1.28,-0.07,-1.10,0.94,-28.32,-13.81,43.57,-1.00
20901.00,-7.43,-6.48,-1.19,-0.06,-1.13,0.95,-28.32,-13.81,43.57,-1.00
20915.00,-7.43,-6.48,-1.19,-0.06,-1.13,0.95,-28.32,-13.81,43.57,-1.00
20927.00,-7.43,-6.44,-1.30,-0.09,-1.08,0.95,-28.32,-13.81,43.57,-1.00
20939.00,-7.43,-6.44,-1.30,-0.09,-1.08,0.95,-28.32,-13.81,43.57,-1.00
20951.00,-7.33,-6.39,-1.25,-0.12,-1.09,0.96,-28.32,-13.81,43.57,-1.00
20965.00,-7.31,-6.36,-1.31,-0.15,-1.09,0.97,-28.46,-13.63,42.45,-1.00
20977.00,-7.31,-6.36,-1.31,-0.15,-1.09,0.97,-28.46,-13.63,42.45,-1.00
20989.00,-7.08,-6.41,-1.43,-0.18,-1.07,0.94,-28.46,-13.63,42.45,-1.00
21004.00,-7.29,-6.46,-1.20,-0.14,-1.11,0.90,-28.46,-13.63,42.45,-1.00
21015.00,-7.29,-6.46,-1.20,-0.14,-1.11,0.90,-28.46,-13.63,42.45,-1.00
21027.00,-7.27,-6.25,-1.75,-0.13,-1.08,0.90,-28.46,-13.63,42.45,-1.00
21039.00,-7.27,-6.25,-1.75,-0.13,-1.08,0.90,-28.46,-13.63,42.45,-1.00
21053.00,-7.38,-6.38,-1.64,-0.05,-1.14,0.87,-28.46,-13.63,42.45,-1.00
21065.00,-7.25,-6.51,-1.08,-0.05,-1.18,0.86,-28.46,-13.63,42.45,-1.00
21077.00,-7.25,-6.51,-1.08,-0.05,-1.18,0.86,-28.46,-13.63,42.45,-1.00
21089.00,-7.07,-6.78,-1.35,-0.10,-1.09,0.87,-29.44,-16.33,40.44,-1.00
21103.00,-7.20,-6.71,-1.36,-0.12,-1.09,0.89,-29.44,-16.33,40.44,-1.00
21115.00,-7.20,-6.71,-1.36,-0.12,-1.09,0.89,-29.44,-16.33,40.44,-1.00
21128.00,-7.12,-6.65,-1.40,-0.14,-1.08,0.92,-29.44,-16.33,40.44,-1.00
21141.00,-7.07,-6.90,-1.81,-0.10,-1.09,0.91,-29.44,-16.33,40.44,-1.00
21153.00,-7.07,-6.90,-1.81,-0.10,-1.09,0.91,-29.44,-16.33,40.44,-1.00
21165.00,-7.22,-6.74,-1.56,-0.06,-1.12,0.94,-29.44,-16.33,40.44,-1.00
21177.00,-7.22,-6.74,-1.56,-0.06,-1.12,0.94,-29.44,-16.33,40.44,-1.00
21191.00,-7.38,-6.25,-1.81,-0.07,-1.11,0.98,-29.44,-16.33,40.44,-1.00
21203.00,-7.35,-6.08,-1.93,-0.09,-1.07,0.97,-27.20,-14.89,38.66,-1.00
21215.00,-7.35,-6.08,-1.93,-0.09,-1.07,0.97,-27.20,-14.89,38.66,-1.00
21227.00,-7.33,-6.25,-1.58,-0.08,-1.09,0.93,-27.20,-14.89,38.66,-1.00
21241.00,-7.36,-6.37,-1.98,-0.19,-1.09,0.93,-27.20,-14.89,38.66,-1.00
21253.00,-7.36,-6.37,-1.98,-0.19,-1.09,0.93,-27.20,-14.89,38.66,-1.00
21265.00,-6.96,-6.50,-2.09,-0.23,-1.11,0.93,-27.20,-14.89,38.66,-1.00
21280.00,-6.96,-6.50,-2.09,-0.23,-1.11,0.93,-27.20,-14.89,38.66,-1.00
21291.00,-7.22,-6.52,-1.74,-0.16,-1.19,0.92,-27.20,-14.89,38.66,-1.00
21303.00,-7.08,-6.39,-1.86,-0.16,-1.22,0.91,-27.20,-14.89,38.66,-1.00
21315.00,-7.08,-6.39,-1.86,-0.16,-1.22,0.91,-27.20,-14.89,38.66,-1.00
21329.00,-7.43,-6.78,-1.65,-0.16,-1.24,0.89,-27.20,-14.89,38.66,-1.00
21341.00,-7.24,-6.43,-2.58,-0.21,-1.21,0.96,-27.20,-14.89,38.66,-1.00
21353.00,-7.24,-6.43,-2.58,-0.21,-1.21,0.96,-29.02,-16.15,37.99,-1.00
21367.00,-6.98,-6.63,-1.63,-0.13,-1.31,0.98,-29.02,-16.15,37.99,-1.00
21379.00,-6.98,-6.63,-1.63,-0.13,-1.31,0.98,-29.02,-16.15,37.99,-1.00
21391.00,-7.12,-6.60,-1.56,-0.12,-1.30,0.99,-29.02,-16.15,37.99,-1.00
21403.00,-7.30,-6.57,-1.81,-0.17,-1.26,1.00,-29.02,-16.15,37.99,-1.00
21417.00,-7.30,-6.57,-1.81,-0.17,-1.26,1.00,-29.02,-16.15,37.99,-1.00
21429.00,-7.17,-6.69,-1.85,-0.21,-1.28,1.02,-29.02,-16.15,37.99,-1.00
21441.00,-7.13,-6.53,-1.90,-0.22,-1.31,1.06,-29.02,-16.15,37.99,-1.00
21453.00,-7.13,-6.53,-1.90,-0.22,-1.31,1.06,-29.02,-16.15,37.99,-1.00
21467.00,-7.17,-6.34,-1.86,-0.15,-1.31,1.06,-29.44,-15.97,39.55,-1.00
21479.00,-7.17,-6.34,-1.86,-0.15,-1.31,1.06,-29.44,-15.97,39.55,-1.00
21491.00,-7.15,-6.28,-2.19,-0.18,-1.29,1.05,-29.44,-15.97,39.55,-1.00
21505.00,-7.05,-6.39,-1.79,-0.16,-1.34,0.99,-29.44,-15.97,39.55,-1.00
21517.00,-7.05,-6.39,-1.79,-0.16,-1.34,0.99,-29.44,-15.97,39.55,-1.00
21529.00,-7.31,-6.38,-1.79,-0.19,-1.34,0.97,-29.44,-15.97,39.55,-1.00
21541.00,-7.31,-6.38,-1.79,-0.19,-1.34,0.97,-29.44,-15.97,39.55,-1.00
21556.00,-7.36,-6.80,-1.87,-0.19,-1.35,0.96,-29.44,-15.97,39.55,-1.00
21567.00,-6.96,-6.61,-2.11,-0.21,-1.38,1.07,-29.44,-15.97,39.55,-1.00
21579.00,-6.96,-6.61,-2.11,-0.21,-1.38,1.07,-29.44,-15.97,39.55,-1.00
21594.00,-7.36,-6.46,-2.20,-0.22,-1.47,1.15,-29.30,-16.15,38.44,-1.00
21605.00,-7.41,-6.18,-1.80,-0.16,-1.46,1.15,-29.30,-16.15,38.44,-1.00
21617.00,-7.41,-6.18,-1.80,-0.16,-1.46,1.15,-29.30,-16.15,38.44,-1.00
21629.00,-7.49,-6.13,-1.88,-0.12,-1.45,1.10,-29.30,-16.15,38.44,-1.00
21643.00,-7.15,-6.28,-1.86,-0.09,-1.48,1.06,-29.30,-16.15,38.44,-1.00
21655.00,-7.15,-6.28,-1.86,-0.09,-1.48,1.06,-29.30,-16.15,38.44,-1.00
21667.00,-7.63,-6.55,-2.30,-0.06,-1.51,1.06,-29.30,-16.15,38.44,-1.00
21679.00,-7.63,-6.55,-2.30,-0.06,-1.51,1.06,-29.30,-16.15,38.44,-1.00
21693.00,-7.59,-6.28,-1.63,-0.04,-1.61,1.16,-29.30,-16.15,38.44,-1.00
21705.00,-7.59,-6.21,-2.01,-0.03,-1.58,1.17,-30.41,-14.35,40.22,-1.00
21717.00,-7.59,-6.21,-2.01,-0.03,-1.58,1.17,-30.41,-14.35,40.22,-1.00
21731.00,-7.40,-6.13,-1.87,0.08,-1.63,1.17,-30.41,-14.35,40.22,-1.00
21743.00,-7.32,-6.23,-1.59,0.16,-1.67,1.16,-30.41,-14.35,40.22,-1.00
21755.00,-7.32,-6.23,-1.59,0.16,-1.67,1.16,-30.41,-14.35,40.22,-1.00
21767.00,-7.35,-6.43,-1.50,0.24,-1.67,1.15,-30.41,-14.35,40.22,-1.00
21781.00,-7.35,-6.43,-1.50,0.24,-1.67,1.15,-30.41,-14.35,40.22,-1.00
21793.00,-7.42,-6.15,-0.89,0.29,-1.71,1.18,-30.41,-14.35,40.22,-1.00
21805.00,-7.39,-6.00,-0.82,0.26,-1.63,1.15,-30.41,-14.35,40.22,-1.00
21819.00,-7.39,-6.00,-0.82,0.26,-1.63,1.15,-30.41,-14.35,40.22,-1.00
21831.00,-7.59,-5.96,-0.91,0.26,-1.52,1.07,-30.41,-14.35,40.22,-1.00
21843.00,-7.67,-5.87,-1.02,0.23,-1.45,1.03,-30.41,-13.27,43.35,-1.00
21855.00,-7.67,-5.87,-1.02,0.23,-1.45,1.03,-30.41,-13.27,43.35,-1.00
21870.00,-7.64,-6.00,-1.13,0.17,-1.43,0.98,-30.41,-13.27,43.35,-1.00
21881.00,-7.64,-6.00,-1.13,0.17,-1.43,0.98,-30.41,-13.27,43.35,-1.00
21893.00,-7.69,-5.97,-0.86,0.16,-1.44,0.96,-30.41,-13.27,43.35,-1.00
21905.00,-7.59,-6.31,-1.09,0.17,-1.42,0.94,-30.41,-13.27,43.35,-1.00
21919.00,-7.59,-6.31,-1.09,0.17,-1.42,0.94,-30.41,-13.27,43.35,-1.00
21931.00,-7.69,-6.11,-0.99,0.19,-1.35,0.95,-30.41,-13.27,43.35,-1.00
21943.00,-7.44,-6.23,-0.90,0.22,-1.30,0.93,-30.41,-13.27,43.35,-1.00
21957.00,-7.44,-6.23,-0.90,0.22,-1.30,0.93,-30.41,-13.27,43.35,-1.00
22046.00,-7.85,-6.09,-0.95,0.13,-1.14,0.82,-29.02,-11.48,46.02,-1.00
22133.00,-7.56,-6.09,-1.00,0.01,-0.98,0.77,-29.58,-11.48,46.02,-1.00
22222.00,-7.31,-6.23,-1.24,-0.09,-0.99,0.86,-29.16,-13.81,45.35,-1.00
22236.00,-7.64,-6.27,-0.85,-0.06,-1.02,0.83,-29.16,-13.81,45.35,-1.00
22248.00,-7.54,-6.40,-1.19,-0.07,-0.98,0.80,-29.16,-13.81,45.35,-1.00
22260.00,-7.54,-6.40,-1.19,-0.07,-0.98,0.80,-29.16,-13.81,45.35,-1.00
22272.00,-7.53,-6.40,-0.96,-0.07,-0.97,0.81,-29.16,-13.81,45.35,-1.00
22286.00,-7.55,-6.41,-1.55,-0.11,-0.92,0.85,-29.16,-13.81,45.35,-1.00
22298.00,-7.55,-6.41,-1.55,-0.11,-0.92,0.85,-29.16,-13.81,45.35,-1.00
22310.00,-7.70,-5.89,-1.39,-0.06,-1.01,0.90,-29.16,-13.81,45.35,-1.00
22324.00,-7.52,-6.27,-1.45,-0.03,-1.04,0.88,-29.16,-13.81,45.35,-1.00
22336.00,-7.52,-6.27,-1.45,-0.03,-1.04,0.88,-29.16,-13.81,45.35,-1.00
22348.00,-7.35,-6.46,-1.07,-0.04,-1.06,0.87,-28.46,-14.35,42.90,-1.00
22360.00,-7.35,-6.46,-1.07,-0.04,-1.06,0.87,-28.46,-14.35,42.90,-1.00
22374.00,-7.40,-6.54,-1.71,-0.07,-1.02,0.86,-28.46,-14.35,42.90,-1.00
22386.00,-7.26,-6.56,-1.15,-0.01,-1.08,0.88,-28.46,-14.35,42.90,-1.00
22398.00,-7.26,-6.56,-1.15,-0.01,-1.08,0.88,-28.46,-14.35,42.90,-1.00
22412.00,-7.43,-6.33,-1.54,-0.01,-1.04,0.91,-28.46,-14.35,42.90,-1.00
22424.00,-7.27,-6.23,-1.53,-0.02,-1.06,0.93,-28.46,-14.35,42.90,-1.00
22436.00,-7.27,-6.23,-1.53,-0.02,-1.06,0.93,-28.46,-14.35,42.90,-1.00
22448.00,-7.39,-6.21,-1.19,-0.01,-1.09,0.88,-28.46,-14.35,42.90,-1.00
22462.00,-7.39,-6.21,-1.19,-0.01,-1.09,0.88,-28.46,-14.35,42.90,-1.00
22474.00,-7.37,-6.17,-1.57,-0.06,-1.07,0.86,-27.62,-15.07,42.45,-1.00
22486.00,-7.41,-6.39,-1.83,-0.05,-1.11,0.86,-27.62,-15.07,42.45,-1.00
22498.00,-7.41,-6.39,-1.83,-0.05,-1.11,0.86,-27.62,-15.07,42.45,-1.00
22513.00,-7.25,-6.52,-1.23,-0.01,-1.16,0.88,-27.62,-15.07,42.45,-1.00
22524.00,-7.10,-6.92,-1.46,0.01,-1.09,0.89,-27.62,-15.07,42.45,-1.00
22536.00,-7.10,-6.92,-1.46,0.01,-1.09,0.89,-27.62,-15.07,42.45,-1.00
22550.00,-7.20,-6.85,-1.71,-0.01,-1.06,0.94,-27.62,-15.07,42.45,-1.00
22562.00,-7.20,-6.85,-1.71,-0.01,-1.06,0.94,-27.62,-15.07,42.45,-1.00
22574.00,-6.96,-6.60,-1.30,-0.02,-1.07,0.98,-27.62,-15.07,42.45,-1.00
22586.00,-7.31,-6.26,-1.73,-0.02,-1.06,0.98,-29.02,-16.15,40.22,-1.00
22600.00,-7.31,-6.26,-1.73,-0.02,-1.06,0.98,-29.02,-16.15,40.22,-1.00
22612.00,-7.39,-6.40,-1.45,0.01,-1.10,0.96,-29.02,-16.15,40.22,-1.00
22624.00,-7.31,-6.38,-1.85,-0.01,-1.08,0.97,-29.02,-16.15,40.22,-1.00
22636.00,-7.31,-6.38,-1.85,-0.01,-1.08,0.97,-29.02,-16.15,40.22,-1.00
22650.00,-7.32,-6.54,-1.74,-0.01,-1.11,0.96,-29.02,-16.15,40.22,-1.00
22664.00,-7.27,-6.40,-1.41,-0.01,-1.14,0.97,-29.02,-16.15,40.22,-1.00
22675.00,-7.27,-6.40,-1.41,-0.01,-1.14,0.97,-29.02,-16.15,40.22,-1.00
22689.00,-7.19,-6.22,-1.54,0.02,-1.10,0.96,-29.02,-16.15,40.22,-1.00
22701.00,-7.19,-6.22,-1.54,0.02,-1.10,0.96,-29.02,-16.15,40.22,-1.00
22713.00,-7.45,-6.25,-1.77,0.04,-1.06,0.90,-28.32,-16.33,41.34,-1.00
22725.00,-7.32,-6.51,-1.86,0.05,-1.06,0.89,-28.32,-16.33,41.34,-1.00
22739.00,-7.32,-6.51,-1.86,0.05,-1.06,0.89,-28.32,-16.33,41.34,-1.00
22751.00,-7.34,-6.65,-1.73,0.05,-1.11,0.92,-28.32,-16.33,41.34,-1.00
22763.00,-7.18,-6.66,-1.49,0.04,-1.10,0.97,-28.32,-16.33,41.34,-1.00
22777.00,-7.18,-6.66,-1.49,0.04,-1.10,0.97,-28.32,-16.33,41.34,-1.00
22789.00,-7.22,-6.35,-1.79,0.03,-1.06,1.00,-28.32,-16.33,41.34,-1.00
22801.00,-7.22,-6.35,-1.79,0.03,-1.06,1.00,-28.32,-16.33,41.34,-1.00
22813.00,-7.31,-6.39,-1.65,0.01,-1.06,0.99,-28.32,-16.33,41.34,-1.00
22828.00,-7.32,-6.55,-2.10,-0.01,-1.02,0.96,-28.32,-16.33,41.34,-1.00
22839.00,-7.32,-6.55,-2.10,-0.01,-1.02,0.96,-28.32,-16.33,41.34,-1.00
22851.00,-7.28,-6.29,-1.88,0.00,-1.06,0.96,-29.44,-14.17,38.21,-1.00
22863.00,-7.16,-6.32,-1.94,-0.01,-1.06,0.93,-29.44,-14.17,38.21,-1.00
22877.00,-7.16,-6.32,-1.94,-0.01,-1.06,0.93,-29.44,-14.17,38.21,-1.00
22889.00,-7.25,-6.60,-2.10,-0.03,-1.05,0.91,-29.44,-14.17,38.21,-1.00
22901.00,-7.25,-6.60,-2.10,-0.03,-1.05,0.91,-29.44,-14.17,38.21,-1.00
22915.00,-7.28,-6.38,-1.99,-0.02,-1.06,0.93,-29.44,-14.17,38.21,-1.00
22927.00,-7.37,-6.25,-1.81,-0.04,-1.09,0.94,-29.44,-14.17,38.21,-1.00
22939.00,-7.37,-6.25,-1.81,-0.04,-1.09,0.94,-29.44,-14.17,38.21,-1.00
22951.00,-7.25,-6.42,-1.90,-0.04,-1.09,0.92,-29.44,-14.17,38.21,-1.00
22965.00,-7.09,-6.60,-2.00,-0.04,-1.11,0.92,-29.16,-14.53,37.77,-1.00
22977.00,-7.09,-6.60,-2.00,-0.04,-1.11,0.92,-29.16,-14.53,37.77,-1.00
22989.00,-7.23,-6.49,-2.06,-0.04,-1.08,0.93,-29.16,-14.53,37.77,-1.00
23001.00,-7.23,-6.49,-2.06,-0.04,-1.08,0.93,-29.16,-14.53,37.77,-1.00
23015.00,-7.28,-6.34,-2.09,-0.08,-1.04,0.94,-29.16,-14.53,37.77,-1.00
23027.00,-7.16,-6.47,-2.15,-0.12,-1.07,0.93,-29.16,-14.53,37.77,-1.00
23039.00,-7.16,-6.47,-2.15,-0.12,-1.07,0.93,-29.16,-14.53,37.77,-1.00
23053.00,-7.09,-6.56,-1.91,-0.09,-1.10,0.93,-29.16,-14.53,37.77,-1.00
23065.00,-7.10,-6.33,-2.02,-0.10,-1.05,0.94,-29.16,-14.53,37.77,-1.00
23077.00,-7.10,-6.33,-2.02,-0.10,-1.05,0.94,-29.16,-14.53,37.77,-1.00
23089.00,-7.36,-6.27,-2.69,-0.13,-0.99,0.93,-30.97,-16.15,35.76,-1.00
23104.00,-7.28,-5.92,-2.59,-0.11,-1.05,0.95,-30.97,-16.15,35.76,-1.00
23115.00,-7.28,-5.92,-2.59,-0.11,-1.05,0.95,-30.97,-16.15,35.76,-1.00
23127.00,-7.24,-6.37,-2.77,-0.12,-1.09,0.91,-30.97,-16.15,35.76,-1.00
23141.00,-7.24,-6.37,-2.77,-0.12,-1.09,0.91,-30.97,-16.15,35.76,-1.00
23153.00,-7.29,-6.57,-2.08,-0.07,-1.16,0.88,-30.97,-16.15,35.76,-1.00
23165.00,-7.21,-6.06,-2.56,-0.12,-1.12,0.91,-30.97,-16.15,35.76,-1.00
23177.00,-7.21,-6.06,-2.56,-0.12,-1.12,0.91,-30.97,-16.15,35.76,-1.00
23191.00,-7.24,-6.72,-2.27,-0.13,-1.14,0.88,-30.97,-16.15,35.76,-1.00
23203.00,-7.16,-6.66,-2.44,-0.12,-1.18,0.93,-30.97,-16.15,35.76,-1.00
23215.00,-7.16,-6.66,-2.44,-0.12,-1.18,0.93,-30.97,-16.15,35.76,-1.00
23227.00,-6.95,-6.75,-2.13,-0.14,-1.18,0.97,-30.27,-16.33,35.09,-1.00
23241.00,-6.95,-6.75,-2.13,-0.14,-1.18,0.97,-30.27,-16.33,35.09,-1.00
23253.00,-6.99,-6.67,-1.98,-0.11,-1.18,0.97,-30.27,-16.33,35.09,-1.00
23265.00,-6.98,-6.63,-2.33,-0.10,-1.11,0.98,-30.27,-16.33,35.09,-1.00
23279.00,-6.98,-6.63,-2.33,-0.10,-1.11,0.98,-30.27,-16.33,35.09,-1.00
23291.00,-7.09,-6.49,-2.17,-0.12,-1.11,0.98,-30.27,-16.33,35.09,-1.00
23303.00,-7.09,-6.49,-2.17,-0.12,-1.11,0.98,-30.27,-16.33,35.09,-1.00
23315.00,-7.07,-6.63,-2.61,-0.17,-1.08,0.99,-30.27,-16.33,35.09,-1.00
23329.00,-7.19,-6.20,-2.75,-0.15,-1.11,1.01,-30.27,-16.33,35.09,-1.00
23341.00,-7.19,-6.20,-2.75,-0.15,-1.11,1.01,-30.27,-16.33,35.09,-1.00
23353.00,-7.43,-5.83,-2.80,-0.17,-1.13,0.99,-29.30,-17.94,33.97,-1.00
23367.00,-7.35,-5.79,-3.03,-0.23,-1.12,0.96,-29.30,-17.94,33.97,-1.00
23379.00,-7.35,-5.79,-3.03,-0.23,-1.12,0.96,-29.30,-17.94,33.97,-1.00
23391.00,-7.30,-6.51,-2.91,-0.26,-1.17,0.91,-29.30,-17.94,33.97,-1.00
23403.00,-7.30,-6.51,-2.91,-0.26,-1.17,0.91,-29.30,-17.94,33.97,-1.00
23417.00,-7.41,-6.41,-2.79,-0.23,-1.20,0.95,-29.30,-17.94,33.97,-1.00
23429.00,-7.63,-6.15,-2.87,-0.24,-1.23,1.01,-29.30,-17.94,33.97,-1.00
23441.00,-7.63,-6.15,-2.87,-0.24,-1.23,1.01,-29.30,-17.94,33.97,-1.00
23453.00,-7.25,-6.05,-2.81,-0.26,-1.27,1.04,-29.30,-17.94,33.97,-1.00
23467.00,-7.03,-6.24,-2.59,-0.24,-1.32,1.01,-30.97,-16.87,31.74,-1.00
23479.00,-7.03,-6.24,-2.59,-0.24,-1.32,1.01,-30.97,-16.87,31.74,-1.00
23491.00,-7.22,-6.25,-2.59,-0.25,-1.29,1.02,-30.97,-16.87,31.74,-1.00
23505.00,-7.18,-5.89,-3.28,-0.29,-1.27,1.02,-30.97,-16.87,31.74,-1.00
23517.00,-7.18,-5.89,-3.28,-0.29,-1.27,1.02,-30.97,-16.87,31.74,-1.00
23529.00,-7.00,-6.37,-2.38,-0.27,-1.33,0.97,-30.97,-16.87,31.74,-1.00
23541.00,-7.00,-6.37,-2.38,-0.27,-1.33,0.97,-30.97,-16.87,31.74,-1.00
23555.00,-7.17,-6.20,-2.72,-0.28,-1.29,0.98,-30.97,-16.87,31.74,-1.00
23567.00,-7.38,-5.94,-3.03,-0.25,-1.28,0.98,-30.97,-16.87,31.74,-1.00
23579.00,-7.38,-5.94,-3.03,-0.25,-1.28,0.98,-30.97,-16.87,31.74,-1.00
23593.00,-7.27,-6.28,-2.96,-0.25,-1.31,1.00,-29.58,-16.15,31.29,-1.00
23682.00,-7.52,-6.35,-3.06,-0.25,-1.47,1.17,-29.58,-16.15,31.29,-1.00
23769.00,-7.63,-5.66,-2.87,-0.14,-1.63,1.15,-31.81,-13.27,32.63,-1.00
23858.00,-7.78,-5.66,-2.35,0.14,-1.73,1.21,-32.23,-12.73,35.98,-1.00
23871.00,-7.68,-5.33,-1.92,0.15,-1.80,1.20,-32.23,-12.73,35.98,-1.00
23883.00,-7.68,-5.33,-1.92,0.15,-1.80,1.20,-32.23,-12.73,35.98,-1.00
23895.00,-7.65,-5.43,-1.77,0.16,-1.71,1.11,-32.23,-12.73,35.98,-1.00
23907.00,-7.76,-5.60,-2.31,0.13,-1.64,1.06,-32.23,-12.73,35.98,-1.00
23921.00,-7.76,-5.60,-2.31,0.13,-1.64,1.06,-32.23,-12.73,35.98,-1.00
23933.00,-7.99,-5.34,-2.29,0.20,-1.67,1.04,-32.23,-12.73,35.98,-1.00
23945.00,-7.55,-5.74,-2.23,0.22,-1.68,1.03,-32.23,-12.73,35.98,-1.00
23959.00,-7.55,-5.74,-2.23,0.22,-1.68,1.03,-32.23,-12.73,35.98,-1.00
23971.00,-7.74,-5.63,-1.35,0.21,-1.64,1.00,-33.07,-12.37,38.66,-1.00
23983.00,-7.74,-5.63,-1.35,0.21,-1.64,1.00,-33.07,-12.37,38.66,-1.00
23995.00,-7.84,-5.91,-2.07,0.17,-1.46,0.93,-33.07,-12.37,38.66,-1.00
24009.00,-8.03,-5.56,-1.31,0.23,-1.43,0.93,-33.07,-12.37,38.66,-1.00
24021.00,-8.03,-5.56,-1.31,0.23,-1.43,0.93,-33.07,-12.37,38.66,-1.00
24033.00,-7.80,-5.74,-1.59,0.25,-1.39,0.91,-33.07,-12.37,38.66,-1.00
24045.00,-7.82,-6.00,-1.25,0.21,-1.38,0.90,-33.07,-12.37,38.66,-1.00
24059.00,-7.82,-6.00,-1.25,0.21,-1.38,0.90,-33.07,-12.37,38.66,-1.00
24071.00,-7.80,-5.78,-1.21,0.16,-1.30,0.92,-33.07,-12.37,38.66,-1.00
24083.00,-7.80,-5.78,-1.21,0.16,-1.30,0.92,-33.07,-12.37,38.66,-1.00
24097.00,-7.78,-5.71,-1.80,0.15,-1.23,0.92,-31.67,-12.02,40.89,-1.00
24109.00,-7.64,-5.52,-1.33,0.22,-1.26,0.89,-31.67,-12.02,40.89,-1.00
24121.00,-7.64,-5.52,-1.33,0.22,-1.26,0.89,-31.67,-12.02,40.89,-1.00
24133.00,-7.93,-5.63,-1.33,0.22,-1.21,0.82,-31.67,-12.02,40.89,-1.00
24148.00,-8.27,-5.53,-1.46,0.18,-1.14,0.79,-31.67,-12.02,40.89,-1.00
24159.00,-8.27,-5.53,-1.46,0.18,-1.14,0.79,-31.67,-12.02,40.89,-1.00
24171.00,-7.91,-5.67,-1.48,0.12,-1.12,0.77,-31.67,-12.02,40.89,-1.00
24185.00,-8.01,-5.89,-1.57,0.06,-1.08,0.80,-31.67,-12.02,40.89,-1.00
24197.00,-8.01,-5.89,-1.57,0.06,-1.08,0.80,-31.67,-12.02,40.89,-1.00
24209.00,-7.80,-5.60,-1.57,0.02,-1.07,0.84,-31.67,-12.02,40.89,-1.00
24221.00,-7.80,-5.60,-1.57,0.02,-1.07,0.84,-31.67,-12.02,40.89,-1.00
24235.00,-7.58,-5.84,-1.48,0.02,-1.04,0.82,-30.97,-12.19,42.45,-1.00
24247.00,-7.57,-5.82,-1.60,0.02,-0.99,0.79,-30.97,-12.19,42.45,-1.00
24259.00,-7.57,-5.82,-1.60,0.02,-0.99,0.79,-30.97,-12.19,42.45,-1.00
24271.00,-7.61,-5.95,-1.52,0.00,-0.95,0.74,-30.97,-12.19,42.45,-1.00
24285.00,-7.58,-6.05,-1.47,-0.07,-0.90,0.72,-30.97,-12.19,42.45,-1.00
24297.00,-7.58,-6.05,-1.47,-0.07,-0.90,0.72,-30.97,-12.19,42.45,-1.00
24309.00,-7.66,-6.08,-1.80,-0.11,-0.87,0.77,-30.97,-12.19,42.45,-1.00
24323.00,-7.66,-6.08,-1.80,-0.11,-0.87,0.77,-30.97,-12.19,42.45,-1.00
24335.00,-7.71,-5.90,-1.60,-0.07,-0.91,0.84,-30.97,-12.19,42.45,-1.00
24347.00,-7.91,-5.63,-1.86,-0.06,-0.93,0.86,-30.83,-11.66,39.55,-1.00
24359.00,-7.91,-5.63,-1.86,-0.06,-0.93,0.86,-30.83,-11.66,39.55,-1.00
24373.00,-7.63,-5.89,-1.87,-0.07,-0.94,0.80,-30.83,-11.66,39.55,-1.00
24385.00,-7.73,-5.95,-2.17,-0.06,-0.93,0.80,-30.83,-11.66,39.55,-1.00
24397.00,-7.73,-5.95,-2.17,-0.06,-0.93,0.80,-30.83,-11.66,39.55,-1.00
24409.00,-7.68,-6.17,-1.97,-0.08,-0.92,0.81,-30.83,-11.66,39.55,-1.00
24424.00,-7.68,-6.17,-1.97,-0.08,-0.92,0.81,-30.83,-11.66,39.55,-1.00
24435.00,-7.75,-5.92,-2.16,-0.07,-0.90,0.85,-30.83,-11.66,39.55,-1.00
24447.00,-7.47,-5.86,-2.04,-0.09,-0.91,0.86,-30.83,-11.66,39.55,-1.00
24462.00,-7.47,-5.86,-2.04,-0.09,-0.91,0.86,-30.83,-11.66,39.55,-1.00
24473.00,-7.35,-6.34,-2.24,-0.09,-0.89,0.83,-30.41,-14.71,35.76,-1.00
24485.00,-7.56,-6.21,-2.37,-0.13,-0.91,0.86,-30.41,-14.71,35.76,-1.00
24497.00,-7.56,-6.21,-2.37,-0.13,-0.91,0.86,-30.41,-14.71,35.76,-1.00
24511.00,-7.40,-6.01,-2.38,-0.13,-0.93,0.90,-30.41,-14.71,35.76,-1.00
24600.00,-7.56,-6.04,-2.61,-0.03,-0.99,0.87,-31.11,-15.97,34.19,-1.00
24688.00,-7.29,-6.06,-2.72,-0.06,-1.02,0.92,-31.11,-15.97,34.19,-1.00
24701.00,-7.29,-6.06,-2.72,-0.06,-1.02,0.92,-31.11,-15.97,34.19,-1.00
24713.00,-7.42,-6.07,-2.50,-0.05,-1.03,0.89,-31.11,-15.97,34.19,-1.00
24725.00,-7.26,-6.02,-2.47,-0.06,-0.99,0.88,-31.11,-15.97,31.52,-1.00
24737.00,-7.26,-6.02,-2.47,-0.06,-0.99,0.88,-31.11,-15.97,31.52,-1.00
24751.00,-7.20,-6.20,-3.21,-0.07,-0.98,0.88,-31.11,-15.97,31.52,-1.00
24763.00,-7.20,-6.20,-3.21,-0.07,-0.98,0.88,-31.11,-15.97,31.52,-1.00
24775.00,-7.30,-5.99,-2.63,-0.06,-1.08,0.90,-31.11,-15.97,31.52,-1.00
24787.00,-7.42,-5.88,-2.86,-0.10,-1.04,0.87,-31.11,-15.97,31.52,-1.00
24801.00,-7.42,-5.88,-2.86,-0.10,-1.04,0.87,-31.11,-15.97,31.52,-1.00
24813.00,-7.33,-6.02,-2.44,-0.09,-1.03,0.84,-31.11,-15.97,31.52,-1.00
24825.00,-7.27,-6.09,-3.65,-0.09,-0.94,0.86,-31.11,-15.97,31.52,-1.00
24839.00,-7.27,-6.09,-3.65,-0.09,-0.94,0.86,-31.11,-15.97,31.52,-1.00
24851.00,-7.19,-5.94,-2.71,-0.01,-1.02,0.85,-30.69,-16.15,29.95,-1.00
24863.00,-7.19,-5.94,-2.71,-0.01,-1.02,0.85,-30.69,-16.15,29.95,-1.00
24875.00,-7.45,-5.82,-3.06,0.00,-1.01,0.82,-30.69,-16.15,29.95,-1.00
24890.00,-7.11,-6.23,-3.07,-0.02,-1.02,0.79,-30.69,-16.15,29.95,-1.00
24901.00,-7.11,-6.23,-3.07,-0.02,-1.02,0.79,-30.69,-16.15,29.95,-1.00
24913.00,-7.28,-6.62,-2.85,-0.05,-1.07,0.80,-30.69,-16.15,29.95,-1.00
24927.00,-7.08,-6.37,-3.11,-0.11,-1.00,0.89,-30.69,-16.15,29.95,-1.00
24939.00,-7.08,-6.37,-3.11,-0.11,-1.00,0.89,-30.69,-16.15,29.95,-1.00
24951.00,-7.07,-6.22,-2.96,-0.11,-1.04,0.92,-30.69,-16.15,29.95,-1.00
24963.00,-7.07,-6.22,-2.96,-0.11,-1.04,0.92,-30.69,-16.15,29.95,-1.00
24977.00,-6.91,-6.20,-3.50,-0.18,-1.04,0.94,-31.39,-17.05,27.50,-1.00
24989.00,-6.98,-6.25,-3.12,-0.12,-1.11,0.90,-31.39,-17.05,27.50,-1.00
25001.00,-6.98,-6.25,-3.12,-0.12,-1.11,0.90,-31.39,-17.05,27.50,-1.00
25013.00,-7.01,-6.46,-2.95,-0.09,-1.11,0.89,-31.39,-17.05,27.50,-1.00
25027.00,-7.05,-6.51,-3.40,-0.13,-1.07,0.92,-31.39,-17.05,27.50,-1.00
25039.00,-7.05,-6.51,-3.40,-0.13,-1.07,0.92,-31.39,-17.05,27.50,-1.00
25051.00,-7.07,-6.40,-3.39,-0.13,-1.12,0.97,-31.39,-17.05,27.50,-1.00
25066.00,-7.16,-5.37,-3.75,-0.13,-1.16,1.01,-31.39,-17.05,27.50,-1.00
25077.00,-7.16,-5.37,-3.75,-0.13,-1.16,1.01,-31.39,-17.05,27.50,-1.00
25089.00,-7.24,-5.81,-3.29,-0.19,-1.20,0.91,-31.67,-16.69,28.39,-1.00
25101.00,-7.24,-5.81,-3.29,-0.19,-1.20,0.91,-31.67,-16.69,28.39,-1.00
25115.00,-7.15,-6.44,-3.21,-0.25,-1.18,0.88,-31.67,-16.69,28.39,-1.00
25127.00,-6.92,-6.65,-3.28,-0.23,-1.17,0.95,-31.67,-16.69,28.39,-1.00
25139.00,-6.92,-6.65,-3.28,-0.23,-1.17,0.95,-31.67,-16.69,28.39,-1.00
