time,ax,ay,az,gx,gy,gz,mx,my,mz,pressure
2.00,-0.43,6.05,-8.10,0.00,-1.25,1.00,-15.47,38.30,-14.02,-1.00
14.00,-0.43,6.05,-8.10,0.00,-1.25,1.00,-15.47,38.30,-14.02,-1.00
26.00,-0.40,6.02,-8.15,-0.01,-1.25,1.00,-15.47,38.30,-14.02,-1.00
38.00,-0.40,6.02,-8.15,-0.01,-1.25,1.00,-15.47,38.30,-14.02,-1.00
99.00,-0.42,6.01,-8.13,0.00,-1.21,0.96,-15.19,37.22,-11.78,-1.00
111.00,-0.42,6.01,-8.13,0.00,-1.21,0.96,-15.19,37.22,-11.78,-1.00
123.00,-0.43,6.04,-8.13,0.00,-1.21,0.95,-15.19,37.22,-11.78,-1.00
137.00,-0.43,6.04,-8.13,0.00,-1.21,0.95,-15.19,37.22,-11.78,-1.00
149.00,-0.42,6.06,-8.12,0.00,-1.22,0.95,-15.19,37.22,-11.78,-1.00
161.00,-0.43,6.06,-8.09,0.00,-1.22,0.95,-15.19,37.22,-11.78,-1.00
173.00,-0.43,6.06,-8.09,0.00,-1.22,0.95,-15.19,37.22,-11.78,-1.00
187.00,-0.43,6.03,-8.12,0.00,-1.22,0.95,-15.19,37.22,-11.78,-1.00
199.00,-0.46,6.00,-8.20,0.00,-1.22,0.96,-15.89,38.84,-14.24,-1.00
211.00,-0.46,6.00,-8.20,0.00,-1.22,0.96,-15.89,38.84,-14.24,-1.00
223.00,-0.39,5.96,-8.18,0.00,-1.23,0.97,-15.89,38.84,-14.24,-1.00
237.00,-0.39,5.96,-8.18,0.00,-1.23,0.97,-15.89,38.84,-14.24,-1.00
249.00,-0.41,6.01,-8.12,-0.01,-1.24,0.99,-15.89,38.84,-14.24,-1.00
261.00,-0.44,6.06,-8.10,-0.01,-1.25,0.99,-15.89,38.84,-14.24,-1.00
273.00,-0.44,6.06,-8.10,-0.01,-1.25,0.99,-15.89,38.84,-14.24,-1.00
287.00,-0.41,6.20,-8.24,-0.01,-1.24,0.99,-15.89,38.84,-14.24,-1.00
300.00,-0.46,6.19,-8.08,-0.01,-1.24,0.99,-15.89,38.84,-14.24,-1.00
312.00,-0.46,6.19,-8.08,-0.01,-1.24,0.99,-15.89,38.84,-14.24,-1.00
324.00,-0.44,6.07,-8.11,0.00,-1.22,0.97,-15.61,38.84,-14.24,-1.00
338.00,-0.44,6.07,-8.11,0.00,-1.22,0.97,-15.61,38.84,-14.24,-1.00
350.00,-0.41,6.09,-8.21,0.01,-1.22,0.96,-15.61,38.84,-14.24,-1.00
362.00,-0.39,6.08,-8.18,0.02,-1.21,0.96,-15.61,38.84,-14.24,-1.00
376.00,-0.39,6.08,-8.18,0.02,-1.21,0.96,-15.61,38.84,-14.24,-1.00
388.00,-0.40,6.05,-8.11,0.03,-1.22,0.96,-15.61,38.84,-14.24,-1.00
400.00,-0.41,6.05,-8.13,0.02,-1.22,0.96,-15.61,38.84,-14.24,-1.00
412.00,-0.41,6.05,-8.13,0.02,-1.22,0.96,-15.61,38.84,-14.24,-1.00
427.00,-0.41,6.04,-8.13,0.01,-1.22,0.96,-15.61,38.84,-14.24,-1.00
438.00,-0.41,6.04,-8.13,0.01,-1.22,0.96,-15.61,38.84,-14.24,-1.00
450.00,-0.42,6.11,-8.10,0.01,-1.22,0.96,-13.51,36.86,-14.91,-1.00
462.00,-0.44,6.10,-8.14,0.01,-1.22,0.96,-13.51,36.86,-14.91,-1.00
476.00,-0.44,6.10,-8.14,0.01,-1.22,0.96,-13.51,36.86,-14.91,-1.00
488.00,-0.45,6.04,-8.13,0.01,-1.22,0.96,-13.51,36.86,-14.91,-1.00
500.00,-0.44,6.05,-8.17,0.01,-1.21,0.95,-13.51,36.86,-14.91,-1.00
512.00,-0.44,6.05,-8.17,0.01,-1.21,0.95,-13.51,36.86,-14.91,-1.00
526.00,-0.40,6.04,-8.16,0.01,-1.22,0.95,-13.51,36.86,-14.91,-1.00
538.00,-0.40,6.04,-8.16,0.01,-1.22,0.95,-13.51,36.86,-14.91,-1.00
550.00,-0.39,6.02,-8.12,0.01,-1.22,0.95,-13.51,36.86,-14.91,-1.00
562.00,-0.39,6.04,-8.16,0.01,-1.22,0.95,-13.51,36.86,-14.91,-1.00
577.00,-0.39,6.04,-8.16,0.01,-1.22,0.95,-13.51,36.86,-14.91,-1.00
588.00,-0.39,6.04,-8.15,0.01,-1.22,0.95,-13.93,37.76,-14.24,-1.00
600.00,-0.40,6.04,-8.14,0.01,-1.22,0.96,-13.93,37.76,-14.24,-1.00
615.00,-0.40,6.04,-8.14,0.01,-1.22,0.96,-13.93,37.76,-14.24,-1.00
626.00,-0.43,6.09,-8.12,0.00,-1.22,0.96,-13.93,37.76,-14.24,-1.00
638.00,-0.43,6.09,-8.12,0.00,-1.22,0.96,-13.93,37.76,-14.24,-1.00
650.00,-0.43,6.07,-8.15,0.00,-1.22,0.96,-13.93,37.76,-14.24,-1.00
664.00,-0.44,6.06,-8.12,0.01,-1.22,0.96,-13.93,37.76,-14.24,-1.00
676.00,-0.44,6.06,-8.12,0.01,-1.22,0.96,-13.93,37.76,-14.24,-1.00
688.00,-0.43,6.06,-8.15,0.01,-1.22,0.96,-13.93,37.76,-14.24,-1.00
700.00,-0.42,6.04,-8.16,0.01,-1.22,0.95,-14.49,38.48,-14.24,-1.00
714.00,-0.42,6.04,-8.16,0.01,-1.22,0.95,-14.49,38.48,-14.24,-1.00
727.00,-0.40,6.02,-8.16,0.01,-1.22,0.95,-14.49,38.48,-14.24,-1.00
738.00,-0.40,6.02,-8.16,0.01,-1.22,0.95,-14.49,38.48,-14.24,-1.00
750.00,-0.40,6.04,-8.15,0.01,-1.22,0.96,-14.49,38.48,-14.24,-1.00
764.00,-0.41,6.02,-8.15,0.01,-1.22,0.95,-14.49,38.48,-14.24,-1.00
776.00,-0.41,6.02,-8.15,0.01,-1.22,0.95,-14.49,38.48,-14.24,-1.00
788.00,-0.44,6.03,-8.14,0.01,-1.22,0.95,-14.49,38.48,-14.24,-1.00
800.00,-0.41,6.04,-8.15,0.01,-1.22,0.95,-14.49,38.48,-14.24,-1.00
814.00,-0.41,6.04,-8.15,0.01,-1.22,0.95,-14.49,38.48,-14.24,-1.00
826.00,-0.39,6.07,-8.17,0.01,-1.22,0.95,-15.19,37.58,-14.02,-1.00
838.00,-0.39,6.07,-8.17,0.01,-1.22,0.95,-15.19,37.58,-14.02,-1.00
852.00,-0.41,6.02,-8.11,0.00,-1.22,0.96,-15.19,37.58,-14.02,-1.00
864.00,-0.44,6.03,-8.12,0.00,-1.22,0.96,-15.19,37.58,-14.02,-1.00
876.00,-0.44,6.03,-8.12,0.00,-1.22,0.96,-15.19,37.58,-14.02,-1.00
888.00,-0.42,6.07,-8.16,0.00,-1.22,0.95,-15.19,37.58,-14.02,-1.00
902.00,-0.44,6.01,-8.13,0.01,-1.22,0.95,-15.19,37.58,-14.02,-1.00
914.00,-0.44,6.01,-8.13,0.01,-1.22,0.95,-15.19,37.58,-14.02,-1.00
926.00,-0.43,6.04,-8.14,0.01,-1.22,0.95,-15.19,37.58,-14.02,-1.00
938.00,-0.43,6.04,-8.14,0.01,-1.22,0.95,-15.19,37.58,-14.02,-1.00
952.00,-0.44,6.04,-8.18,0.00,-1.22,0.95,-13.65,38.84,-14.24,-1.00
964.00,-0.42,6.03,-8.16,0.01,-1.22,0.95,-13.65,38.84,-14.24,-1.00
976.00,-0.42,6.03,-8.16,0.01,-1.22,0.95,-13.65,38.84,-14.24,-1.00
988.00,-0.41,6.04,-8.18,0.01,-1.21,0.95,-13.65,38.84,-14.24,-1.00
1002.00,-0.40,6.02,-8.11,0.01,-1.22,0.95,-13.65,38.84,-14.24,-1.00
1014.00,-0.40,6.02,-8.11,0.01,-1.22,0.95,-13.65,38.84,-14.24,-1.00
1026.00,-0.40,6.03,-8.12,0.00,-1.22,0.95,-13.65,38.84,-14.24,-1.00
1038.00,-0.40,6.03,-8.12,0.00,-1.22,0.95,-13.65,38.84,-14.24,-1.00
1052.00,-0.42,6.05,-8.15,0.00,-1.22,0.95,-13.65,38.84,-14.24,-1.00
1064.00,-0.42,6.03,-8.12,0.01,-1.22,0.95,-13.65,38.84,-14.24,-1.00
1076.00,-0.42,6.03,-8.12,0.01,-1.22,0.95,-13.65,38.84,-14.24,-1.00
1090.00,-0.44,6.04,-8.16,0.00,-1.22,0.95,-14.77,39.92,-13.35,-1.00
1102.00,-0.43,6.06,-8.14,0.00,-1.22,0.95,-14.77,39.92,-13.35,-1.00
1114.00,-0.43,6.06,-8.14,0.00,-1.22,0.95,-14.77,39.92,-13.35,-1.00
1126.00,-0.42,6.04,-8.15,0.00,-1.22,0.95,-14.77,39.92,-13.35,-1.00
1141.00,-0.43,6.04,-8.15,0.00,-1.22,0.95,-14.77,39.92,-13.35,-1.00
1152.00,-0.43,6.04,-8.15,0.00,-1.22,0.95,-14.77,39.92,-13.35,-1.00
1164.00,-0.43,6.05,-8.15,0.00,-1.22,0.95,-14.77,39.92,-13.35,-1.00
1176.00,-0.43,6.05,-8.15,0.00,-1.22,0.95,-14.77,39.92,-13.35,-1.00
1190.00,-0.42,6.02,-8.14,0.01,-1.22,0.95,-14.77,39.92,-13.35,-1.00
1202.00,-0.43,6.05,-8.18,0.00,-1.22,0.95,-14.77,38.84,-14.24,-1.00
1214.00,-0.43,6.05,-8.18,0.00,-1.22,0.95,-14.77,38.84,-14.24,-1.00
1226.00,-0.41,6.05,-8.15,0.00,-1.22,0.95,-14.77,38.84,-14.24,-1.00
1240.00,-0.41,6.03,-8.11,0.01,-1.22,0.95,-14.77,38.84,-14.24,-1.00
1252.00,-0.41,6.03,-8.11,0.01,-1.22,0.95,-14.77,38.84,-14.24,-1.00
1264.00,-0.43,6.06,-8.15,0.00,-1.22,0.95,-14.77,38.84,-14.24,-1.00
1276.00,-0.43,6.06,-8.15,0.00,-1.22,0.95,-14.77,38.84,-14.24,-1.00
1291.00,-0.42,6.04,-8.14,0.00,-1.22,0.95,-14.77,38.84,-14.24,-1.00
1302.00,-0.42,6.03,-8.14,0.00,-1.22,0.95,-14.77,38.84,-14.24,-1.00
1315.00,-0.42,6.03,-8.14,0.00,-1.22,0.95,-14.77,38.84,-14.24,-1.00
1328.00,-0.42,6.05,-8.18,0.00,-1.22,0.95,-15.61,37.76,-14.69,-1.00
1340.00,-0.41,6.00,-8.18,0.00,-1.22,0.96,-15.61,37.76,-14.69,-1.00
1352.00,-0.41,6.00,-8.18,0.00,-1.22,0.96,-15.61,37.76,-14.69,-1.00
1364.00,-0.42,5.97,-8.18,0.00,-1.22,0.96,-15.61,37.76,-14.69,-1.00
1378.00,-0.42,5.97,-8.18,0.00,-1.22,0.96,-15.61,37.76,-14.69,-1.00
1467.00,-0.43,5.98,-8.20,0.01,-1.23,0.97,-15.89,38.84,-14.24,-1.00
1555.00,-0.42,6.04,-8.14,0.00,-1.22,0.95,-15.89,38.84,-14.24,-1.00
1645.00,-0.43,6.04,-8.16,0.00,-1.22,0.95,-15.19,39.02,-14.46,-1.00
1658.00,-0.43,6.04,-8.16,0.00,-1.22,0.95,-15.19,39.02,-14.46,-1.00
1670.00,-0.43,6.06,-8.17,0.00,-1.22,0.95,-15.19,39.02,-14.46,-1.00
1682.00,-0.43,6.04,-8.12,0.00,-1.22,0.95,-15.19,39.02,-14.46,-1.00
1694.00,-0.43,6.04,-8.12,0.00,-1.22,0.95,-15.19,39.02,-14.46,-1.00
1708.00,-0.42,6.05,-8.15,0.00,-1.22,0.95,-14.77,38.12,-15.58,-1.00
1720.00,-0.42,6.05,-8.15,0.00,-1.22,0.95,-14.77,38.12,-15.58,-1.00
1732.00,-0.43,6.05,-8.16,0.00,-1.22,0.95,-14.77,38.12,-15.58,-1.00
1746.00,-0.41,6.04,-8.14,0.00,-1.22,0.95,-14.77,38.12,-15.58,-1.00
1758.00,-0.41,6.04,-8.14,0.00,-1.22,0.95,-14.77,38.12,-15.58,-1.00
1770.00,-0.41,6.03,-8.15,0.00,-1.22,0.95,-14.77,38.12,-15.58,-1.00
1782.00,-0.41,6.04,-8.16,0.00,-1.22,0.95,-14.77,38.12,-15.58,-1.00
1796.00,-0.41,6.04,-8.16,0.00,-1.22,0.95,-14.77,38.12,-15.58,-1.00
1808.00,-0.41,6.01,-8.12,0.00,-1.22,0.95,-14.77,38.12,-15.58,-1.00
1820.00,-0.41,6.01,-8.12,0.00,-1.22,0.95,-14.77,38.12,-15.58,-1.00
1832.00,-0.41,6.04,-8.15,0.00,-1.22,0.95,-15.19,39.38,-14.91,-1.00
1846.00,-0.42,6.04,-8.16,0.00,-1.22,0.95,-15.19,39.38,-14.91,-1.00
1858.00,-0.42,6.04,-8.16,0.00,-1.22,0.95,-15.19,39.38,-14.91,-1.00
1870.00,-0.44,6.03,-8.16,0.00,-1.22,0.95,-15.19,39.38,-14.91,-1.00
1882.00,-0.43,6.04,-8.15,0.00,-1.22,0.95,-15.19,39.38,-14.91,-1.00
1896.00,-0.43,6.04,-8.15,0.00,-1.22,0.95,-15.19,39.38,-14.91,-1.00
1908.00,-0.43,6.04,-8.14,0.00,-1.22,0.95,-15.19,39.38,-14.91,-1.00
1920.00,-0.43,6.04,-8.14,0.00,-1.22,0.95,-15.19,39.38,-14.91,-1.00
1935.00,-0.42,6.05,-8.16,0.00,-1.22,0.95,-15.19,39.38,-14.91,-1.00
1946.00,-0.43,6.04,-8.15,0.00,-1.22,0.95,-15.19,39.38,-14.91,-1.00
1958.00,-0.43,6.04,-8.15,0.00,-1.22,0.95,-15.19,39.38,-14.91,-1.00
1970.00,-0.42,6.04,-8.14,0.00,-1.22,0.95,-15.61,40.64,-15.58,-1.00
1984.00,-0.43,6.06,-8.16,0.00,-1.22,0.95,-15.61,40.64,-15.58,-1.00
1996.00,-0.43,6.06,-8.16,0.00,-1.22,0.95,-15.61,40.64,-15.58,-1.00
2008.00,-0.43,6.03,-8.14,0.00,-1.22,0.95,-15.61,40.64,-15.58,-1.00
2020.00,-0.43,6.03,-8.14,0.00,-1.22,0.95,-15.61,40.64,-15.58,-1.00
2034.00,-0.42,6.05,-8.13,0.00,-1.22,0.95,-15.61,40.64,-15.58,-1.00
2046.00,-0.42,6.05,-8.14,0.00,-1.22,0.95,-15.61,40.64,-15.58,-1.00
2058.00,-0.42,6.05,-8.14,0.00,-1.22,0.95,-15.61,40.64,-15.58,-1.00
2070.00,-0.39,6.03,-8.13,0.00,-1.22,0.96,-15.61,40.64,-15.58,-1.00
2084.00,-0.38,6.03,-8.18,0.00,-1.22,0.96,-14.91,39.74,-13.57,-1.00
2096.00,-0.38,6.03,-8.18,0.00,-1.22,0.96,-14.91,39.74,-13.57,-1.00
2108.00,-0.38,6.05,-8.14,0.00,-1.22,0.96,-14.91,39.74,-13.57,-1.00
2122.00,-0.41,6.05,-8.14,0.00,-1.22,0.96,-14.91,39.74,-13.57,-1.00
2134.00,-0.41,6.05,-8.14,0.00,-1.22,0.96,-14.91,39.74,-13.57,-1.00
2146.00,-0.43,6.05,-8.14,0.00,-1.22,0.95,-14.91,39.74,-13.57,-1.00
2158.00,-0.43,6.05,-8.14,0.00,-1.22,0.95,-14.91,39.74,-13.57,-1.00
2172.00,-0.43,6.04,-8.14,0.00,-1.22,0.95,-14.91,39.74,-13.57,-1.00
2184.00,-0.45,6.04,-8.16,0.00,-1.22,0.96,-14.91,39.74,-13.57,-1.00
2196.00,-0.45,6.04,-8.16,0.00,-1.22,0.96,-14.91,39.74,-13.57,-1.00
2208.00,-0.43,6.04,-8.17,0.00,-1.22,0.96,-15.75,38.30,-14.91,-1.00
2222.00,-0.40,6.04,-8.17,0.00,-1.22,0.96,-15.75,38.30,-14.91,-1.00
2234.00,-0.40,6.04,-8.17,0.00,-1.22,0.96,-15.75,38.30,-14.91,-1.00
2246.00,-0.40,6.02,-8.19,0.00,-1.22,0.96,-15.75,38.30,-14.91,-1.00
2258.00,-0.40,6.02,-8.19,0.00,-1.22,0.96,-15.75,38.30,-14.91,-1.00
2272.00,-0.40,6.01,-8.16,0.00,-1.22,0.96,-15.75,38.30,-14.91,-1.00
2284.00,-0.41,6.04,-8.14,0.00,-1.22,0.96,-15.75,38.30,-14.91,-1.00
2296.00,-0.41,6.04,-8.14,0.00,-1.22,0.96,-15.75,38.30,-14.91,-1.00
2310.00,-0.41,6.05,-8.13,0.00,-1.22,0.96,-15.75,38.30,-14.91,-1.00
2400.00,-0.43,6.05,-8.15,0.00,-1.22,0.95,-15.19,38.66,-14.46,-1.00
2487.00,-0.41,6.03,-8.14,0.00,-1.22,0.95,-14.91,39.38,-14.91,-1.00
2576.00,-0.43,6.04,-8.15,0.00,-1.22,0.95,-14.91,39.38,-14.91,-1.00
2590.00,-0.42,6.02,-8.16,0.00,-1.22,0.95,-15.47,39.02,-12.68,-1.00
2602.00,-0.40,6.04,-8.15,0.00,-1.22,0.95,-15.47,39.02,-12.68,-1.00
2614.00,-0.40,6.04,-8.15,0.00,-1.22,0.95,-15.47,39.02,-12.68,-1.00
2626.00,-0.39,6.03,-8.14,0.00,-1.22,0.95,-15.47,39.02,-12.68,-1.00
2640.00,-0.39,6.03,-8.14,0.00,-1.22,0.95,-15.47,39.02,-12.68,-1.00
2652.00,-0.41,6.01,-8.13,0.00,-1.22,0.95,-15.47,39.02,-12.68,-1.00
2664.00,-0.41,6.05,-8.16,0.00,-1.22,0.95,-15.47,39.02,-12.68,-1.00
2676.00,-0.41,6.05,-8.16,0.00,-1.22,0.95,-15.47,39.02,-12.68,-1.00
2690.00,-0.41,6.04,-8.16,0.00,-1.22,0.95,-15.47,39.02,-12.68,-1.00
2703.00,-0.44,6.03,-8.14,0.00,-1.22,0.95,-15.19,39.02,-17.14,-1.00
2715.00,-0.44,6.03,-8.14,0.00,-1.22,0.95,-15.19,39.02,-17.14,-1.00
2727.00,-0.43,6.04,-8.15,0.00,-1.22,0.95,-15.19,39.02,-17.14,-1.00
2741.00,-0.43,6.04,-8.15,0.00,-1.22,0.95,-15.19,39.02,-17.14,-1.00
2753.00,-0.40,6.03,-8.13,0.00,-1.22,0.95,-15.19,39.02,-17.14,-1.00
2765.00,-0.41,6.03,-8.14,0.00,-1.22,0.95,-15.19,39.02,-17.14,-1.00
2779.00,-0.41,6.03,-8.14,0.00,-1.22,0.95,-15.19,39.02,-17.14,-1.00
2791.00,-0.41,6.04,-8.16,0.00,-1.22,0.95,-15.19,39.02,-17.14,-1.00
2803.00,-0.41,6.04,-8.14,0.00,-1.22,0.95,-15.19,39.02,-17.14,-1.00
2815.00,-0.41,6.04,-8.14,0.00,-1.22,0.95,-15.19,39.02,-17.14,-1.00
2830.00,-0.42,6.04,-8.16,0.00,-1.22,0.95,-14.07,39.74,-14.02,-1.00
2841.00,-0.42,6.04,-8.16,0.00,-1.22,0.95,-14.07,39.74,-14.02,-1.00
2853.00,-0.44,6.06,-8.17,0.00,-1.22,0.95,-14.07,39.74,-14.02,-1.00
2865.00,-0.43,6.03,-8.16,0.00,-1.22,0.96,-14.07,39.74,-14.02,-1.00
2879.00,-0.43,6.03,-8.16,0.00,-1.22,0.96,-14.07,39.74,-14.02,-1.00
2891.00,-0.42,6.04,-8.17,0.00,-1.22,0.96,-14.07,39.74,-14.02,-1.00
2903.00,-0.41,6.04,-8.16,0.00,-1.22,0.96,-14.07,39.74,-14.02,-1.00
2915.00,-0.41,6.04,-8.16,0.00,-1.22,0.96,-14.07,39.74,-14.02,-1.00
2929.00,-0.42,6.04,-8.13,0.00,-1.22,0.95,-14.07,39.74,-14.02,-1.00
2941.00,-0.42,6.04,-8.13,0.00,-1.22,0.95,-14.07,39.74,-14.02,-1.00
2953.00,-0.40,6.04,-8.15,0.00,-1.22,0.96,-14.07,39.74,-14.02,-1.00
2967.00,-0.41,6.05,-8.15,0.01,-1.22,0.96,-14.21,40.99,-14.24,-1.00
2979.00,-0.41,6.05,-8.15,0.01,-1.22,0.96,-14.21,40.99,-14.24,-1.00
2991.00,-0.42,6.01,-8.12,0.01,-1.22,0.96,-14.21,40.99,-14.24,-1.00
3003.00,-0.40,6.04,-8.17,-0.01,-1.21,0.96,-14.21,40.99,-14.24,-1.00
3017.00,-0.40,6.04,-8.17,-0.01,-1.21,0.96,-14.21,40.99,-14.24,-1.00
3029.00,-0.40,6.02,-8.11,-0.03,-1.19,0.97,-14.21,40.99,-14.24,-1.00
3041.00,-0.40,6.02,-8.11,-0.03,-1.19,0.97,-14.21,40.99,-14.24,-1.00
3053.00,-0.39,6.10,-8.15,-0.06,-1.18,0.98,-14.21,40.99,-14.24,-1.00
3067.00,-0.38,6.12,-8.20,-0.03,-1.20,0.96,-14.21,40.99,-14.24,-1.00
3079.00,-0.38,6.12,-8.20,-0.03,-1.20,0.96,-14.21,40.99,-14.24,-1.00
3091.00,-0.40,6.19,-8.21,0.01,-1.21,0.96,-15.75,40.10,-14.46,-1.00
3103.00,-0.40,5.99,-8.10,0.01,-1.22,0.95,-15.75,40.10,-14.46,-1.00
3117.00,-0.40,5.99,-8.10,0.01,-1.22,0.95,-15.75,40.10,-14.46,-1.00
3129.00,-0.40,6.14,-8.17,-0.03,-1.21,0.96,-15.75,40.10,-14.46,-1.00
3141.00,-0.40,6.14,-8.17,-0.03,-1.21,0.96,-15.75,40.10,-14.46,-1.00
3155.00,-0.40,6.11,-8.15,0.00,-1.22,0.95,-15.75,40.10,-14.46,-1.00
3167.00,0.14,4.78,-9.12,-0.03,-1.22,0.95,-15.75,40.10,-14.46,-1.00
3179.00,0.14,4.78,-9.12,-0.03,-1.22,0.95,-15.75,40.10,-14.46,-1.00
3191.00,-0.63,5.72,-8.30,-0.00,-1.24,0.94,-15.75,40.10,-14.46,-1.00
3205.00,-0.17,6.37,-8.04,-0.02,-1.44,1.21,-15.19,39.02,-14.91,-1.00
3217.00,-0.17,6.37,-8.04,-0.02,-1.44,1.21,-15.19,39.02,-14.91,-1.00
3229.00,-0.33,6.25,-8.54,0.01,-1.43,1.25,-15.19,39.02,-14.91,-1.00
3241.00,-0.33,6.25,-8.54,0.01,-1.43,1.25,-15.19,39.02,-14.91,-1.00
3255.00,0.55,7.65,-10.43,0.45,-1.34,1.29,-15.19,39.02,-14.91,-1.00
3267.00,-0.36,6.26,-8.26,1.47,-1.37,1.37,-15.19,39.02,-14.91,-1.00
3279.00,-0.36,6.26,-8.26,1.47,-1.37,1.37,-15.19,39.02,-14.91,-1.00
3293.00,-0.46,6.30,-8.37,1.73,-1.39,1.40,-15.19,39.02,-14.91,-1.00
3305.00,-0.78,6.29,-9.29,2.11,-1.30,1.42,-15.19,39.02,-14.91,-1.00
3317.00,-0.78,6.29,-9.29,2.11,-1.30,1.42,-15.19,39.02,-14.91,-1.00
3329.00,-1.16,5.76,-10.34,3.16,-1.15,1.34,-13.65,36.32,-19.60,-1.00
3343.00,-0.11,3.99,-10.78,4.97,-0.99,1.32,-13.65,36.32,-19.60,-1.00
3355.00,-0.11,3.99,-10.78,4.97,-0.99,1.32,-13.65,36.32,-19.60,-1.00
3367.00,0.62,2.31,-9.35,6.74,-0.83,1.51,-13.65,36.32,-19.60,-1.00
3380.00,0.62,2.31,-9.35,6.74,-0.83,1.51,-13.65,36.32,-19.60,-1.00
3393.00,-0.07,0.79,-9.40,6.35,-0.69,1.50,-13.65,36.32,-19.60,-1.00
3405.00,-0.79,0.61,-11.42,4.06,-0.71,1.05,-13.65,36.32,-19.60,-1.00
3417.00,-0.79,0.61,-11.42,4.06,-0.71,1.05,-13.65,36.32,-19.60,-1.00
3429.00,-0.79,0.18,-11.66,3.52,-0.94,1.02,-13.65,36.32,-19.60,-1.00
3443.00,-0.15,-1.04,-10.37,3.84,-1.06,1.11,-13.65,36.32,-19.60,-1.00
3455.00,-0.15,-1.04,-10.37,3.84,-1.06,1.11,-13.65,36.32,-19.60,-1.00
3467.00,1.12,0.15,-12.10,3.02,-1.51,0.52,-8.76,10.27,-29.64,-1.00
3481.00,1.12,0.15,-12.10,3.02,-1.51,0.52,-8.76,10.27,-29.64,-1.00
3493.00,0.06,-1.66,-9.26,3.04,-2.20,-0.01,-8.76,10.27,-29.64,-1.00
3505.00,-1.38,-3.64,-7.48,2.51,-2.34,-0.05,-8.76,10.27,-29.64,-1.00
3517.00,-1.38,-3.64,-7.48,2.51,-2.34,-0.05,-8.76,10.27,-29.64,-1.00
3532.00,-0.62,-3.47,-10.06,0.64,-2.16,0.15,-8.76,10.27,-29.64,-1.00
3544.00,0.34,-3.73,-10.15,0.01,-2.07,0.47,-8.76,10.27,-29.64,-1.00
3556.00,0.34,-3.73,-10.15,0.01,-2.07,0.47,-8.76,10.27,-29.64,-1.00
3568.00,0.69,-2.62,-9.81,0.09,-2.05,0.57,-8.76,10.27,-29.64,-1.00
3582.00,0.69,-2.62,-9.81,0.09,-2.05,0.57,-8.76,10.27,-29.64,-1.00
3594.00,0.61,-2.28,-9.30,0.62,-2.12,0.43,-12.25,0.38,-28.97,-1.00
3606.00,-0.19,-2.96,-9.39,0.80,-2.28,0.25,-12.25,0.38,-28.97,-1.00
3618.00,-0.19,-2.96,-9.39,0.80,-2.28,0.25,-12.25,0.38,-28.97,-1.00
3632.00,0.09,-3.44,-9.59,0.87,-2.28,0.18,-12.25,0.38,-28.97,-1.00
3644.00,-0.60,-3.26,-9.54,0.35,-2.29,0.13,-12.25,0.38,-28.97,-1.00
3656.00,-0.60,-3.26,-9.54,0.35,-2.29,0.13,-12.25,0.38,-28.97,-1.00
3668.00,-1.04,-3.15,-8.77,0.01,-2.29,0.20,-12.25,0.38,-28.97,-1.00
3682.00,-1.04,-3.15,-8.77,0.01,-2.29,0.20,-12.25,0.38,-28.97,-1.00
3694.00,-1.42,-2.50,-9.16,-0.03,-2.23,0.43,-12.25,0.38,-28.97,-1.00
3706.00,-2.28,-1.91,-9.51,0.81,-2.10,0.54,-14.91,-3.39,-22.94,-1.00
3721.00,-2.28,-1.91,-9.51,0.81,-2.10,0.54,-14.91,-3.39,-22.94,-1.00
3732.00,-1.80,-1.73,-9.04,1.89,-1.87,0.32,-14.91,-3.39,-22.94,-1.00
3744.00,-2.57,-2.54,-8.72,3.01,-1.75,0.15,-14.91,-3.39,-22.94,-1.00
3756.00,-2.57,-2.54,-8.72,3.01,-1.75,0.15,-14.91,-3.39,-22.94,-1.00
3771.00,-2.43,-3.26,-8.63,3.49,-1.91,0.16,-14.91,-3.39,-22.94,-1.00
3783.00,-1.32,-4.83,-7.58,3.91,-2.09,0.14,-14.91,-3.39,-22.94,-1.00
3795.00,-1.32,-4.83,-7.58,3.91,-2.09,0.14,-14.91,-3.39,-22.94,-1.00
3807.00,-0.78,-5.79,-8.27,3.77,-2.10,-0.01,-14.91,-3.39,-22.94,-1.00
3821.00,-0.78,-5.79,-8.27,3.77,-2.10,-0.01,-14.91,-3.39,-22.94,-1.00
3833.00,-1.27,-6.91,-6.46,4.91,-1.97,0.12,-15.61,-22.98,-8.44,-1.00
3845.00,-2.13,-5.76,-6.85,5.99,-1.81,0.36,-15.61,-22.98,-8.44,-1.00
3859.00,-2.13,-5.76,-6.85,5.99,-1.81,0.36,-15.61,-22.98,-8.44,-1.00
3871.00,-1.98,-8.77,-4.02,7.41,-2.04,0.51,-15.61,-22.98,-8.44,-1.00
3883.00,-0.18,-11.63,-2.10,6.12,-2.50,0.68,-15.61,-22.98,-8.44,-1.00
3895.00,-0.18,-11.63,-2.10,6.12,-2.50,0.68,-15.61,-22.98,-8.44,-1.00
3909.00,-1.01,-9.69,-0.72,4.26,-2.45,1.58,-15.61,-22.98,-8.44,-1.00
3921.00,-1.01,-9.69,-0.72,4.26,-2.45,1.58,-15.61,-22.98,-8.44,-1.00
3933.00,-2.44,-8.87,0.16,2.65,-2.18,1.77,-15.61,-22.98,-8.44,-1.00
3945.00,-2.97,-10.27,0.66,1.22,-1.85,1.40,-15.61,-22.98,-8.44,-1.00
3959.00,-2.97,-10.27,0.66,1.22,-1.85,1.40,-15.61,-22.98,-8.44,-1.00
4049.00,-3.63,-9.58,-1.84,-1.48,-0.77,0.77,-15.19,-32.50,19.46,-1.00
4137.00,-2.87,-9.32,-3.53,-4.12,-0.43,1.16,-14.91,-31.42,8.30,-1.00
4152.00,-2.20,-7.84,-5.19,-5.41,-0.28,1.16,-14.91,-31.42,8.30,-1.00
4163.00,-2.20,-7.84,-5.19,-5.41,-0.28,1.16,-14.91,-31.42,8.30,-1.00
4176.00,-2.45,-6.35,-6.78,-6.38,-0.23,1.26,-14.91,-31.42,8.30,-1.00
4188.00,-1.54,-5.90,-6.79,-6.96,-0.39,1.47,-14.91,-31.42,8.30,-1.00
4202.00,-1.54,-5.90,-6.79,-6.96,-0.39,1.47,-14.91,-31.42,8.30,-1.00
4214.00,-0.87,-5.13,-9.01,-7.94,-0.59,1.62,-14.35,-9.50,-19.37,-1.00
4226.00,-0.62,-2.72,-8.20,-8.61,-1.08,1.63,-14.35,-9.50,-19.37,-1.00
4238.00,-0.62,-2.72,-8.20,-8.61,-1.08,1.63,-14.35,-9.50,-19.37,-1.00
4252.00,-0.95,0.16,-8.37,-9.58,-1.55,1.24,-14.35,-9.50,-19.37,-1.00
4264.00,-0.37,1.62,-8.90,-8.76,-1.59,1.06,-14.35,-9.50,-19.37,-1.00
4276.00,-0.37,1.62,-8.90,-8.76,-1.59,1.06,-14.35,-9.50,-19.37,-1.00
4288.00,-1.25,3.25,-9.40,-6.37,-1.47,1.21,-14.35,-9.50,-19.37,-1.00
4303.00,-1.25,3.25,-9.40,-6.37,-1.47,1.21,-14.35,-9.50,-19.37,-1.00
4314.00,-2.85,4.93,-9.97,-3.44,-1.19,1.23,-14.35,-9.50,-19.37,-1.00
4326.00,-1.66,5.18,-9.81,-1.21,-0.78,0.94,-14.35,-9.50,-19.37,-1.00
4341.00,-1.66,5.18,-9.81,-1.21,-0.78,0.94,-14.35,-9.50,-19.37,-1.00
4352.00,-0.55,3.74,-10.23,0.09,-0.55,0.45,-16.86,25.36,-22.94,-1.00
4364.00,-1.36,2.47,-9.24,1.85,-0.68,0.15,-16.86,25.36,-22.94,-1.00
4376.00,-1.36,2.47,-9.24,1.85,-0.68,0.15,-16.86,25.36,-22.94,-1.00
4390.00,-3.40,2.34,-8.78,3.14,-0.72,0.14,-16.86,25.36,-22.94,-1.00
4402.00,-3.40,2.34,-8.78,3.14,-0.72,0.14,-16.86,25.36,-22.94,-1.00
4414.00,-3.30,3.14,-9.60,4.12,-0.51,0.20,-16.86,25.36,-22.94,-1.00
4426.00,-1.50,2.44,-10.70,5.38,-0.12,0.01,-16.86,25.36,-22.94,-1.00
4440.00,-1.50,2.44,-10.70,5.38,-0.12,0.01,-16.86,25.36,-22.94,-1.00
4452.00,-0.66,-0.45,-10.40,7.12,-0.03,-0.48,-16.86,25.36,-22.94,-1.00
4464.00,0.76,-3.32,-9.61,7.47,-0.41,-0.87,-12.95,-1.95,-27.41,-1.00
4478.00,0.76,-3.32,-9.61,7.47,-0.41,-0.87,-12.95,-1.95,-27.41,-1.00
4490.00,-1.45,-5.46,-8.35,6.86,-1.08,-0.91,-12.95,-1.95,-27.41,-1.00
4502.00,-1.45,-5.46,-8.35,6.86,-1.08,-0.91,-12.95,-1.95,-27.41,-1.00
4514.00,-0.20,-7.84,-7.45,5.36,-1.77,-0.78,-12.95,-1.95,-27.41,-1.00
4528.00,-2.00,-9.42,-6.99,3.62,-1.98,-0.36,-12.95,-1.95,-27.41,-1.00
4540.00,-2.00,-9.42,-6.99,3.62,-1.98,-0.36,-12.95,-1.95,-27.41,-1.00
4552.00,-1.13,-8.18,-5.45,2.43,-1.48,0.49,-12.95,-1.95,-27.41,-1.00
4564.00,-1.23,-6.28,-5.33,2.50,-0.67,0.93,-12.95,-1.95,-27.41,-1.00
4578.00,-1.23,-6.28,-5.33,2.50,-0.67,0.93,-12.95,-1.95,-27.41,-1.00
4590.00,1.11,-9.27,-9.96,1.41,-0.49,0.66,-8.76,-26.03,-10.45,-1.00
4602.00,1.11,-9.27,-9.96,1.41,-0.49,0.66,-8.76,-26.03,-10.45,-1.00
4617.00,2.40,-6.76,-5.11,0.85,-1.24,1.15,-8.76,-26.03,-10.45,-1.00
4628.00,-0.62,-6.39,-6.81,0.42,-1.24,0.96,-8.76,-26.03,-10.45,-1.00
4640.00,-0.62,-6.39,-6.81,0.42,-1.24,0.96,-8.76,-26.03,-10.45,-1.00
4652.00,1.72,-8.52,-9.39,1.06,-1.01,0.81,-8.76,-26.03,-10.45,-1.00
4666.00,-0.96,-7.73,-6.46,1.00,-1.57,1.20,-8.76,-26.03,-10.45,-1.00
4678.00,-0.96,-7.73,-6.46,1.00,-1.57,1.20,-8.76,-26.03,-10.45,-1.00
4690.00,-1.50,-6.43,-6.13,0.33,-1.61,1.18,-8.76,-26.03,-10.45,-1.00
4702.00,-1.50,-6.43,-6.13,0.33,-1.61,1.18,-8.76,-26.03,-10.45,-1.00
4716.00,-2.00,-6.29,-7.63,-1.55,-1.81,0.63,-9.46,-26.93,-9.33,-1.00
4728.00,-1.84,-4.18,-6.37,-1.11,-1.84,0.56,-9.46,-26.93,-9.33,-1.00
4740.00,-1.84,-4.18,-6.37,-1.11,-1.84,0.56,-9.46,-26.93,-9.33,-1.00
4752.00,0.25,-6.02,-6.75,0.37,-1.41,0.29,-9.46,-26.93,-9.33,-1.00
4767.00,0.54,-7.92,-6.42,0.06,-1.70,0.05,-9.46,-26.93,-9.33,-1.00
4778.00,0.54,-7.92,-6.42,0.06,-1.70,0.05,-9.46,-26.93,-9.33,-1.00
4790.00,-1.66,-7.99,-4.40,-1.87,-2.55,0.07,-9.46,-26.93,-9.33,-1.00
4804.00,-0.58,-7.36,-4.81,-4.77,-3.33,-0.03,-9.46,-26.93,-9.33,-1.00
4816.00,-0.58,-7.36,-4.81,-4.77,-3.33,-0.03,-9.46,-26.93,-9.33,-1.00
4828.00,-2.19,-3.52,-7.04,-5.64,-3.78,0.46,-9.46,-26.93,-9.33,-1.00
4840.00,-2.19,-3.52,-7.04,-5.64,-3.78,0.46,-9.46,-26.93,-9.33,-1.00
4854.00,-2.17,-1.02,-7.34,-3.93,-3.39,0.42,-11.70,-17.94,-16.03,-1.00
4866.00,-1.71,-3.64,-9.50,-1.38,-2.30,-0.58,-11.70,-17.94,-16.03,-1.00
4878.00,-1.71,-3.64,-9.50,-1.38,-2.30,-0.58,-11.70,-17.94,-16.03,-1.00
4890.00,-0.97,-6.59,-11.44,-0.53,-2.02,-0.90,-11.70,-17.94,-16.03,-1.00
4904.00,0.19,-4.05,-11.28,-1.62,-2.82,-0.63,-11.70,-17.94,-16.03,-1.00
4916.00,0.19,-4.05,-11.28,-1.62,-2.82,-0.63,-11.70,-17.94,-16.03,-1.00
4928.00,-0.86,-1.36,-10.00,-1.27,-3.42,-0.38,-11.70,-17.94,-16.03,-1.00
4943.00,-0.86,-1.36,-10.00,-1.27,-3.42,-0.38,-11.70,-17.94,-16.03,-1.00
4954.00,-1.73,-2.48,-9.78,0.24,-3.47,-0.56,-11.70,-17.94,-16.03,-1.00
4966.00,-1.83,-3.28,-9.10,1.05,-3.26,-0.76,-13.37,-21.54,-10.67,-1.00
4978.00,-1.83,-3.28,-9.10,1.05,-3.26,-0.76,-13.37,-21.54,-10.67,-1.00
4992.00,-1.56,-5.29,-8.16,1.77,-2.77,-0.91,-13.37,-21.54,-10.67,-1.00
5004.00,-1.56,-5.29,-8.16,1.77,-2.77,-0.91,-13.37,-21.54,-10.67,-1.00
5016.00,-1.51,-6.28,-8.08,2.11,-2.43,-0.71,-13.37,-21.54,-10.67,-1.00
5030.00,-1.70,-6.96,-7.16,1.81,-2.46,-0.32,-13.37,-21.54,-10.67,-1.00
5042.00,-1.70,-6.96,-7.16,1.81,-2.46,-0.32,-13.37,-21.54,-10.67,-1.00
5054.00,-2.68,-6.31,-7.21,0.84,-2.53,-0.02,-13.37,-21.54,-10.67,-1.00
5066.00,-7.77,-4.43,-10.59,0.53,-2.27,0.01,-13.37,-21.54,-10.67,-1.00
5080.00,-7.77,-4.43,-10.59,0.53,-2.27,0.01,-13.37,-21.54,-10.67,-1.00
5092.00,-1.97,-6.96,-6.75,1.97,-1.39,-0.02,-9.88,-31.78,1.16,-1.00
5104.00,-1.97,-6.96,-6.75,1.97,-1.39,-0.02,-9.88,-31.78,1.16,-1.00
5116.00,2.61,-8.93,-7.51,1.39,-0.57,0.05,-9.88,-31.78,1.16,-1.00
5130.00,-0.25,-8.48,-10.46,-0.36,-1.54,0.69,-9.88,-31.78,1.16,-1.00
5142.00,-0.25,-8.48,-10.46,-0.36,-1.54,0.69,-9.88,-31.78,1.16,-1.00
5154.00,-3.06,-6.79,-7.09,-0.88,-2.41,1.18,-9.88,-31.78,1.16,-1.00
5168.00,-2.61,-5.20,-6.98,-1.66,-2.36,1.20,-9.88,-31.78,1.16,-1.00
5180.00,-2.61,-5.20,-6.98,-1.66,-2.36,1.20,-9.88,-31.78,1.16,-1.00
5192.00,-1.75,-5.78,-8.70,-1.13,-2.12,1.09,-9.88,-31.78,1.16,-1.00
5204.00,-1.75,-5.78,-8.70,-1.13,-2.12,1.09,-9.88,-31.78,1.16,-1.00
5219.00,-1.11,-6.33,-8.11,-0.09,-2.27,1.20,-11.56,-30.34,2.05,-1.00
5230.00,-3.13,-6.24,-7.16,0.70,-2.33,1.45,-11.56,-30.34,2.05,-1.00
5242.00,-3.13,-6.24,-7.16,0.70,-2.33,1.45,-11.56,-30.34,2.05,-1.00
5254.00,-3.57,-7.17,-6.82,1.27,-2.06,1.62,-11.56,-30.34,2.05,-1.00
5268.00,-1.35,-5.73,-7.17,1.01,-1.74,1.80,-11.56,-30.34,2.05,-1.00
5280.00,-1.35,-5.73,-7.17,1.01,-1.74,1.80,-11.56,-30.34,2.05,-1.00
5292.00,-4.02,-5.13,-8.04,2.02,-1.55,1.94,-11.56,-30.34,2.05,-1.00
5304.00,-4.02,-5.13,-8.04,2.02,-1.55,1.94,-11.56,-30.34,2.05,-1.00
5318.00,-4.41,-5.44,-7.44,2.46,-1.91,2.02,-11.56,-30.34,2.05,-1.00
5330.00,-5.26,-7.25,-6.68,2.13,-2.19,2.02,-11.56,-30.34,2.05,-1.00
5342.00,-5.26,-7.25,-6.68,2.13,-2.19,2.02,-11.56,-30.34,2.05,-1.00
5354.00,-4.19,-4.86,-7.13,0.40,-2.32,1.83,-15.47,-29.63,15.00,-1.00
5368.00,-3.58,-5.54,-7.50,-0.11,-2.51,1.33,-15.47,-29.63,15.00,-1.00
5380.00,-3.58,-5.54,-7.50,-0.11,-2.51,1.33,-15.47,-29.63,15.00,-1.00
5392.00,-3.62,-7.15,-6.35,-0.04,-2.81,1.10,-15.47,-29.63,15.00,-1.00
5406.00,-5.15,-8.09,-5.42,-0.51,-3.00,1.18,-15.47,-29.63,15.00,-1.00
5418.00,-5.15,-8.09,-5.42,-0.51,-3.00,1.18,-15.47,-29.63,15.00,-1.00
5430.00,-5.38,-7.49,-3.71,-1.20,-2.97,1.46,-15.47,-29.63,15.00,-1.00
5442.00,-5.38,-7.49,-3.71,-1.20,-2.97,1.46,-15.47,-29.63,15.00,-1.00
5456.00,-3.58,-6.92,-4.12,-1.94,-2.59,1.60,-15.47,-29.63,15.00,-1.00
5468.00,-4.21,-7.22,-4.57,-2.11,-2.11,1.69,-18.82,-24.95,18.57,-1.00
5480.00,-4.21,-7.22,-4.57,-2.11,-2.11,1.69,-18.82,-24.95,18.57,-1.00
5494.00,-6.33,-4.68,-5.32,-2.49,-1.75,1.80,-18.82,-24.95,18.57,-1.00
5506.00,-7.31,-4.10,-5.05,-2.00,-1.30,1.75,-18.82,-24.95,18.57,-1.00
5518.00,-7.31,-4.10,-5.05,-2.00,-1.30,1.75,-18.82,-24.95,18.57,-1.00
5530.00,-5.86,-3.20,-8.04,-2.10,-1.09,1.36,-18.82,-24.95,18.57,-1.00
5544.00,-5.86,-3.20,-8.04,-2.10,-1.09,1.36,-18.82,-24.95,18.57,-1.00
5556.00,-4.84,-3.54,-8.21,-1.89,-1.53,1.10,-18.82,-24.95,18.57,-1.00
5568.00,-6.16,-2.08,-6.10,-1.99,-2.07,1.01,-18.82,-24.95,18.57,-1.00
5580.00,-6.16,-2.08,-6.10,-1.99,-2.07,1.01,-18.82,-24.95,18.57,-1.00
5594.00,-8.68,-0.44,-3.51,-1.67,-2.09,0.74,-20.36,-21.18,12.54,-1.00
5606.00,-8.56,-0.57,-5.55,-1.63,-1.36,-0.01,-20.36,-21.18,12.54,-1.00
5618.00,-8.56,-0.57,-5.55,-1.63,-1.36,-0.01,-20.36,-21.18,12.54,-1.00
5633.00,-5.48,-3.10,-7.02,-1.16,-0.62,-0.59,-20.36,-21.18,12.54,-1.00
5644.00,-5.48,-3.10,-7.02,-1.16,-0.62,-0.59,-20.36,-21.18,12.54,-1.00
5656.00,-3.81,-4.76,-8.54,-0.31,-0.57,-0.54,-20.36,-21.18,12.54,-1.00
5668.00,-4.43,-6.20,-8.12,1.20,-0.81,-0.12,-20.36,-21.18,12.54,-1.00
5682.00,-4.43,-6.20,-8.12,1.20,-0.81,-0.12,-20.36,-21.18,12.54,-1.00
5694.00,-6.04,-7.38,-7.02,1.93,-0.84,0.43,-20.36,-21.18,12.54,-1.00
5706.00,-4.81,-6.27,-8.38,1.17,-0.74,0.93,-17.42,-26.03,9.64,-1.00
5718.00,-4.81,-6.27,-8.38,1.17,-0.74,0.93,-17.42,-26.03,9.64,-1.00
5732.00,-3.59,-6.06,-8.57,0.55,-0.82,1.34,-17.42,-26.03,9.64,-1.00
5744.00,-3.59,-6.06,-8.57,0.55,-0.82,1.34,-17.42,-26.03,9.64,-1.00
5756.00,-5.07,-4.82,-7.85,-0.01,-1.26,1.58,-17.42,-26.03,9.64,-1.00
5770.00,-5.83,-4.81,-7.77,-0.27,-1.61,1.59,-17.42,-26.03,9.64,-1.00
5782.00,-5.83,-4.81,-7.77,-0.27,-1.61,1.59,-17.42,-26.03,9.64,-1.00
5794.00,-6.29,-3.85,-7.16,-0.56,-1.83,1.43,-17.42,-26.03,9.64,-1.00
5806.00,-6.20,-3.68,-6.51,-0.44,-1.91,1.19,-17.42,-26.03,9.64,-1.00
5820.00,-6.20,-3.68,-6.51,-0.44,-1.91,1.19,-17.42,-26.03,9.64,-1.00
5832.00,-6.19,-4.07,-6.71,-0.33,-1.88,0.95,-17.42,-26.03,9.64,-1.00
5844.00,-6.19,-4.07,-6.71,-0.33,-1.88,0.95,-17.42,-26.03,9.64,-1.00
5856.00,-6.52,-5.51,-5.97,-0.09,-1.85,1.00,-18.82,-23.52,11.87,-1.00
5870.00,-5.94,-3.93,-7.67,0.03,-1.73,1.28,-18.82,-23.52,11.87,-1.00
5882.00,-5.94,-3.93,-7.67,0.03,-1.73,1.28,-18.82,-23.52,11.87,-1.00
5894.00,-6.14,-2.99,-6.69,0.46,-1.76,1.24,-18.82,-23.52,11.87,-1.00
5906.00,-6.02,-4.64,-6.94,0.79,-1.72,0.97,-18.82,-23.52,11.87,-1.00
5920.00,-6.02,-4.64,-6.94,0.79,-1.72,0.97,-18.82,-23.52,11.87,-1.00
5932.00,-6.24,-4.49,-6.67,0.64,-1.89,1.05,-18.82,-23.52,11.87,-1.00
5944.00,-6.24,-4.49,-6.67,0.64,-1.89,1.05,-18.82,-23.52,11.87,-1.00
5959.00,-5.95,-4.74,-6.58,0.72,-2.07,1.19,-18.82,-23.52,11.87,-1.00
5970.00,-7.37,-3.92,-5.07,1.06,-2.24,1.29,-20.78,-23.16,17.68,-1.00
5982.00,-7.37,-3.92,-5.07,1.06,-2.24,1.29,-20.78,-23.16,17.68,-1.00
5994.00,-7.53,-4.07,-4.69,1.24,-2.06,1.11,-20.78,-23.16,17.68,-1.00
6008.00,-6.29,-5.71,-6.07,1.04,-2.02,0.97,-20.78,-23.16,17.68,-1.00
6020.00,-6.29,-5.71,-6.07,1.04,-2.02,0.97,-20.78,-23.16,17.68,-1.00
6032.00,-6.06,-5.40,-4.89,0.63,-2.27,1.11,-20.78,-23.16,17.68,-1.00
6044.00,-6.06,-5.40,-4.89,0.63,-2.27,1.11,-20.78,-23.16,17.68,-1.00
6058.00,-7.32,-4.67,-4.12,0.47,-2.23,1.26,-20.78,-23.16,17.68,-1.00
6070.00,-8.19,-4.30,-4.59,0.43,-1.86,1.13,-20.78,-23.16,17.68,-1.00
6082.00,-8.19,-4.30,-4.59,0.43,-1.86,1.13,-20.78,-23.16,17.68,-1.00
6096.00,-6.84,-5.12,-5.11,0.38,-1.51,0.78,-21.75,-22.62,26.38,-1.00
6108.00,-6.05,-5.88,-4.97,0.26,-1.33,0.69,-21.75,-22.62,26.38,-1.00
6120.00,-6.05,-5.88,-4.97,0.26,-1.33,0.69,-21.75,-22.62,26.38,-1.00
6132.00,-7.11,-4.93,-4.88,0.10,-1.17,0.89,-21.75,-22.62,26.38,-1.00
6146.00,-7.04,-4.17,-5.41,0.05,-1.07,0.97,-21.75,-22.62,26.38,-1.00
6158.00,-7.04,-4.17,-5.41,0.05,-1.07,0.97,-21.75,-22.62,26.38,-1.00
6170.00,-6.58,-4.98,-5.05,0.13,-1.10,0.80,-21.75,-22.62,26.38,-1.00
6182.00,-6.58,-4.98,-5.05,0.13,-1.10,0.80,-21.75,-22.62,26.38,-1.00
6196.00,-5.99,-6.05,-5.46,0.19,-1.24,0.80,-21.75,-22.62,26.38,-1.00
6208.00,-7.54,-5.97,-4.85,0.15,-1.57,1.13,-21.05,-24.23,27.05,-1.00
6220.00,-7.54,-5.97,-4.85,0.15,-1.57,1.13,-21.05,-24.23,27.05,-1.00
6232.00,-9.17,-4.81,-4.35,-0.13,-1.64,1.44,-21.05,-24.23,27.05,-1.00
6246.00,-8.78,-4.16,-4.33,-0.38,-1.44,1.38,-21.05,-24.23,27.05,-1.00
6335.00,-5.86,-4.53,-4.09,-0.39,-1.75,1.30,-21.05,-24.23,27.05,-1.00
6424.00,-8.69,-2.92,-3.83,0.19,-1.79,1.22,-22.45,-21.36,28.84,-1.00
6438.00,-8.17,-4.08,-3.66,0.49,-1.70,0.84,-22.45,-21.36,28.84,-1.00
6449.00,-8.66,-4.51,-4.22,0.67,-1.52,0.67,-22.45,-21.36,28.84,-1.00
6461.00,-8.66,-4.51,-4.22,0.67,-1.52,0.67,-22.45,-21.36,28.84,-1.00
6473.00,-7.66,-5.14,-4.68,0.74,-1.41,0.60,-20.64,-20.82,32.19,-1.00
6487.00,-6.78,-5.61,-4.13,0.73,-1.39,0.61,-20.64,-20.82,32.19,-1.00
6499.00,-6.78,-5.61,-4.13,0.73,-1.39,0.61,-20.64,-20.82,32.19,-1.00
6511.00,-7.14,-6.00,-4.12,0.56,-1.40,0.80,-20.64,-20.82,32.19,-1.00
6523.00,-7.14,-6.00,-4.12,0.56,-1.40,0.80,-20.64,-20.82,32.19,-1.00
6537.00,-7.88,-5.16,-4.04,0.41,-1.37,1.05,-20.64,-20.82,32.19,-1.00
6549.00,-9.00,-4.26,-3.65,0.35,-1.29,1.07,-20.64,-20.82,32.19,-1.00
6561.00,-9.00,-4.26,-3.65,0.35,-1.29,1.07,-20.64,-20.82,32.19,-1.00
6575.00,-8.88,-4.16,-3.32,0.15,-1.16,0.91,-20.64,-20.82,32.19,-1.00
6587.00,-7.54,-5.16,-3.70,-0.05,-0.96,0.72,-21.05,-21.36,35.09,-1.00
6599.00,-7.54,-5.16,-3.70,-0.05,-0.96,0.72,-21.05,-21.36,35.09,-1.00
6611.00,-6.76,-5.96,-4.44,-0.15,-0.84,0.74,-21.05,-21.36,35.09,-1.00
6625.00,-6.76,-5.96,-4.44,-0.15,-0.84,0.74,-21.05,-21.36,35.09,-1.00
6637.00,-6.52,-6.00,-5.00,-0.05,-0.89,0.96,-21.05,-21.36,35.09,-1.00
6649.00,-6.89,-5.58,-4.81,0.17,-1.05,1.18,-21.05,-21.36,35.09,-1.00
6661.00,-6.89,-5.58,-4.81,0.17,-1.05,1.18,-21.05,-21.36,35.09,-1.00
6675.00,-7.54,-4.84,-3.92,0.36,-1.17,1.26,-21.05,-21.36,35.09,-1.00
6687.00,-8.18,-4.39,-3.54,0.38,-1.27,1.21,-21.05,-21.36,35.09,-1.00
6699.00,-8.18,-4.39,-3.54,0.38,-1.27,1.21,-21.05,-21.36,35.09,-1.00
6714.00,-7.76,-4.58,-3.91,0.34,-1.32,1.07,-21.05,-21.36,35.09,-1.00
6725.00,-7.76,-4.58,-3.91,0.34,-1.32,1.07,-21.05,-21.36,35.09,-1.00
6737.00,-7.64,-5.21,-4.42,0.40,-1.36,0.95,-21.89,-19.92,32.86,-1.00
6749.00,-7.61,-5.39,-4.15,0.44,-1.37,0.94,-21.89,-19.92,32.86,-1.00
6763.00,-7.61,-5.39,-4.15,0.44,-1.37,0.94,-21.89,-19.92,32.86,-1.00
6775.00,-7.96,-4.63,-3.33,0.40,-1.38,1.01,-21.89,-19.92,32.86,-1.00
6787.00,-8.23,-4.63,-3.06,0.28,-1.35,0.99,-21.89,-19.92,32.86,-1.00
6799.00,-8.23,-4.63,-3.06,0.28,-1.35,0.99,-21.89,-19.92,32.86,-1.00
6813.00,-7.76,-5.27,-3.21,0.06,-1.29,0.93,-21.89,-19.92,32.86,-1.00
6825.00,-7.76,-5.27,-3.21,0.06,-1.29,0.93,-21.89,-19.92,32.86,-1.00
6837.00,-7.57,-5.55,-3.65,-0.09,-1.19,0.94,-21.89,-19.92,32.86,-1.00
6851.00,-7.72,-5.08,-3.67,-0.11,-1.15,1.03,-23.01,-20.28,35.09,-1.00
6863.00,-7.72,-5.08,-3.67,-0.11,-1.15,1.03,-23.01,-20.28,35.09,-1.00
6875.00,-7.92,-4.92,-3.85,-0.05,-1.20,1.08,-23.01,-20.28,35.09,-1.00
6888.00,-7.82,-4.81,-3.86,-0.02,-1.24,1.02,-23.01,-20.28,35.09,-1.00
6901.00,-7.82,-4.81,-3.86,-0.02,-1.24,1.02,-23.01,-20.28,35.09,-1.00
6913.00,-7.81,-4.84,-3.83,0.03,-1.27,0.95,-23.01,-20.28,35.09,-1.00
6925.00,-7.81,-4.84,-3.83,0.03,-1.27,0.95,-23.01,-20.28,35.09,-1.00
6937.00,-7.44,-5.10,-3.78,0.10,-1.28,0.90,-23.01,-20.28,35.09,-1.00
6951.00,-7.81,-5.14,-3.85,0.16,-1.31,0.94,-23.01,-20.28,35.09,-1.00
6963.00,-7.81,-5.14,-3.85,0.16,-1.31,0.94,-23.01,-20.28,35.09,-1.00
6975.00,-8.03,-4.85,-3.70,0.19,-1.36,0.94,-21.33,-20.28,35.09,-1.00
6987.00,-7.75,-5.09,-3.64,0.18,-1.38,0.86,-21.33,-20.28,35.09,-1.00
7001.00,-7.75,-5.09,-3.64,0.18,-1.38,0.86,-21.33,-20.28,35.09,-1.00
7013.00,-7.39,-5.47,-3.70,0.20,-1.39,0.84,-21.33,-20.28,35.09,-1.00
7025.00,-7.39,-5.47,-3.70,0.20,-1.39,0.84,-21.33,-20.28,35.09,-1.00
7040.00,-7.39,-5.45,-3.60,0.24,-1.43,0.92,-21.33,-20.28,35.09,-1.00
7052.00,-7.65,-5.43,-3.31,0.30,-1.46,1.01,-21.33,-20.28,35.09,-1.00
7064.00,-7.65,-5.43,-3.31,0.30,-1.46,1.01,-21.33,-20.28,35.09,-1.00
7076.00,-7.87,-5.29,-3.24,0.31,-1.42,1.06,-21.33,-20.28,35.09,-1.00
7090.00,-7.59,-5.31,-3.49,0.25,-1.41,1.09,-23.01,-20.64,39.55,-1.00
7102.00,-7.59,-5.31,-3.49,0.25,-1.41,1.09,-23.01,-20.64,39.55,-1.00
7114.00,-7.37,-5.46,-3.43,0.22,-1.47,1.15,-23.01,-20.64,39.55,-1.00
7126.00,-7.37,-5.46,-3.43,0.22,-1.47,1.15,-23.01,-20.64,39.55,-1.00
7140.00,-8.27,-5.15,-2.74,0.11,-1.46,1.13,-23.01,-20.64,39.55,-1.00
7152.00,-8.13,-5.11,-3.00,-0.08,-1.32,1.00,-23.01,-20.64,39.55,-1.00
7164.00,-8.13,-5.11,-3.00,-0.08,-1.32,1.00,-23.01,-20.64,39.55,-1.00
7178.00,-8.05,-4.71,-3.03,-0.17,-1.25,0.97,-23.01,-20.64,39.55,-1.00
7190.00,-7.99,-4.91,-3.08,-0.18,-1.22,0.92,-23.01,-20.64,39.55,-1.00
7202.00,-7.99,-4.91,-3.08,-0.18,-1.22,0.92,-23.01,-20.64,39.55,-1.00
7214.00,-7.89,-5.26,-3.23,-0.23,-1.18,0.87,-23.01,-20.64,39.55,-1.00
7228.00,-7.91,-5.55,-2.78,-0.26,-1.17,0.91,-21.89,-18.84,39.10,-1.00
7240.00,-7.91,-5.55,-2.78,-0.26,-1.17,0.91,-21.89,-18.84,39.10,-1.00
7252.00,-8.04,-4.70,-3.22,-0.36,-1.06,0.99,-21.89,-18.84,39.10,-1.00
7264.00,-8.04,-4.70,-3.22,-0.36,-1.06,0.99,-21.89,-18.84,39.10,-1.00
7278.00,-8.00,-5.41,-2.51,-0.47,-0.99,0.96,-21.89,-18.84,39.10,-1.00
7290.00,-8.10,-4.91,-3.45,-0.56,-0.89,1.01,-21.89,-18.84,39.10,-1.00
7302.00,-8.10,-4.91,-3.45,-0.56,-0.89,1.01,-21.89,-18.84,39.10,-1.00
7317.00,-7.88,-4.95,-3.97,-0.52,-0.90,1.04,-21.89,-18.84,39.10,-1.00
7328.00,-7.87,-5.24,-4.10,-0.42,-1.01,1.08,-21.89,-18.84,39.10,-1.00
7340.00,-7.87,-5.24,-4.10,-0.42,-1.01,1.08,-21.89,-18.84,39.10,-1.00
7352.00,-8.01,-4.81,-3.80,-0.34,-1.13,1.15,-21.61,-21.00,35.53,-1.00
7366.00,-8.01,-4.81,-3.80,-0.34,-1.13,1.15,-21.61,-21.00,35.53,-1.00
7378.00,-8.03,-4.43,-4.00,-0.22,-1.17,1.18,-21.61,-21.00,35.53,-1.00
7390.00,-7.95,-4.30,-4.36,-0.07,-1.28,1.12,-21.61,-21.00,35.53,-1.00
7402.00,-7.95,-4.30,-4.36,-0.07,-1.28,1.12,-21.61,-21.00,35.53,-1.00
7416.00,-7.76,-4.49,-4.03,0.19,-1.50,1.00,-21.61,-21.00,35.53,-1.00
7428.00,-7.38,-5.30,-3.91,0.43,-1.54,0.91,-21.61,-21.00,35.53,-1.00
7440.00,-7.38,-5.30,-3.91,0.43,-1.54,0.91,-21.61,-21.00,35.53,-1.00
7454.00,-7.50,-5.06,-3.73,0.61,-1.52,0.91,-21.61,-21.00,35.53,-1.00
7467.00,-7.50,-5.06,-3.73,0.61,-1.52,0.91,-21.61,-21.00,35.53,-1.00
7478.00,-7.93,-4.99,-2.88,0.70,-1.45,0.88,-21.89,-20.28,38.21,-1.00
7490.00,-7.97,-4.89,-3.06,0.63,-1.33,0.86,-21.89,-20.28,38.21,-1.00
7504.00,-7.97,-4.89,-3.06,0.63,-1.33,0.86,-21.89,-20.28,38.21,-1.00
7516.00,-8.06,-5.39,-3.09,0.54,-1.27,0.85,-21.89,-20.28,38.21,-1.00
7528.00,-7.80,-5.41,-3.75,0.37,-1.24,0.91,-21.89,-20.28,38.21,-1.00
7540.00,-7.80,-5.41,-3.75,0.37,-1.24,0.91,-21.89,-20.28,38.21,-1.00
7554.00,-7.89,-5.16,-2.84,0.26,-1.30,0.96,-21.89,-20.28,38.21,-1.00
7566.00,-7.89,-5.16,-2.84,0.26,-1.30,0.96,-21.89,-20.28,38.21,-1.00
7578.00,-8.07,-5.29,-2.96,0.14,-1.23,0.98,-21.89,-20.28,38.21,-1.00
7592.00,-8.01,-5.02,-2.85,0.01,-1.16,1.01,-21.19,-17.94,41.11,-1.00
7605.00,-8.01,-5.02,-2.85,0.01,-1.16,1.01,-21.19,-17.94,41.11,-1.00
7616.00,-7.74,-5.59,-2.65,-0.08,-1.05,1.00,-21.19,-17.94,41.11,-1.00
7628.00,-8.02,-5.30,-2.98,-0.18,-0.88,1.06,-21.19,-17.94,41.11,-1.00
7642.00,-8.02,-5.30,-2.98,-0.18,-0.88,1.06,-21.19,-17.94,41.11,-1.00
7654.00,-8.16,-4.89,-3.29,-0.27,-0.74,1.14,-21.19,-17.94,41.11,-1.00
7666.00,-8.16,-4.89,-3.29,-0.27,-0.74,1.14,-21.19,-17.94,41.11,-1.00
7678.00,-7.64,-5.55,-2.53,-0.29,-0.73,1.13,-21.19,-17.94,41.11,-1.00
7692.00,-7.48,-5.11,-3.15,-0.27,-0.66,1.18,-21.19,-17.94,41.11,-1.00
7704.00,-7.48,-5.11,-3.15,-0.27,-0.66,1.18,-21.19,-17.94,41.11,-1.00
7716.00,-7.33,-4.85,-3.77,-0.21,-0.57,1.17,-21.19,-17.94,41.11,-1.00
7730.00,-7.47,-4.87,-4.34,-0.10,-0.54,1.09,-22.73,-17.05,35.53,-1.00
7742.00,-7.47,-4.87,-4.34,-0.10,-0.54,1.09,-22.73,-17.05,35.53,-1.00
7754.00,-7.67,-4.88,-4.80,0.05,-0.59,1.02,-22.73,-17.05,35.53,-1.00
7766.00,-7.67,-4.88,-4.80,0.05,-0.59,1.02,-22.73,-17.05,35.53,-1.00
7780.00,-7.78,-4.52,-5.11,0.18,-0.74,0.97,-22.73,-17.05,35.53,-1.00
7792.00,-8.39,-3.85,-4.48,0.27,-1.06,0.96,-22.73,-17.05,35.53,-1.00
7804.00,-8.39,-3.85,-4.48,0.27,-1.06,0.96,-22.73,-17.05,35.53,-1.00
7816.00,-8.35,-4.16,-3.60,0.23,-1.30,0.86,-22.73,-17.05,35.53,-1.00
7830.00,-8.38,-4.79,-3.36,0.03,-1.41,0.78,-22.73,-17.05,35.53,-1.00
7842.00,-8.38,-4.79,-3.36,0.03,-1.41,0.78,-22.73,-17.05,35.53,-1.00
7854.00,-8.08,-4.73,-3.85,-0.25,-1.47,0.79,-22.45,-17.41,36.43,-1.00
7866.00,-8.08,-4.73,-3.85,-0.25,-1.47,0.79,-22.45,-17.41,36.43,-1.00
7881.00,-7.98,-5.19,-3.22,-0.40,-1.51,0.80,-22.45,-17.41,36.43,-1.00
7892.00,-7.56,-5.27,-3.59,-0.47,-1.32,0.91,-22.45,-17.41,36.43,-1.00
7904.00,-7.56,-5.27,-3.59,-0.47,-1.32,0.91,-22.45,-17.41,36.43,-1.00
7918.00,-7.71,-4.99,-3.68,-0.41,-1.15,1.03,-22.45,-17.41,36.43,-1.00
7930.00,-7.57,-4.98,-3.89,-0.42,-1.02,1.10,-22.45,-17.41,36.43,-1.00
7942.00,-7.57,-4.98,-3.89,-0.42,-1.02,1.10,-22.45,-17.41,36.43,-1.00
7954.00,-8.04,-4.82,-3.23,-0.43,-0.88,1.15,-22.45,-17.41,36.43,-1.00
7968.00,-7.96,-4.33,-5.17,-0.47,-0.77,1.20,-23.57,-17.41,31.96,-1.00
7980.00,-7.96,-4.33,-5.17,-0.47,-0.77,1.20,-23.57,-17.41,31.96,-1.00
7992.00,-7.93,-3.71,-5.38,-0.33,-0.98,1.14,-23.57,-17.41,31.96,-1.00
8006.00,-7.93,-3.71,-5.38,-0.33,-0.98,1.14,-23.57,-17.41,31.96,-1.00
8018.00,-7.78,-4.48,-5.31,-0.04,-1.22,1.00,-23.57,-17.41,31.96,-1.00
8030.00,-9.90,-3.57,-3.68,0.05,-1.44,1.01,-23.57,-17.41,31.96,-1.00
8042.00,-9.90,-3.57,-3.68,0.05,-1.44,1.01,-23.57,-17.41,31.96,-1.00
8057.00,-9.16,-3.61,-3.00,-0.09,-1.21,0.57,-23.57,-17.41,31.96,-1.00
8068.00,-6.98,-4.59,-4.84,-0.41,-1.09,0.33,-23.57,-17.41,31.96,-1.00
8080.00,-6.98,-4.59,-4.84,-0.41,-1.09,0.33,-23.57,-17.41,31.96,-1.00
8092.00,-5.70,-5.68,-6.09,-0.30,-1.45,0.40,-22.73,-20.28,32.41,-1.00
8106.00,-5.70,-5.68,-6.09,-0.30,-1.45,0.40,-22.73,-20.28,32.41,-1.00
8118.00,-6.42,-5.65,-5.03,0.13,-1.87,0.66,-22.73,-20.28,32.41,-1.00
8130.00,-7.27,-5.08,-3.76,0.39,-1.95,0.89,-22.73,-20.28,32.41,-1.00
8142.00,-7.27,-5.08,-3.76,0.39,-1.95,0.89,-22.73,-20.28,32.41,-1.00
8156.00,-7.07,-5.06,-3.71,0.41,-1.89,0.98,-22.73,-20.28,32.41,-1.00
8168.00,-6.98,-5.55,-3.69,0.42,-1.86,1.04,-22.73,-20.28,32.41,-1.00
8180.00,-6.98,-5.55,-3.69,0.42,-1.86,1.04,-22.73,-20.28,32.41,-1.00
8194.00,-7.61,-5.37,-3.67,0.43,-1.81,1.17,-22.73,-20.28,32.41,-1.00
8207.00,-7.61,-5.37,-3.67,0.43,-1.81,1.17,-22.73,-20.28,32.41,-1.00
8219.00,-8.12,-5.12,-3.47,0.35,-1.77,1.25,-22.73,-20.28,32.41,-1.00
8231.00,-8.64,-4.85,-2.94,0.11,-1.59,1.17,-22.87,-18.66,37.54,-1.00
8245.00,-8.64,-4.85,-2.94,0.11,-1.59,1.17,-22.87,-18.66,37.54,-1.00
8257.00,-8.05,-4.57,-2.86,-0.17,-1.32,1.05,-22.87,-18.66,37.54,-1.00
8269.00,-7.87,-4.92,-1.13,-0.38,-1.06,0.99,-22.87,-18.66,37.54,-1.00
8281.00,-7.87,-4.92,-1.13,-0.38,-1.06,0.99,-22.87,-18.66,37.54,-1.00
8295.00,-7.78,-5.44,-2.29,-0.64,-0.45,1.02,-22.87,-18.66,37.54,-1.00
8307.00,-7.78,-5.44,-2.29,-0.64,-0.45,1.02,-22.87,-18.66,37.54,-1.00
8319.00,-8.48,-3.70,-4.84,-0.71,-0.05,1.17,-22.87,-18.66,37.54,-1.00
8334.00,-11.01,-2.19,-6.61,-0.46,-0.41,0.99,-22.87,-18.66,37.54,-1.00
8345.00,-11.01,-2.19,-6.61,-0.46,-0.41,0.99,-22.87,-18.66,37.54,-1.00
8357.00,-9.27,-3.48,-6.24,-0.07,-0.93,0.25,-22.87,-18.30,31.74,-1.00
8369.00,-7.56,-4.75,-5.19,0.26,-1.22,-0.22,-22.87,-18.30,31.74,-1.00
8383.00,-7.56,-4.75,-5.19,0.26,-1.22,-0.22,-22.87,-18.30,31.74,-1.00
8395.00,-9.29,-4.98,-4.42,0.21,-1.39,-0.15,-22.87,-18.30,31.74,-1.00
8407.00,-9.29,-4.98,-4.42,0.21,-1.39,-0.15,-22.87,-18.30,31.74,-1.00
8419.00,-7.70,-6.97,-5.88,-0.10,-1.26,-0.15,-22.87,-18.30,31.74,-1.00
8433.00,-5.61,-6.92,-5.82,-0.40,-1.53,0.25,-22.87,-18.30,31.74,-1.00
8445.00,-5.61,-6.92,-5.82,-0.40,-1.53,0.25,-22.87,-18.30,31.74,-1.00
8457.00,-4.20,-6.20,-3.78,-0.36,-1.95,0.78,-22.87,-18.30,31.74,-1.00
8471.00,-3.60,-5.11,-1.25,-0.16,-2.01,1.18,-21.05,-22.80,32.86,-1.00
8483.00,-3.60,-5.11,-1.25,-0.16,-2.01,1.18,-21.05,-22.80,32.86,-1.00
8495.00,-4.23,-5.02,-1.00,0.03,-1.69,1.39,-21.05,-22.80,32.86,-1.00
8507.00,-4.23,-5.02,-1.00,0.03,-1.69,1.39,-21.05,-22.80,32.86,-1.00
8522.00,-6.56,-5.07,-2.17,0.14,-1.27,1.60,-21.05,-22.80,32.86,-1.00
8609.00,-8.28,-4.74,-4.61,0.07,-1.00,1.20,-21.75,-20.46,33.08,-1.00
8699.00,-7.84,-4.91,-3.80,0.22,-1.28,1.03,-21.75,-20.46,33.08,-1.00
8787.00,-9.34,-4.84,-4.56,-0.09,-1.26,1.26,-23.15,-19.02,34.86,-1.00
8801.00,-8.56,-3.97,-3.77,-0.27,-1.24,1.22,-23.15,-19.02,34.86,-1.00
8812.00,-8.50,-3.68,-3.78,-0.36,-1.23,1.09,-23.15,-19.02,34.86,-1.00
8824.00,-8.50,-3.68,-3.78,-0.36,-1.23,1.09,-23.15,-19.02,34.86,-1.00
8839.00,-8.39,-4.11,-4.37,-0.20,-1.24,1.02,-23.15,-19.02,34.86,-1.00
8850.00,-7.66,-4.66,-4.47,0.02,-1.36,1.01,-23.01,-20.28,32.41,-1.00
8862.00,-7.66,-4.66,-4.47,0.02,-1.36,1.01,-23.01,-20.28,32.41,-1.00
8874.00,-7.34,-4.87,-4.78,0.29,-1.43,0.96,-23.01,-20.28,32.41,-1.00
8888.00,-7.34,-4.87,-4.78,0.29,-1.43,0.96,-23.01,-20.28,32.41,-1.00
8900.00,-7.58,-4.98,-4.18,0.46,-1.48,0.94,-23.01,-20.28,32.41,-1.00
8912.00,-7.69,-4.43,-3.52,0.52,-1.44,0.92,-23.01,-20.28,32.41,-1.00
8924.00,-7.69,-4.43,-3.52,0.52,-1.44,0.92,-23.01,-20.28,32.41,-1.00
8938.00,-8.04,-4.91,-2.98,0.36,-1.35,0.87,-23.01,-20.28,32.41,-1.00
8950.00,-7.79,-4.75,-3.81,-0.06,-1.13,0.87,-23.01,-20.28,32.41,-1.00
8962.00,-7.79,-4.75,-3.81,-0.06,-1.13,0.87,-23.01,-20.28,32.41,-1.00
8976.00,-7.56,-5.42,-3.49,-0.40,-0.98,0.90,-23.99,-18.66,33.52,-1.00
8988.00,-7.56,-5.42,-3.49,-0.40,-0.98,0.90,-23.99,-18.66,33.52,-1.00
9000.00,-8.51,-4.03,-3.74,-0.67,-0.76,1.09,-23.99,-18.66,33.52,-1.00
9012.00,-8.55,-3.31,-4.71,-0.68,-0.76,1.13,-23.99,-18.66,33.52,-1.00
9026.00,-8.55,-3.31,-4.71,-0.68,-0.76,1.13,-23.99,-18.66,33.52,-1.00
9038.00,-8.31,-4.21,-4.47,-0.48,-0.87,1.06,-23.99,-18.66,33.52,-1.00
9050.00,-8.43,-4.24,-5.54,-0.25,-1.05,1.06,-23.99,-18.66,33.52,-1.00
9062.00,-8.43,-4.24,-5.54,-0.25,-1.05,1.06,-23.99,-18.66,33.52,-1.00
9076.00,-8.14,-4.26,-5.30,0.05,-1.40,1.06,-23.99,-18.66,33.52,-1.00
9088.00,-8.14,-4.26,-5.30,0.05,-1.40,1.06,-23.99,-18.66,33.52,-1.00
9100.00,-7.45,-4.81,-3.81,0.24,-1.69,1.02,-23.99,-18.66,33.52,-1.00
9115.00,-7.93,-4.82,-3.23,0.19,-1.62,1.01,-23.99,-18.66,33.52,-1.00
9126.00,-7.93,-4.82,-3.23,0.19,-1.62,1.01,-23.99,-18.66,33.52,-1.00
9138.00,-8.15,-4.65,-3.96,0.10,-1.34,1.00,-23.99,-18.66,33.52,-1.00
9150.00,-7.00,-4.89,-4.68,0.09,-1.21,1.00,-23.99,-18.66,33.52,-1.00
9164.00,-7.00,-4.89,-4.68,0.09,-1.21,1.00,-23.99,-18.66,33.52,-1.00
9176.00,-6.79,-5.08,-4.83,0.21,-1.32,1.10,-23.99,-18.66,33.52,-1.00
9188.00,-6.79,-5.08,-4.83,0.21,-1.32,1.10,-23.99,-18.66,33.52,-1.00
9200.00,-8.52,-4.25,-3.79,0.31,-1.44,1.21,-23.99,-18.66,33.52,-1.00
9214.00,-8.21,-3.82,-3.52,0.22,-1.36,1.15,-23.99,-18.66,33.52,-1.00
9226.00,-8.21,-3.82,-3.52,0.22,-1.36,1.15,-23.99,-18.66,33.52,-1.00
9238.00,-8.23,-4.00,-3.58,0.13,-1.29,0.99,-23.15,-19.74,35.76,-1.00
9252.00,-8.14,-4.00,-3.82,0.06,-1.24,0.88,-23.15,-19.74,35.76,-1.00
9264.00,-8.14,-4.00,-3.82,0.06,-1.24,0.88,-23.15,-19.74,35.76,-1.00
9276.00,-7.94,-4.58,-3.97,0.02,-1.21,0.78,-23.15,-19.74,35.76,-1.00
9288.00,-7.94,-4.58,-3.97,0.02,-1.21,0.78,-23.15,-19.74,35.76,-1.00
9302.00,-7.86,-5.13,-3.90,-0.06,-1.18,0.79,-23.15,-19.74,35.76,-1.00
9314.00,-7.88,-4.86,-3.61,-0.22,-1.12,0.89,-23.15,-19.74,35.76,-1.00
9326.00,-7.88,-4.86,-3.61,-0.22,-1.12,0.89,-23.15,-19.74,35.76,-1.00
9338.00,-8.03,-4.64,-3.32,-0.39,-1.04,0.95,-23.15,-19.74,35.76,-1.00
9352.00,-8.20,-4.30,-3.68,-0.51,-0.97,1.00,-22.73,-18.12,33.30,-1.00
9364.00,-8.20,-4.30,-3.68,-0.51,-0.97,1.00,-22.73,-18.12,33.30,-1.00
9376.00,-8.20,-4.46,-4.42,-0.37,-0.96,1.03,-22.73,-18.12,33.30,-1.00
9390.00,-8.20,-4.34,-5.27,-0.19,-1.06,1.12,-22.73,-18.12,33.30,-1.00
9402.00,-8.20,-4.34,-5.27,-0.19,-1.06,1.12,-22.73,-18.12,33.30,-1.00
9414.00,-7.82,-4.06,-4.82,0.09,-1.31,1.19,-22.73,-18.12,33.30,-1.00
9426.00,-7.82,-4.06,-4.82,0.09,-1.31,1.19,-22.73,-18.12,33.30,-1.00
9441.00,-8.04,-3.76,-4.04,0.32,-1.44,1.13,-22.73,-18.12,33.30,-1.00
9452.00,-8.22,-3.99,-3.81,0.41,-1.46,1.00,-22.73,-18.12,33.30,-1.00
9464.00,-8.22,-3.99,-3.81,0.41,-1.46,1.00,-22.73,-18.12,33.30,-1.00
9476.00,-7.76,-4.60,-3.92,0.41,-1.48,0.91,-22.31,-17.94,32.63,-1.00
9490.00,-7.90,-4.82,-3.60,0.33,-1.43,0.91,-22.31,-17.94,32.63,-1.00
9502.00,-7.90,-4.82,-3.60,0.33,-1.43,0.91,-22.31,-17.94,32.63,-1.00
9514.00,-8.13,-4.16,-3.74,0.17,-1.28,0.98,-22.31,-17.94,32.63,-1.00
9528.00,-8.13,-4.16,-3.74,0.17,-1.28,0.98,-22.31,-17.94,32.63,-1.00
9540.00,-8.26,-4.10,-3.55,0.02,-1.23,0.94,-22.31,-17.94,32.63,-1.00
9552.00,-7.99,-4.57,-4.34,-0.09,-1.20,0.91,-22.31,-17.94,32.63,-1.00
9564.00,-7.99,-4.57,-4.34,-0.09,-1.20,0.91,-22.31,-17.94,32.63,-1.00
9578.00,-7.96,-4.58,-4.50,-0.09,-1.27,0.93,-22.31,-17.94,32.63,-1.00
9590.00,-8.16,-4.37,-3.80,-0.04,-1.35,0.97,-22.31,-17.94,32.63,-1.00
9602.00,-8.16,-4.37,-3.80,-0.04,-1.35,0.97,-22.31,-17.94,32.63,-1.00
9614.00,-8.14,-4.51,-3.40,-0.02,-1.30,0.98,-23.29,-15.97,33.30,-1.00
9628.00,-8.14,-4.51,-3.40,-0.02,-1.30,0.98,-23.29,-15.97,33.30,-1.00
9640.00,-8.11,-4.50,-2.95,-0.06,-1.17,1.01,-23.29,-15.97,33.30,-1.00
9652.00,-8.36,-4.47,-3.69,-0.24,-0.95,1.05,-23.29,-15.97,33.30,-1.00
9666.00,-8.36,-4.47,-3.69,-0.24,-0.95,1.05,-23.29,-15.97,33.30,-1.00
9678.00,-8.02,-4.48,-4.23,-0.37,-0.88,1.12,-23.29,-15.97,33.30,-1.00
9690.00,-8.16,-4.34,-4.62,-0.28,-0.99,1.15,-23.29,-15.97,33.30,-1.00
9702.00,-8.16,-4.34,-4.62,-0.28,-0.99,1.15,-23.29,-15.97,33.30,-1.00
9717.00,-8.38,-3.74,-4.67,-0.15,-1.17,1.16,-23.29,-15.97,33.30,-1.00
9728.00,-8.38,-3.74,-4.67,-0.15,-1.17,1.16,-23.29,-15.97,33.30,-1.00
9740.00,-8.22,-3.40,-4.35,0.02,-1.37,1.11,-23.99,-15.43,31.74,-1.00
9752.00,-8.21,-3.73,-4.39,0.19,-1.48,0.99,-23.99,-15.43,31.74,-1.00
9766.00,-8.21,-3.73,-4.39,0.19,-1.48,0.99,-23.99,-15.43,31.74,-1.00
9778.00,-7.84,-4.38,-4.36,0.31,-1.58,0.91,-23.99,-15.43,31.74,-1.00
9790.00,-7.95,-4.58,-3.67,0.42,-1.62,0.92,-23.99,-15.43,31.74,-1.00
9804.00,-7.95,-4.58,-3.67,0.42,-1.62,0.92,-23.99,-15.43,31.74,-1.00
9816.00,-7.98,-4.46,-3.44,0.43,-1.55,0.94,-23.99,-15.43,31.74,-1.00
9828.00,-7.98,-4.46,-3.44,0.43,-1.55,0.94,-23.99,-15.43,31.74,-1.00
9840.00,-8.30,-4.26,-2.79,0.31,-1.43,0.93,-23.99,-15.43,31.74,-1.00
9855.00,-8.33,-4.11,-3.23,0.08,-1.24,0.90,-24.27,-16.15,33.97,-1.00
9866.00,-8.33,-4.11,-3.23,0.08,-1.24,0.90,-24.27,-16.15,33.97,-1.00
9878.00,-8.17,-4.44,-3.64,-0.12,-1.16,0.87,-24.27,-16.15,33.97,-1.00
9890.00,-8.11,-4.82,-3.87,-0.25,-1.14,0.89,-24.27,-16.15,33.97,-1.00
9904.00,-8.11,-4.82,-3.87,-0.25,-1.14,0.89,-24.27,-16.15,33.97,-1.00
9916.00,-8.07,-4.64,-3.35,-0.30,-1.11,0.99,-24.27,-16.15,33.97,-1.00
9928.00,-8.07,-4.64,-3.35,-0.30,-1.11,0.99,-24.27,-16.15,33.97,-1.00
9940.00,-8.17,-4.47,-3.08,-0.37,-0.99,1.06,-24.27,-16.15,33.97,-1.00
9955.00,-8.31,-3.91,-3.34,-0.45,-0.84,1.12,-24.27,-16.15,33.97,-1.00
9967.00,-8.31,-3.91,-3.34,-0.45,-0.84,1.12,-24.27,-16.15,33.97,-1.00
9979.00,-8.30,-4.09,-4.52,-0.37,-0.83,1.11,-24.55,-16.15,31.74,-1.00
9993.00,-8.13,-4.29,-4.89,-0.20,-0.97,1.11,-24.55,-16.15,31.74,-1.00
10005.00,-8.13,-4.29,-4.89,-0.20,-0.97,1.11,-24.55,-16.15,31.74,-1.00
10017.00,-8.37,-3.96,-5.03,-0.03,-1.18,1.14,-24.55,-16.15,31.74,-1.00
10029.00,-8.37,-3.96,-5.03,-0.03,-1.18,1.14,-24.55,-16.15,31.74,-1.00
10043.00,-8.20,-3.33,-4.87,0.19,-1.43,1.13,-24.55,-16.15,31.74,-1.00
10055.00,-8.25,-3.92,-3.70,0.44,-1.65,1.01,-24.55,-16.15,31.74,-1.00
10067.00,-8.25,-3.92,-3.70,0.44,-1.65,1.01,-24.55,-16.15,31.74,-1.00
10081.00,-8.08,-4.15,-4.00,0.48,-1.66,0.96,-24.55,-16.15,31.74,-1.00
10093.00,-8.16,-4.12,-3.45,0.48,-1.66,0.94,-24.55,-16.15,31.74,-1.00
10105.00,-8.16,-4.12,-3.45,0.48,-1.66,0.94,-24.55,-16.15,31.74,-1.00
10117.00,-8.20,-4.21,-2.97,0.40,-1.58,0.91,-24.13,-15.61,36.87,-1.00
10131.00,-8.38,-4.32,-2.83,0.19,-1.40,0.89,-24.13,-15.61,36.87,-1.00
10143.00,-8.38,-4.32,-2.83,0.19,-1.40,0.89,-24.13,-15.61,36.87,-1.00
10155.00,-8.38,-4.07,-3.27,-0.06,-1.21,0.92,-24.13,-15.61,36.87,-1.00
10167.00,-8.38,-4.07,-3.27,-0.06,-1.21,0.92,-24.13,-15.61,36.87,-1.00
10181.00,-8.36,-4.23,-2.63,-0.21,-1.12,0.90,-24.13,-15.61,36.87,-1.00
10193.00,-8.38,-4.62,-2.80,-0.37,-0.90,0.91,-24.13,-15.61,36.87,-1.00
10205.00,-8.38,-4.62,-2.80,-0.37,-0.90,0.91,-24.13,-15.61,36.87,-1.00
10219.00,-8.22,-4.76,-4.25,-0.55,-0.68,1.04,-24.13,-15.61,36.87,-1.00
10231.00,-8.28,-3.88,-5.02,-0.58,-0.74,1.19,-23.85,-17.41,34.19,-1.00
10243.00,-8.28,-3.88,-5.02,-0.58,-0.74,1.19,-23.85,-17.41,34.19,-1.00
10255.00,-8.42,-4.61,-5.03,-0.47,-1.03,1.28,-23.85,-17.41,34.19,-1.00
10270.00,-8.42,-4.61,-5.03,-0.47,-1.03,1.28,-23.85,-17.41,34.19,-1.00
10281.00,-8.73,-2.83,-5.49,-0.43,-1.34,1.41,-23.85,-17.41,34.19,-1.00
10293.00,-9.17,-2.18,-4.65,-0.20,-1.68,1.26,-23.85,-17.41,34.19,-1.00
10305.00,-9.17,-2.18,-4.65,-0.20,-1.68,1.26,-23.85,-17.41,34.19,-1.00
10319.00,-10.90,-1.30,-2.62,0.04,-1.73,0.74,-23.85,-17.41,34.19,-1.00
10331.00,-9.38,-2.88,-3.49,0.20,-1.30,0.02,-23.85,-17.41,34.19,-1.00
10343.00,-9.38,-2.88,-3.49,0.20,-1.30,0.02,-23.85,-17.41,34.19,-1.00
10357.00,-7.80,-5.04,-5.09,0.18,-1.16,-0.19,-23.71,-16.87,33.97,-1.00
10369.00,-7.80,-5.04,-5.09,0.18,-1.16,-0.19,-23.71,-16.87,33.97,-1.00
10381.00,-8.02,-4.53,-5.14,0.02,-1.48,0.16,-23.71,-16.87,33.97,-1.00
10393.00,-8.26,-5.48,-4.10,0.07,-1.77,0.43,-23.71,-16.87,33.97,-1.00
10407.00,-8.26,-5.48,-4.10,0.07,-1.77,0.43,-23.71,-16.87,33.97,-1.00
10419.00,-8.21,-4.58,-3.35,0.00,-1.67,0.65,-23.71,-16.87,33.97,-1.00
10431.00,-7.13,-4.74,-3.28,0.05,-1.50,0.66,-23.71,-16.87,33.97,-1.00
10445.00,-7.13,-4.74,-3.28,0.05,-1.50,0.66,-23.71,-16.87,33.97,-1.00
10457.00,-6.93,-4.31,-2.67,0.02,-1.58,0.84,-23.71,-16.87,33.97,-1.00
10469.00,-6.93,-4.31,-2.67,0.02,-1.58,0.84,-23.71,-16.87,33.97,-1.00
10481.00,-6.46,-4.18,-2.05,-0.06,-1.63,1.03,-22.45,-19.56,35.98,-1.00
10495.00,-6.66,-4.45,-2.16,0.04,-1.54,1.18,-22.45,-19.56,35.98,-1.00
10507.00,-6.66,-4.45,-2.16,0.04,-1.54,1.18,-22.45,-19.56,35.98,-1.00
10519.00,-8.06,-3.65,-1.82,0.27,-1.35,1.30,-22.45,-19.56,35.98,-1.00
10531.00,-9.25,-3.92,-3.06,0.24,-0.99,1.07,-22.45,-19.56,35.98,-1.00
10545.00,-9.25,-3.92,-3.06,0.24,-0.99,1.07,-22.45,-19.56,35.98,-1.00
10557.00,-7.77,-5.22,-4.24,0.09,-0.80,0.73,-22.45,-19.56,35.98,-1.00
10569.00,-7.77,-5.22,-4.24,0.09,-0.80,0.73,-22.45,-19.56,35.98,-1.00
10584.00,-6.72,-5.96,-4.23,0.15,-0.84,0.63,-22.45,-19.56,35.98,-1.00
10595.00,-6.12,-5.04,-3.09,0.30,-0.91,0.78,-22.45,-19.56,35.98,-1.00
10607.00,-6.12,-5.04,-3.09,0.30,-0.91,0.78,-22.45,-19.56,35.98,-1.00
10619.00,-7.10,-4.62,-3.04,0.40,-0.88,0.94,-23.71,-19.38,36.20,-1.00
10633.00,-9.06,-4.95,-3.35,0.49,-0.80,0.97,-23.71,-19.38,36.20,-1.00
10645.00,-9.06,-4.95,-3.35,0.49,-0.80,0.97,-23.71,-19.38,36.20,-1.00
10657.00,-10.92,-4.49,-3.51,0.38,-0.78,0.96,-23.71,-19.38,36.20,-1.00
10669.00,-10.92,-4.49,-3.51,0.38,-0.78,0.96,-23.71,-19.38,36.20,-1.00
10683.00,-8.31,-5.23,-3.97,0.25,-0.75,0.64,-23.71,-19.38,36.20,-1.00
10695.00,-6.99,-4.92,-3.80,0.24,-0.96,0.62,-23.71,-19.38,36.20,-1.00
10707.00,-6.99,-4.92,-3.80,0.24,-0.96,0.62,-23.71,-19.38,36.20,-1.00
10721.00,-7.21,-6.32,-4.46,0.23,-0.97,0.72,-23.71,-19.38,36.20,-1.00
10733.00,-8.28,-5.83,-4.62,0.12,-0.96,1.00,-22.45,-20.64,35.98,-1.00
10745.00,-8.28,-5.83,-4.62,0.12,-0.96,1.00,-22.45,-20.64,35.98,-1.00
10757.00,-9.19,-3.95,-4.00,0.02,-1.07,1.19,-22.45,-20.64,35.98,-1.00
10771.00,-7.94,-3.91,-3.06,0.01,-1.10,1.00,-22.45,-20.64,35.98,-1.00
10783.00,-7.94,-3.91,-3.06,0.01,-1.10,1.00,-22.45,-20.64,35.98,-1.00
10795.00,-7.59,-4.87,-3.50,0.00,-1.06,0.84,-22.45,-20.64,35.98,-1.00
10807.00,-7.59,-4.87,-3.50,0.00,-1.06,0.84,-22.45,-20.64,35.98,-1.00
10821.00,-7.37,-5.66,-4.16,0.03,-1.05,0.89,-22.45,-20.64,35.98,-1.00
10910.00,-8.54,-4.53,-3.38,0.08,-1.19,0.95,-22.31,-19.74,33.97,-1.00
10998.00,-7.92,-5.15,-3.79,-0.10,-1.25,1.27,-23.57,-19.56,35.09,-1.00
11011.00,-8.97,-4.17,-3.59,-0.20,-1.23,1.28,-23.57,-19.56,35.09,-1.00
11023.00,-8.97,-4.17,-3.59,-0.20,-1.23,1.28,-23.57,-19.56,35.09,-1.00
11035.00,-8.59,-3.68,-3.59,-0.25,-1.23,1.10,-23.57,-19.56,35.09,-1.00
11047.00,-8.59,-3.68,-3.59,-0.25,-1.23,1.10,-23.57,-19.56,35.09,-1.00
11061.00,-8.51,-3.17,-4.31,-0.20,-1.34,0.94,-23.57,-19.56,35.09,-1.00
11073.00,-8.07,-4.53,-4.10,0.01,-1.57,0.77,-23.57,-19.56,35.09,-1.00
11085.00,-8.07,-4.53,-4.10,0.01,-1.57,0.77,-23.57,-19.56,35.09,-1.00
11097.00,-7.47,-4.91,-2.98,0.12,-1.63,0.80,-23.57,-19.56,35.09,-1.00
11111.00,-7.58,-5.58,-3.19,0.01,-1.35,0.81,-23.57,-20.28,33.75,-1.00
11123.00,-7.58,-5.58,-3.19,0.01,-1.35,0.81,-23.57,-20.28,33.75,-1.00
11135.00,-7.87,-5.18,-3.01,-0.23,-1.10,0.89,-23.57,-20.28,33.75,-1.00
11149.00,-7.87,-5.18,-3.01,-0.23,-1.10,0.89,-23.57,-20.28,33.75,-1.00
11161.00,-7.74,-5.17,-3.22,-0.48,-0.96,0.96,-23.57,-20.28,33.75,-1.00
11173.00,-8.04,-4.84,-3.93,-0.63,-0.80,1.03,-23.57,-20.28,33.75,-1.00
11185.00,-8.04,-4.84,-3.93,-0.63,-0.80,1.03,-23.57,-20.28,33.75,-1.00
11200.00,-7.93,-4.64,-4.63,-0.70,-0.78,1.12,-23.57,-20.28,33.75,-1.00
11211.00,-7.87,-4.34,-4.90,-0.56,-0.90,1.17,-23.57,-20.28,33.75,-1.00
11223.00,-7.87,-4.34,-4.90,-0.56,-0.90,1.17,-23.57,-20.28,33.75,-1.00
11237.00,-8.13,-4.25,-5.07,-0.32,-1.09,1.16,-23.99,-19.74,32.63,-1.00
11249.00,-8.13,-4.25,-5.07,-0.32,-1.09,1.16,-23.99,-19.74,32.63,-1.00
11261.00,-8.57,-4.00,-5.19,-0.05,-1.36,1.15,-23.99,-19.74,32.63,-1.00
11273.00,-8.09,-3.76,-3.95,0.24,-1.63,1.16,-23.99,-19.74,32.63,-1.00
11287.00,-8.09,-3.76,-3.95,0.24,-1.63,1.16,-23.99,-19.74,32.63,-1.00
11299.00,-7.60,-4.15,-3.57,0.40,-1.71,1.04,-23.99,-19.74,32.63,-1.00
11311.00,-7.59,-4.76,-3.66,0.48,-1.54,0.94,-23.99,-19.74,32.63,-1.00
11323.00,-7.59,-4.76,-3.66,0.48,-1.54,0.94,-23.99,-19.74,32.63,-1.00
11337.00,-7.78,-4.65,-4.01,0.42,-1.37,0.92,-23.99,-19.74,32.63,-1.00
11349.00,-7.78,-4.65,-4.01,0.42,-1.37,0.92,-23.99,-19.74,32.63,-1.00
11361.00,-8.08,-4.45,-3.35,0.34,-1.38,0.90,-23.57,-19.92,32.86,-1.00
11376.00,-8.13,-4.71,-3.20,0.10,-1.31,0.87,-23.57,-19.92,32.86,-1.00
11387.00,-8.13,-4.71,-3.20,0.10,-1.31,0.87,-23.57,-19.92,32.86,-1.00
11399.00,-8.22,-4.48,-3.78,-0.11,-1.20,0.89,-23.57,-19.92,32.86,-1.00
11411.00,-8.22,-4.48,-3.78,-0.11,-1.20,0.89,-23.57,-19.92,32.86,-1.00
11425.00,-8.00,-4.75,-4.21,-0.24,-1.20,0.92,-23.57,-19.92,32.86,-1.00
11437.00,-8.20,-4.97,-3.35,-0.32,-1.22,1.00,-23.57,-19.92,32.86,-1.00
11449.00,-8.20,-4.97,-3.35,-0.32,-1.22,1.00,-23.57,-19.92,32.86,-1.00
11461.00,-8.38,-4.44,-3.23,-0.44,-1.12,1.13,-23.57,-19.92,32.86,-1.00
11475.00,-8.51,-3.51,-3.55,-0.43,-1.09,1.15,-23.57,-19.92,32.86,-1.00
11487.00,-8.51,-3.51,-3.55,-0.43,-1.09,1.15,-23.57,-19.92,32.86,-1.00
11499.00,-8.27,-3.93,-4.42,-0.29,-1.14,1.07,-23.29,-19.56,33.75,-1.00
11513.00,-8.03,-4.50,-4.68,-0.08,-1.27,1.06,-23.29,-19.56,33.75,-1.00
11526.00,-8.03,-4.50,-4.68,-0.08,-1.27,1.06,-23.29,-19.56,33.75,-1.00
11538.00,-8.06,-4.22,-4.27,0.08,-1.42,1.09,-23.29,-19.56,33.75,-1.00
11550.00,-8.06,-4.22,-4.27,0.08,-1.42,1.09,-23.29,-19.56,33.75,-1.00
11564.00,-7.82,-4.25,-4.26,0.24,-1.51,1.06,-23.29,-19.56,33.75,-1.00
11576.00,-7.77,-4.36,-3.59,0.40,-1.55,0.98,-23.29,-19.56,33.75,-1.00
11588.00,-7.77,-4.36,-3.59,0.40,-1.55,0.98,-23.29,-19.56,33.75,-1.00
11602.00,-8.15,-4.38,-3.06,0.46,-1.47,0.89,-23.29,-19.56,33.75,-1.00
11614.00,-8.06,-4.29,-3.35,0.36,-1.34,0.84,-24.55,-19.02,34.42,-1.00
11626.00,-8.06,-4.29,-3.35,0.36,-1.34,0.84,-24.55,-19.02,34.42,-1.00
11638.00,-8.09,-4.87,-3.60,0.15,-1.23,0.81,-24.55,-19.02,34.42,-1.00
11653.00,-8.20,-4.49,-3.59,-0.11,-1.17,0.88,-24.55,-19.02,34.42,-1.00
11664.00,-8.20,-4.49,-3.59,-0.11,-1.17,0.88,-24.55,-19.02,34.42,-1.00
11676.00,-8.12,-4.71,-3.40,-0.27,-1.13,0.92,-24.55,-19.02,34.42,-1.00
11688.00,-8.12,-4.71,-3.40,-0.27,-1.13,0.92,-24.55,-19.02,34.42,-1.00
11703.00,-8.39,-4.28,-3.50,-0.38,-1.05,1.02,-24.55,-19.02,34.42,-1.00
11714.00,-8.42,-4.32,-3.29,-0.50,-0.97,1.10,-24.55,-19.02,34.42,-1.00
11726.00,-8.42,-4.32,-3.29,-0.50,-0.97,1.10,-24.55,-19.02,34.42,-1.00
11740.00,-8.51,-3.64,-3.52,-0.56,-0.86,1.18,-24.41,-18.48,32.41,-1.00
11752.00,-8.26,-4.08,-4.32,-0.47,-0.89,1.14,-24.41,-18.48,32.41,-1.00
11764.00,-8.26,-4.08,-4.32,-0.47,-0.89,1.14,-24.41,-18.48,32.41,-1.00
11776.00,-8.11,-4.31,-4.70,-0.28,-1.02,1.12,-24.41,-18.48,32.41,-1.00
11790.00,-8.11,-4.31,-4.70,-0.28,-1.02,1.12,-24.41,-18.48,32.41,-1.00
11802.00,-8.15,-3.76,-4.55,-0.09,-1.22,1.10,-24.41,-18.48,32.41,-1.00
11814.00,-8.53,-3.46,-4.59,0.09,-1.34,1.04,-24.41,-18.48,32.41,-1.00
11828.00,-8.53,-3.46,-4.59,0.09,-1.34,1.04,-24.41,-18.48,32.41,-1.00
11840.00,-8.29,-3.70,-3.98,0.20,-1.51,0.96,-24.41,-18.48,32.41,-1.00
11852.00,-8.06,-4.50,-3.83,0.24,-1.53,0.91,-24.97,-17.41,30.18,-1.00
11864.00,-8.06,-4.50,-3.83,0.24,-1.53,0.91,-24.97,-17.41,30.18,-1.00
11878.00,-7.95,-4.48,-4.03,0.15,-1.46,0.97,-24.97,-17.41,30.18,-1.00
11890.00,-7.95,-4.48,-4.03,0.15,-1.46,0.97,-24.97,-17.41,30.18,-1.00
11902.00,-8.08,-4.56,-3.53,-0.02,-1.40,1.01,-24.97,-17.41,30.18,-1.00
11914.00,-8.22,-3.95,-2.89,-0.18,-1.27,1.07,-24.97,-17.41,30.18,-1.00
11928.00,-8.22,-3.95,-2.89,-0.18,-1.27,1.07,-24.97,-17.41,30.18,-1.00
11940.00,-8.13,-4.33,-2.47,-0.25,-0.99,1.05,-24.97,-17.41,30.18,-1.00
11953.00,-8.41,-3.57,-4.17,-0.29,-0.65,1.08,-24.97,-17.41,30.18,-1.00
11966.00,-8.41,-3.57,-4.17,-0.29,-0.65,1.08,-24.97,-17.41,30.18,-1.00
11978.00,-8.39,-3.52,-5.33,-0.20,-0.73,1.01,-24.97,-17.41,30.18,-1.00
11990.00,-8.39,-3.52,-5.33,-0.20,-0.73,1.01,-24.97,-17.41,30.18,-1.00
12002.00,-8.45,-3.96,-5.57,-0.09,-1.10,0.92,-24.27,-17.94,29.95,-1.00
12016.00,-8.32,-3.51,-5.80,-0.02,-1.53,0.91,-24.27,-17.94,29.95,-1.00
12028.00,-8.32,-3.51,-5.80,-0.02,-1.53,0.91,-24.27,-17.94,29.95,-1.00
12040.00,-8.11,-4.00,-3.10,0.24,-1.89,0.85,-24.27,-17.94,29.95,-1.00
12052.00,-8.13,-4.22,-2.32,0.19,-1.60,0.86,-24.27,-17.94,29.95,-1.00
12066.00,-8.13,-4.22,-2.32,0.19,-1.60,0.86,-24.27,-17.94,29.95,-1.00
12078.00,-8.16,-4.60,-2.13,-0.09,-1.16,0.90,-24.27,-17.94,29.95,-1.00
12090.00,-8.16,-4.60,-2.13,-0.09,-1.16,0.90,-24.27,-17.94,29.95,-1.00
12104.00,-8.14,-4.77,-3.85,-0.45,-0.77,1.02,-24.27,-17.94,29.95,-1.00
12116.00,-8.46,-4.30,-5.53,-0.54,-0.77,1.21,-25.11,-17.94,32.63,-1.00
12128.00,-8.46,-4.30,-5.53,-0.54,-0.77,1.21,-25.11,-17.94,32.63,-1.00
12140.00,-8.46,-2.91,-5.46,-0.36,-1.08,1.31,-25.11,-17.94,32.63,-1.00
12154.00,-8.78,-2.73,-4.82,-0.18,-1.38,1.14,-25.11,-17.94,32.63,-1.00
12166.00,-8.78,-2.73,-4.82,-0.18,-1.38,1.14,-25.11,-17.94,32.63,-1.00
12178.00,-11.94,-0.90,-3.37,-0.11,-1.55,0.84,-25.11,-17.94,32.63,-1.00
12192.00,-9.48,-3.26,-4.55,-0.08,-1.20,0.09,-25.11,-17.94,32.63,-1.00
12204.00,-9.48,-3.26,-4.55,-0.08,-1.20,0.09,-25.11,-17.94,32.63,-1.00
12216.00,-7.59,-5.36,-6.39,-0.33,-1.25,-0.06,-25.11,-17.94,32.63,-1.00
12228.00,-7.59,-5.36,-6.39,-0.33,-1.25,-0.06,-25.11,-17.94,32.63,-1.00
12243.00,-6.93,-4.83,-6.14,-0.38,-1.89,0.45,-24.83,-18.66,30.85,-1.00
12254.00,-7.60,-4.16,-2.60,-0.11,-2.41,0.83,-24.83,-18.66,30.85,-1.00
12266.00,-7.60,-4.16,-2.60,-0.11,-2.41,0.83,-24.83,-18.66,30.85,-1.00
12278.00,-5.89,-4.97,-1.86,0.05,-2.07,0.86,-24.83,-18.66,30.85,-1.00
12292.00,-3.48,-5.13,-1.59,0.26,-1.64,1.03,-24.83,-18.66,30.85,-1.00
12304.00,-3.48,-5.13,-1.59,0.26,-1.64,1.03,-24.83,-18.66,30.85,-1.00
12316.00,-6.23,-3.73,-0.87,0.64,-1.28,1.32,-24.83,-18.66,30.85,-1.00
12330.00,-6.23,-3.73,-0.87,0.64,-1.28,1.32,-24.83,-18.66,30.85,-1.00
12342.00,-10.03,-4.04,-2.54,0.60,-0.60,1.19,-24.83,-18.66,30.85,-1.00
12354.00,-10.60,-4.56,-4.35,0.22,-0.18,0.86,-24.55,-20.82,31.74,-1.00
12366.00,-10.60,-4.56,-4.35,0.22,-0.18,0.86,-24.55,-20.82,31.74,-1.00
12380.00,-8.80,-3.75,-4.41,0.03,-0.26,0.71,-24.55,-20.82,31.74,-1.00
12468.00,-8.21,-5.01,-4.60,0.18,-1.13,0.87,-24.55,-20.82,31.74,-1.00
12558.00,-7.82,-4.57,-4.07,0.13,-1.32,1.04,-23.57,-20.64,30.18,-1.00
12645.00,-7.74,-4.23,-3.73,0.22,-1.32,0.92,-22.59,-21.54,29.95,-1.00
12658.00,-7.80,-4.10,-3.43,0.26,-1.24,0.83,-22.59,-21.54,29.95,-1.00
12670.00,-7.80,-4.10,-3.43,0.26,-1.24,0.83,-22.59,-21.54,29.95,-1.00
12682.00,-7.71,-4.83,-3.66,0.13,-1.12,0.71,-22.59,-21.54,29.95,-1.00
12697.00,-7.90,-5.13,-3.67,-0.12,-1.05,0.73,-22.59,-21.54,29.95,-1.00
12708.00,-7.90,-5.13,-3.67,-0.12,-1.05,0.73,-22.59,-21.54,29.95,-1.00
12720.00,-8.22,-4.44,-3.99,-0.43,-0.98,0.91,-22.59,-21.54,29.95,-1.00
12732.00,-8.22,-4.44,-3.99,-0.43,-0.98,0.91,-22.59,-21.54,29.95,-1.00
12746.00,-8.65,-4.20,-3.63,-0.51,-0.98,1.03,-23.29,-21.36,30.62,-1.00
12758.00,-8.57,-4.25,-4.44,-0.54,-0.96,1.14,-23.29,-21.36,30.62,-1.00
12770.00,-8.57,-4.25,-4.44,-0.54,-0.96,1.14,-23.29,-21.36,30.62,-1.00
12784.00,-8.34,-4.38,-5.76,-0.23,-1.09,1.24,-23.29,-21.36,30.62,-1.00
12796.00,-7.61,-3.98,-4.91,0.33,-1.44,1.32,-23.29,-21.36,30.62,-1.00
12808.00,-7.61,-3.98,-4.91,0.33,-1.44,1.32,-23.29,-21.36,30.62,-1.00
12820.00,-7.63,-3.86,-3.72,0.65,-1.66,1.21,-23.29,-21.36,30.62,-1.00
12834.00,-8.10,-4.18,-3.80,0.61,-1.59,1.01,-23.29,-21.36,30.62,-1.00
12847.00,-8.10,-4.18,-3.80,0.61,-1.59,1.01,-23.29,-21.36,30.62,-1.00
12859.00,-7.76,-4.44,-4.13,0.45,-1.51,0.89,-22.87,-20.46,32.63,-1.00
12871.00,-7.76,-4.44,-4.13,0.45,-1.51,0.89,-22.87,-20.46,32.63,-1.00
12885.00,-7.92,-4.87,-3.31,0.31,-1.50,0.88,-22.87,-20.46,32.63,-1.00
12897.00,-8.05,-4.37,-3.31,0.00,-1.33,0.92,-22.87,-20.46,32.63,-1.00
12909.00,-8.05,-4.37,-3.31,0.00,-1.33,0.92,-22.87,-20.46,32.63,-1.00
12923.00,-8.15,-4.59,-2.95,-0.24,-1.17,0.88,-22.87,-20.46,32.63,-1.00
12935.00,-8.16,-4.76,-3.22,-0.39,-0.99,0.94,-22.87,-20.46,32.63,-1.00
12947.00,-8.16,-4.76,-3.22,-0.39,-0.99,0.94,-22.87,-20.46,32.63,-1.00
12959.00,-8.29,-4.33,-4.21,-0.53,-0.85,1.06,-22.87,-20.46,32.63,-1.00
12974.00,-7.98,-4.70,-4.22,-0.51,-0.85,1.15,-22.87,-20.46,32.63,-1.00
12985.00,-7.98,-4.70,-4.22,-0.51,-0.85,1.15,-22.87,-20.46,32.63,-1.00
12997.00,-8.22,-3.83,-4.86,-0.40,-0.93,1.25,-24.69,-19.56,31.07,-1.00
13009.00,-8.22,-3.83,-4.86,-0.40,-0.93,1.25,-24.69,-19.56,31.07,-1.00
13023.00,-8.12,-3.67,-4.61,-0.14,-1.13,1.23,-24.69,-19.56,31.07,-1.00
13035.00,-8.31,-3.82,-4.47,0.08,-1.30,1.14,-24.69,-19.56,31.07,-1.00
13047.00,-8.31,-3.82,-4.47,0.08,-1.30,1.14,-24.69,-19.56,31.07,-1.00
13061.00,-8.17,-3.28,-5.16,0.26,-1.44,1.08,-24.69,-19.56,31.07,-1.00
13073.00,-7.84,-4.32,-4.53,0.44,-1.71,0.94,-24.69,-19.56,31.07,-1.00
13085.00,-7.84,-4.32,-4.53,0.44,-1.71,0.94,-24.69,-19.56,31.07,-1.00
13097.00,-7.64,-4.91,-3.99,0.45,-1.70,0.94,-24.69,-19.56,31.07,-1.00
13111.00,-7.64,-4.91,-3.99,0.45,-1.70,0.94,-24.69,-19.56,31.07,-1.00
13123.00,-8.11,-4.01,-3.37,0.40,-1.56,1.02,-24.27,-21.54,32.63,-1.00
13135.00,-8.54,-3.46,-2.48,0.28,-1.41,0.97,-24.27,-21.54,32.63,-1.00
13149.00,-8.54,-3.46,-2.48,0.28,-1.41,0.97,-24.27,-21.54,32.63,-1.00
13161.00,-8.45,-3.86,-3.21,-0.03,-1.23,0.84,-24.27,-21.54,32.63,-1.00
13173.00,-8.27,-4.32,-3.35,-0.32,-1.12,0.79,-24.27,-21.54,32.63,-1.00
13185.00,-8.27,-4.32,-3.35,-0.32,-1.12,0.79,-24.27,-21.54,32.63,-1.00
13199.00,-7.66,-5.47,-2.58,-0.49,-1.02,0.84,-24.27,-21.54,32.63,-1.00
13211.00,-7.66,-5.47,-2.58,-0.49,-1.02,0.84,-24.27,-21.54,32.63,-1.00
13223.00,-8.35,-4.16,-4.08,-0.63,-0.77,1.03,-24.27,-21.54,32.63,-1.00
13235.00,-8.35,-3.99,-3.83,-0.57,-0.72,1.10,-24.83,-20.46,30.40,-1.00
13249.00,-8.35,-3.99,-3.83,-0.57,-0.72,1.10,-24.83,-20.46,30.40,-1.00
13261.00,-8.22,-3.86,-5.22,-0.48,-0.75,1.12,-24.83,-20.46,30.40,-1.00
13273.00,-8.22,-3.86,-5.22,-0.48,-0.75,1.12,-24.83,-20.46,30.40,-1.00
13287.00,-8.16,-4.73,-5.72,-0.24,-1.01,1.10,-24.83,-20.46,30.40,-1.00
13376.00,-7.07,-4.47,-4.45,0.28,-1.57,0.52,-24.41,-17.77,31.96,-1.00
13465.00,-9.84,-3.51,-3.11,0.04,-1.15,1.10,-24.41,-17.77,31.96,-1.00
13552.00,-9.10,-4.07,-3.75,-0.06,-1.20,0.74,-24.13,-17.77,34.64,-1.00
13565.00,-9.90,-2.42,-3.31,-0.06,-1.29,0.68,-24.13,-17.77,34.64,-1.00
13577.00,-7.07,-5.03,-3.85,-0.03,-1.28,0.33,-24.13,-17.77,34.64,-1.00
13589.00,-7.07,-5.03,-3.85,-0.03,-1.28,0.33,-24.13,-17.77,34.64,-1.00
13601.00,-5.55,-6.84,-3.90,-0.06,-1.40,0.51,-24.13,-17.77,34.64,-1.00
13615.00,-6.58,-6.51,-4.15,-0.10,-1.43,1.04,-24.13,-22.08,35.53,-1.00
13627.00,-6.58,-6.51,-4.15,-0.10,-1.43,1.04,-24.13,-22.08,35.53,-1.00
13639.00,-9.38,-4.74,-4.00,-0.14,-1.44,1.47,-24.13,-22.08,35.53,-1.00
13653.00,-9.38,-4.74,-4.00,-0.14,-1.44,1.47,-24.13,-22.08,35.53,-1.00
13665.00,-8.91,-3.65,-2.67,-0.20,-1.35,1.39,-24.13,-22.08,35.53,-1.00
13677.00,-8.45,-3.31,-1.92,-0.40,-1.12,1.15,-24.13,-22.08,35.53,-1.00
13689.00,-8.45,-3.31,-1.92,-0.40,-1.12,1.15,-24.13,-22.08,35.53,-1.00
13703.00,-8.37,-3.85,-2.86,-0.59,-0.74,0.95,-24.13,-22.08,35.53,-1.00
13715.00,-7.99,-4.45,-4.37,-0.71,-0.47,0.92,-24.13,-22.08,35.53,-1.00
13727.00,-7.99,-4.45,-4.37,-0.71,-0.47,0.92,-24.13,-22.08,35.53,-1.00
13741.00,-7.76,-4.32,-4.76,-0.60,-0.47,1.02,-24.83,-20.10,29.51,-1.00
13753.00,-7.76,-4.32,-4.76,-0.60,-0.47,1.02,-24.83,-20.10,29.51,-1.00
13765.00,-8.37,-3.95,-4.01,-0.32,-0.53,1.11,-24.83,-20.10,29.51,-1.00
13777.00,-8.32,-3.60,-3.63,-0.34,-0.52,1.14,-24.83,-20.10,29.51,-1.00
13791.00,-8.32,-3.60,-3.63,-0.34,-0.52,1.14,-24.83,-20.10,29.51,-1.00
13803.00,-8.20,-4.22,-5.24,-0.41,-0.49,1.08,-24.83,-20.10,29.51,-1.00
13815.00,-7.98,-4.09,-6.27,-0.37,-0.73,1.11,-24.83,-20.10,29.51,-1.00
13827.00,-7.98,-4.09,-6.27,-0.37,-0.73,1.11,-24.83,-20.10,29.51,-1.00
13841.00,-8.26,-3.69,-5.04,-0.16,-1.09,1.13,-24.83,-20.10,29.51,-1.00
13853.00,-8.26,-3.69,-5.04,-0.16,-1.09,1.13,-24.83,-20.10,29.51,-1.00
13865.00,-8.26,-4.11,-5.20,-0.05,-1.24,1.15,-24.83,-20.10,29.51,-1.00
13879.00,-8.02,-3.61,-5.45,-0.04,-1.38,1.25,-24.97,-20.28,27.50,-1.00
13891.00,-8.02,-3.61,-5.45,-0.04,-1.38,1.25,-24.97,-20.28,27.50,-1.00
13903.00,-8.07,-3.29,-5.12,0.06,-1.56,1.24,-24.97,-20.28,27.50,-1.00
13915.00,-8.01,-3.05,-4.61,0.09,-1.66,1.13,-24.97,-20.28,27.50,-1.00
13930.00,-8.01,-3.05,-4.61,0.09,-1.66,1.13,-24.97,-20.28,27.50,-1.00
13941.00,-8.29,-3.68,-4.36,0.11,-1.66,0.97,-24.97,-20.28,27.50,-1.00
13953.00,-8.29,-3.68,-4.36,0.11,-1.66,0.97,-24.97,-20.28,27.50,-1.00
13967.00,-8.81,-3.10,-3.76,0.12,-1.52,0.85,-24.97,-20.28,27.50,-1.00
13979.00,-7.95,-3.97,-4.11,0.15,-1.30,0.62,-24.97,-20.28,27.50,-1.00
13991.00,-7.95,-3.97,-4.11,0.15,-1.30,0.62,-24.97,-20.28,27.50,-1.00
14003.00,-7.36,-4.46,-4.31,0.13,-1.28,0.60,-24.83,-20.10,28.17,-1.00
14017.00,-6.92,-4.66,-4.13,0.16,-1.34,0.72,-24.83,-20.10,28.17,-1.00
14029.00,-6.92,-4.66,-4.13,0.16,-1.34,0.72,-24.83,-20.10,28.17,-1.00
14041.00,-7.08,-4.72,-4.05,0.24,-1.34,0.88,-24.83,-20.10,28.17,-1.00
14053.00,-7.08,-4.72,-4.05,0.24,-1.34,0.88,-24.83,-20.10,28.17,-1.00
14067.00,-7.01,-4.53,-3.90,0.19,-1.34,1.05,-24.83,-20.10,28.17,-1.00
14080.00,-11.07,-3.04,-3.23,0.02,-1.34,1.20,-24.83,-20.10,28.17,-1.00
14092.00,-11.07,-3.04,-3.23,0.02,-1.34,1.20,-24.83,-20.10,28.17,-1.00
14106.00,-8.81,-2.98,-4.59,-0.27,-1.12,1.07,-24.83,-20.10,28.17,-1.00
14118.00,-8.63,-3.51,-5.58,-0.35,-1.21,0.96,-25.25,-20.64,28.84,-1.00
14130.00,-8.63,-3.51,-5.58,-0.35,-1.21,0.96,-25.25,-20.64,28.84,-1.00
14142.00,-7.94,-4.32,-5.51,-0.24,-1.46,1.01,-25.25,-20.64,28.84,-1.00
14156.00,-8.67,-3.44,-4.18,-0.04,-1.65,1.22,-25.25,-20.64,28.84,-1.00
14168.00,-8.67,-3.44,-4.18,-0.04,-1.65,1.22,-25.25,-20.64,28.84,-1.00
14180.00,-8.65,-2.60,-3.58,0.07,-1.58,1.21,-25.25,-20.64,28.84,-1.00
14192.00,-8.65,-2.60,-3.58,0.07,-1.58,1.21,-25.25,-20.64,28.84,-1.00
14207.00,-10.85,-1.86,-3.09,0.13,-1.50,1.04,-25.25,-20.64,28.84,-1.00
14218.00,-10.24,-2.42,-3.78,0.18,-1.09,0.37,-25.25,-20.64,28.84,-1.00
14230.00,-10.24,-2.42,-3.78,0.18,-1.09,0.37,-25.25,-20.64,28.84,-1.00
14244.00,-8.33,-3.99,-4.76,0.14,-0.84,-0.19,-24.13,-20.64,30.62,-1.00
14256.00,-7.16,-5.83,-5.23,-0.02,-0.93,-0.15,-24.13,-20.64,30.62,-1.00
14268.00,-7.16,-5.83,-5.23,-0.02,-0.93,-0.15,-24.13,-20.64,30.62,-1.00
14280.00,-6.86,-4.64,-4.25,-0.25,-1.26,0.38,-24.13,-20.64,30.62,-1.00
14294.00,-6.86,-4.64,-4.25,-0.25,-1.26,0.38,-24.13,-20.64,30.62,-1.00
14306.00,-7.06,-4.80,-3.20,-0.27,-1.40,0.69,-24.13,-20.64,30.62,-1.00
14318.00,-7.11,-4.99,-4.41,-0.19,-1.24,1.00,-24.13,-20.64,30.62,-1.00
14332.00,-7.11,-4.99,-4.41,-0.19,-1.24,1.00,-24.13,-20.64,30.62,-1.00
14345.00,-7.36,-4.44,-3.85,0.01,-1.35,1.29,-24.13,-20.64,30.62,-1.00
14356.00,-7.43,-3.36,-2.95,0.19,-1.42,1.38,-24.13,-20.64,30.62,-1.00
14368.00,-7.43,-3.36,-2.95,0.19,-1.42,1.38,-24.13,-20.64,30.62,-1.00
14382.00,-5.84,-4.08,-3.11,0.38,-1.29,1.22,-24.41,-21.72,30.18,-1.00
14394.00,-5.84,-4.08,-3.11,0.38,-1.29,1.22,-24.41,-21.72,30.18,-1.00
14406.00,-5.86,-4.69,-3.31,0.53,-1.20,1.28,-24.41,-21.72,30.18,-1.00
14418.00,-8.94,-3.63,-3.69,0.68,-0.97,1.37,-24.41,-21.72,30.18,-1.00
14432.00,-8.94,-3.63,-3.69,0.68,-0.97,1.37,-24.41,-21.72,30.18,-1.00
14444.00,-8.57,-5.85,-6.42,0.72,-0.48,0.95,-24.41,-21.72,30.18,-1.00
14456.00,-7.88,-5.77,-7.17,0.75,-0.78,0.96,-24.41,-21.72,30.18,-1.00
14470.00,-7.88,-5.77,-7.17,0.75,-0.78,0.96,-24.41,-21.72,30.18,-1.00
14482.00,-7.98,-4.06,-3.22,1.06,-1.32,1.15,-24.41,-21.72,30.18,-1.00
14494.00,-7.98,-4.06,-3.22,1.06,-1.32,1.15,-24.41,-21.72,30.18,-1.00
14506.00,-8.56,-2.71,-1.46,0.95,-1.37,1.18,-24.41,-20.64,31.07,-1.00
14520.00,-8.88,-2.91,-2.52,0.74,-1.06,0.95,-24.41,-20.64,31.07,-1.00
14532.00,-8.88,-2.91,-2.52,0.74,-1.06,0.95,-24.41,-20.64,31.07,-1.00
14544.00,-8.53,-3.99,-3.98,0.54,-0.86,0.65,-24.41,-20.64,31.07,-1.00
14556.00,-8.09,-5.33,-4.57,0.40,-0.84,0.48,-24.41,-20.64,31.07,-1.00
14570.00,-8.09,-5.33,-4.57,0.40,-0.84,0.48,-24.41,-20.64,31.07,-1.00
14582.00,-8.43,-5.32,-3.89,0.35,-0.96,0.59,-24.41,-20.64,31.07,-1.00
14594.00,-8.43,-5.32,-3.89,0.35,-0.96,0.59,-24.41,-20.64,31.07,-1.00
14609.00,-7.64,-5.09,-3.49,0.16,-1.04,0.70,-24.41,-20.64,31.07,-1.00
14620.00,-7.16,-5.43,-4.62,0.03,-1.03,0.72,-23.57,-21.36,33.30,-1.00
14632.00,-7.16,-5.43,-4.62,0.03,-1.03,0.72,-23.57,-21.36,33.30,-1.00
14644.00,-8.21,-5.00,-4.26,-0.02,-1.23,0.82,-23.57,-21.36,33.30,-1.00
14658.00,-7.60,-4.75,-3.77,-0.15,-1.31,0.81,-23.57,-21.36,33.30,-1.00
14670.00,-7.60,-4.75,-3.77,-0.15,-1.31,0.81,-23.57,-21.36,33.30,-1.00
14682.00,-6.92,-5.49,-4.09,-0.30,-1.32,0.83,-23.57,-21.36,33.30,-1.00
14696.00,-6.65,-6.01,-4.51,-0.42,-1.38,1.05,-23.57,-21.36,33.30,-1.00
14708.00,-6.65,-6.01,-4.51,-0.42,-1.38,1.05,-23.57,-21.36,33.30,-1.00
14720.00,-9.65,-4.49,-4.18,-0.59,-1.49,1.37,-23.57,-21.36,33.30,-1.00
14732.00,-9.65,-4.49,-4.18,-0.59,-1.49,1.37,-23.57,-21.36,33.30,-1.00
14746.00,-8.96,-3.50,-3.71,-0.53,-1.46,1.40,-23.85,-22.08,29.73,-1.00
14758.00,-9.16,-3.12,-4.58,-0.05,-1.43,1.29,-23.85,-22.08,29.73,-1.00
14770.00,-9.16,-3.12,-4.58,-0.05,-1.43,1.29,-23.85,-22.08,29.73,-1.00
14782.00,-7.99,-4.07,-5.29,0.61,-1.57,1.20,-23.85,-22.08,29.73,-1.00
14797.00,-7.35,-4.24,-3.81,1.05,-1.89,1.16,-23.85,-22.08,29.73,-1.00
14808.00,-7.35,-4.24,-3.81,1.05,-1.89,1.16,-23.85,-22.08,29.73,-1.00
14820.00,-7.64,-5.23,-3.90,1.14,-1.87,0.97,-23.85,-22.08,29.73,-1.00
14834.00,-7.64,-5.23,-3.90,1.14,-1.87,0.97,-23.85,-22.08,29.73,-1.00
14846.00,-7.97,-4.78,-2.70,1.13,-1.89,0.96,-23.85,-22.08,29.73,-1.00
14858.00,-8.52,-4.83,-1.76,0.81,-1.75,0.91,-23.85,-22.08,29.73,-1.00
14870.00,-8.52,-4.83,-1.76,0.81,-1.75,0.91,-23.85,-22.08,29.73,-1.00
14884.00,-8.41,-4.93,-2.50,0.22,-1.45,0.96,-23.71,-20.82,38.88,-1.00
14896.00,-8.40,-4.70,-3.16,-0.19,-1.27,1.04,-23.71,-20.82,38.88,-1.00
14908.00,-8.40,-4.70,-3.16,-0.19,-1.27,1.04,-23.71,-20.82,38.88,-1.00
14920.00,-8.63,-5.55,-1.31,-0.40,-1.23,1.15,-23.71,-20.82,38.88,-1.00
14934.00,-8.63,-5.55,-1.31,-0.40,-1.23,1.15,-23.71,-20.82,38.88,-1.00
15022.00,-7.64,-4.99,-6.06,-0.98,-0.80,0.36,-24.13,-19.20,33.75,-1.00
15112.00,-8.07,-4.65,-4.72,-0.27,-1.34,0.96,-24.13,-19.20,33.75,-1.00
15126.00,-8.21,-4.76,-4.86,0.08,-1.44,1.11,-24.83,-22.62,29.95,-1.00
15138.00,-7.94,-4.22,-4.19,0.42,-1.59,1.26,-24.83,-22.62,29.95,-1.00
15150.00,-7.94,-4.22,-4.19,0.42,-1.59,1.26,-24.83,-22.62,29.95,-1.00
15162.00,-7.79,-4.16,-4.19,0.61,-1.62,1.22,-24.83,-22.62,29.95,-1.00
15176.00,-7.88,-4.13,-3.64,0.71,-1.64,1.10,-24.83,-22.62,29.95,-1.00
15188.00,-7.88,-4.13,-3.64,0.71,-1.64,1.10,-24.83,-22.62,29.95,-1.00
15200.00,-8.18,-4.31,-3.21,0.65,-1.60,0.97,-24.83,-22.62,29.95,-1.00
15212.00,-8.18,-4.31,-3.21,0.65,-1.60,0.97,-24.83,-22.62,29.95,-1.00
15227.00,-8.15,-4.80,-2.87,0.39,-1.47,0.92,-24.83,-22.62,29.95,-1.00
15238.00,-8.21,-4.38,-3.37,0.02,-1.27,0.95,-24.27,-20.10,34.86,-1.00
15250.00,-8.21,-4.38,-3.37,0.02,-1.27,0.95,-24.27,-20.10,34.86,-1.00
15264.00,-8.16,-4.52,-2.91,-0.28,-1.19,0.92,-24.27,-20.10,34.86,-1.00
15276.00,-8.38,-4.12,-2.69,-0.53,-0.95,0.96,-24.27,-20.10,34.86,-1.00
15288.00,-8.38,-4.12,-2.69,-0.53,-0.95,0.96,-24.27,-20.10,34.86,-1.00
15300.00,-8.60,-4.02,-3.33,-0.71,-0.67,1.03,-24.27,-20.10,34.86,-1.00
15314.00,-8.60,-4.02,-3.33,-0.71,-0.67,1.03,-24.27,-20.10,34.86,-1.00
15326.00,-8.42,-4.19,-4.31,-0.66,-0.63,1.07,-24.27,-20.10,34.86,-1.00
15338.00,-8.24,-4.71,-5.64,-0.43,-0.87,1.07,-24.27,-20.10,34.86,-1.00
15352.00,-8.24,-4.71,-5.64,-0.43,-0.87,1.07,-24.27,-20.10,34.86,-1.00
15364.00,-7.94,-4.10,-6.32,0.02,-1.37,1.15,-24.27,-20.10,34.86,-1.00
15376.00,-7.83,-4.07,-4.49,0.53,-1.79,1.15,-25.52,-21.00,31.07,-1.00
15388.00,-7.83,-4.07,-4.49,0.53,-1.79,1.15,-25.52,-21.00,31.07,-1.00
15403.00,-8.04,-3.43,-3.87,0.80,-1.88,1.06,-25.52,-21.00,31.07,-1.00
15414.00,-8.04,-3.43,-3.87,0.80,-1.88,1.06,-25.52,-21.00,31.07,-1.00
15426.00,-8.28,-4.02,-1.91,0.81,-1.89,0.89,-25.52,-21.00,31.07,-1.00
15438.00,-8.30,-5.01,-2.36,0.25,-1.56,0.81,-25.52,-21.00,31.07,-1.00
15452.00,-8.30,-5.01,-2.36,0.25,-1.56,0.81,-25.52,-21.00,31.07,-1.00
15464.00,-8.15,-4.76,-3.85,-0.29,-1.23,0.93,-25.52,-21.00,31.07,-1.00
15476.00,-8.29,-4.75,-2.65,-0.42,-1.14,1.03,-25.52,-21.00,31.07,-1.00
15490.00,-8.29,-4.75,-2.65,-0.42,-1.14,1.03,-25.52,-21.00,31.07,-1.00
15502.00,-8.62,-3.80,-2.99,-0.59,-0.93,1.17,-24.41,-19.20,33.75,-1.00
15514.00,-8.62,-3.80,-2.99,-0.59,-0.93,1.17,-24.41,-19.20,33.75,-1.00
15526.00,-8.94,-3.68,-3.38,-0.57,-0.86,1.19,-24.41,-19.20,33.75,-1.00
15540.00,-8.81,-3.84,-4.64,-0.44,-0.92,1.21,-24.41,-19.20,33.75,-1.00
15554.00,-8.81,-3.84,-4.64,-0.44,-0.92,1.21,-24.41,-19.20,33.75,-1.00
15566.00,-8.17,-3.28,-6.00,-0.20,-1.21,1.23,-24.41,-19.20,33.75,-1.00
15578.00,-7.74,-3.84,-4.68,0.22,-1.63,1.17,-24.41,-19.20,33.75,-1.00
15592.00,-7.74,-3.84,-4.68,0.22,-1.63,1.17,-24.41,-19.20,33.75,-1.00
15604.00,-7.73,-4.63,-4.44,0.55,-1.74,1.07,-24.41,-19.20,33.75,-1.00
15616.00,-8.06,-4.08,-4.07,0.80,-1.76,1.08,-25.25,-18.12,33.75,-1.00
15630.00,-8.06,-4.08,-4.07,0.80,-1.76,1.08,-25.25,-18.12,33.75,-1.00
15642.00,-8.87,-3.74,-2.55,0.85,-1.76,1.10,-25.25,-18.12,33.75,-1.00
15654.00,-8.87,-3.74,-2.55,0.85,-1.76,1.10,-25.25,-18.12,33.75,-1.00
15666.00,-8.95,-3.28,-2.72,0.43,-1.66,1.16,-25.25,-18.12,33.75,-1.00
15681.00,-9.28,-3.00,-2.14,-0.02,-1.67,1.13,-25.25,-18.12,33.75,-1.00
15692.00,-9.28,-3.00,-2.14,-0.02,-1.67,1.13,-25.25,-18.12,33.75,-1.00
15704.00,-8.55,-2.96,-1.25,-0.38,-1.65,1.05,-25.25,-18.12,33.75,-1.00
15719.00,-8.38,-4.28,-1.57,-0.52,-1.29,0.81,-25.25,-18.12,33.75,-1.00
15730.00,-8.38,-4.28,-1.57,-0.52,-1.29,0.81,-25.25,-18.12,33.75,-1.00
15742.00,-8.66,-3.93,-1.71,-0.48,-0.79,0.79,-25.25,-18.12,33.75,-1.00
15754.00,-8.66,-3.93,-1.71,-0.48,-0.79,0.79,-25.25,-18.12,33.75,-1.00
15768.00,-8.84,-3.36,-1.51,-0.47,-0.36,0.80,-25.25,-18.12,33.75,-1.00
15857.00,-11.75,-1.09,-3.86,0.02,-1.63,0.99,-25.25,-18.12,33.75,-1.00
15945.00,-7.63,-3.85,-2.49,-0.38,-1.75,0.77,-24.83,-18.30,33.08,-1.00
16034.00,-8.08,-6.42,-3.79,0.70,-0.26,0.78,-25.94,-20.46,33.08,-1.00
16048.00,-10.90,-4.03,-3.32,0.28,-0.33,1.19,-25.94,-20.46,33.08,-1.00
16060.00,-9.34,-3.27,-4.62,0.07,-0.21,0.99,-25.94,-20.46,33.08,-1.00
16072.00,-9.34,-3.27,-4.62,0.07,-0.21,0.99,-25.94,-20.46,33.08,-1.00
16086.00,-8.33,-2.83,-4.04,-0.10,-0.52,0.71,-25.94,-20.46,33.08,-1.00
16098.00,-7.96,-3.70,-4.93,-0.14,-0.70,0.46,-25.94,-20.46,33.08,-1.00
16110.00,-7.96,-3.70,-4.93,-0.14,-0.70,0.46,-25.94,-20.46,33.08,-1.00
16122.00,-7.72,-6.14,-5.39,-0.20,-0.91,0.37,-24.83,-22.62,29.06,-1.00
16136.00,-7.72,-6.14,-5.39,-0.20,-0.91,0.37,-24.83,-22.62,29.06,-1.00
16148.00,-7.82,-5.36,-5.17,-0.08,-1.07,0.72,-24.83,-22.62,29.06,-1.00
16160.00,-7.68,-4.10,-3.54,0.00,-1.16,0.94,-24.83,-22.62,29.06,-1.00
16172.00,-7.68,-4.10,-3.54,0.00,-1.16,0.94,-24.83,-22.62,29.06,-1.00
16186.00,-8.39,-3.98,-3.25,0.04,-1.13,1.04,-24.83,-22.62,29.06,-1.00
16198.00,-8.02,-4.23,-4.17,-0.13,-1.05,0.99,-24.83,-22.62,29.06,-1.00
16210.00,-8.02,-4.23,-4.17,-0.13,-1.05,0.99,-24.83,-22.62,29.06,-1.00
16224.00,-7.26,-5.30,-4.97,-0.16,-1.04,0.91,-24.83,-22.62,29.06,-1.00
16236.00,-7.26,-5.30,-4.97,-0.16,-1.04,0.91,-24.83,-22.62,29.06,-1.00
16248.00,-7.14,-5.92,-5.05,-0.15,-1.18,1.09,-24.83,-22.62,29.06,-1.00
16260.00,-9.64,-3.70,-4.33,-0.22,-1.41,1.51,-23.99,-24.77,30.40,-1.00
16274.00,-9.64,-3.70,-4.33,-0.22,-1.41,1.51,-23.99,-24.77,30.40,-1.00
16286.00,-9.00,-3.15,-4.14,-0.08,-1.53,1.57,-23.99,-24.77,30.40,-1.00
16298.00,-8.87,-1.99,-4.17,0.16,-1.69,1.50,-23.99,-24.77,30.40,-1.00
16312.00,-8.87,-1.99,-4.17,0.16,-1.69,1.50,-23.99,-24.77,30.40,-1.00
16324.00,-8.69,-3.05,-4.15,0.47,-1.84,1.03,-23.99,-24.77,30.40,-1.00
16336.00,-8.69,-3.05,-4.15,0.47,-1.84,1.03,-23.99,-24.77,30.40,-1.00
16348.00,-7.63,-4.05,-4.22,0.73,-1.94,0.72,-23.99,-24.77,30.40,-1.00
16362.00,-7.52,-4.98,-4.04,1.00,-2.00,0.68,-23.99,-24.77,30.40,-1.00
16374.00,-7.52,-4.98,-4.04,1.00,-2.00,0.68,-23.99,-24.77,30.40,-1.00
16386.00,-7.57,-5.35,-3.03,1.30,-2.02,0.72,-24.41,-21.00,35.98,-1.00
16398.00,-8.19,-5.24,-1.50,1.09,-1.84,0.77,-24.41,-21.00,35.98,-1.00
16412.00,-8.19,-5.24,-1.50,1.09,-1.84,0.77,-24.41,-21.00,35.98,-1.00
16424.00,-8.78,-4.69,-1.95,0.46,-1.44,0.88,-24.41,-21.00,35.98,-1.00
16436.00,-8.78,-4.69,-1.95,0.46,-1.44,0.88,-24.41,-21.00,35.98,-1.00
16452.00,-8.40,-4.38,-2.74,-0.04,-1.20,0.94,-24.41,-21.00,35.98,-1.00
16463.00,-8.21,-4.54,-2.26,-0.27,-1.10,0.93,-24.41,-21.00,35.98,-1.00
16475.00,-8.21,-4.54,-2.26,-0.27,-1.10,0.93,-24.41,-21.00,35.98,-1.00
16487.00,-8.46,-4.31,-2.12,-0.43,-0.88,0.98,-24.41,-21.00,35.98,-1.00
16501.00,-8.40,-4.65,-1.64,-0.82,-0.59,1.00,-24.97,-22.44,35.98,-1.00
16513.00,-8.40,-4.65,-1.64,-0.82,-0.59,1.00,-24.97,-22.44,35.98,-1.00
16525.00,-8.37,-4.79,-3.08,-1.27,-0.16,1.06,-24.97,-22.44,35.98,-1.00
16537.00,-8.33,-4.24,-4.87,-1.39,-0.02,1.19,-24.97,-22.44,35.98,-1.00
16551.00,-8.33,-4.24,-4.87,-1.39,-0.02,1.19,-24.97,-22.44,35.98,-1.00
16563.00,-8.33,-2.61,-6.64,-1.12,-0.40,1.21,-24.97,-22.44,35.98,-1.00
16575.00,-8.33,-2.61,-6.64,-1.12,-0.40,1.21,-24.97,-22.44,35.98,-1.00
16589.00,-8.44,-4.26,-5.60,-0.35,-1.16,1.15,-24.97,-22.44,35.98,-1.00
16601.00,-7.97,-4.05,-5.60,0.11,-1.55,1.33,-24.97,-22.44,35.98,-1.00
16613.00,-7.97,-4.05,-5.60,0.11,-1.55,1.33,-24.97,-22.44,35.98,-1.00
16625.00,-7.92,-3.26,-4.54,0.46,-1.80,1.36,-25.25,-21.00,28.39,-1.00
16639.00,-7.89,-3.86,-3.83,0.64,-1.96,1.14,-25.25,-21.00,28.39,-1.00
16651.00,-7.89,-3.86,-3.83,0.64,-1.96,1.14,-25.25,-21.00,28.39,-1.00
16663.00,-8.02,-3.82,-2.46,0.69,-1.93,0.96,-25.25,-21.00,28.39,-1.00
16677.00,-8.39,-4.02,-2.04,0.42,-1.61,0.83,-25.25,-21.00,28.39,-1.00
16689.00,-8.39,-4.02,-2.04,0.42,-1.61,0.83,-25.25,-21.00,28.39,-1.00
16701.00,-8.06,-4.64,-2.86,-0.05,-1.18,0.74,-25.25,-21.00,28.39,-1.00
16713.00,-8.06,-4.64,-2.86,-0.05,-1.18,0.74,-25.25,-21.00,28.39,-1.00
16728.00,-8.45,-4.77,-3.34,-0.47,-0.96,0.78,-25.25,-21.00,28.39,-1.00
16739.00,-8.71,-4.12,-4.01,-0.80,-0.83,0.95,-25.25,-21.00,28.39,-1.00
16751.00,-8.71,-4.12,-4.01,-0.80,-0.83,0.95,-25.25,-21.00,28.39,-1.00
16763.00,-8.84,-3.96,-3.79,-0.81,-0.92,1.13,-25.80,-19.20,32.41,-1.00
16777.00,-8.96,-3.17,-4.55,-0.56,-1.04,1.26,-25.80,-19.20,32.41,-1.00
16789.00,-8.96,-3.17,-4.55,-0.56,-1.04,1.26,-25.80,-19.20,32.41,-1.00
16801.00,-8.47,-3.68,-4.33,-0.09,-1.32,1.25,-25.80,-19.20,32.41,-1.00
16815.00,-8.47,-3.68,-4.33,-0.09,-1.32,1.25,-25.80,-19.20,32.41,-1.00
16827.00,-8.15,-3.37,-5.02,0.43,-1.52,1.22,-25.80,-19.20,32.41,-1.00
16839.00,-7.74,-4.45,-3.65,0.82,-1.73,1.04,-25.80,-19.20,32.41,-1.00
16851.00,-7.74,-4.45,-3.65,0.82,-1.73,1.04,-25.80,-19.20,32.41,-1.00
16865.00,-8.23,-3.61,-3.18,0.90,-1.64,0.97,-25.80,-19.20,32.41,-1.00
16878.00,-8.64,-3.82,-2.59,0.71,-1.49,0.87,-25.80,-18.48,32.41,-1.00
16890.00,-8.64,-3.82,-2.59,0.71,-1.49,0.87,-25.80,-18.48,32.41,-1.00
16902.00,-8.49,-4.21,-3.58,0.27,-1.26,0.84,-25.80,-18.48,32.41,-1.00
16916.00,-8.49,-4.21,-3.58,0.27,-1.26,0.84,-25.80,-18.48,32.41,-1.00
16928.00,-8.28,-4.58,-3.79,-0.06,-1.21,0.83,-25.80,-18.48,32.41,-1.00
16940.00,-8.64,-4.47,-2.90,-0.13,-1.26,0.97,-25.80,-18.48,32.41,-1.00
16954.00,-8.64,-4.47,-2.90,-0.13,-1.26,0.97,-25.80,-18.48,32.41,-1.00
16966.00,-8.47,-4.48,-2.74,-0.23,-1.13,1.14,-25.80,-18.48,32.41,-1.00
16978.00,-8.68,-4.29,-3.78,-0.36,-0.97,1.28,-25.80,-18.48,32.41,-1.00
16990.00,-8.68,-4.29,-3.78,-0.36,-0.97,1.28,-25.80,-18.48,32.41,-1.00
17005.00,-8.60,-4.44,-3.99,-0.35,-0.99,1.44,-27.48,-19.20,32.86,-1.00
17016.00,-8.60,-4.44,-3.99,-0.35,-0.99,1.44,-27.48,-19.20,32.86,-1.00
17028.00,-8.30,-2.61,-3.38,-0.34,-1.10,1.55,-27.48,-19.20,32.86,-1.00
17043.00,-8.50,-3.01,-2.99,-0.19,-1.12,1.22,-27.48,-19.20,32.86,-1.00
17054.00,-8.50,-3.01,-2.99,-0.19,-1.12,1.22,-27.48,-19.20,32.86,-1.00
17066.00,-8.55,-2.75,-3.27,-0.16,-1.03,0.94,-27.48,-19.20,32.86,-1.00
17078.00,-8.33,-2.80,-3.06,-0.00,-0.91,0.69,-27.48,-19.20,32.86,-1.00
17092.00,-8.33,-2.80,-3.06,-0.00,-0.91,0.69,-27.48,-19.20,32.86,-1.00
17104.00,-8.94,-2.85,-3.92,0.19,-0.74,0.53,-27.48,-19.20,32.86,-1.00
17116.00,-8.94,-2.85,-3.92,0.19,-0.74,0.53,-27.48,-19.20,32.86,-1.00
17128.00,-9.77,-3.23,-4.63,0.33,-0.70,0.50,-25.94,-19.38,30.40,-1.00
17142.00,-10.39,-3.50,-5.62,0.46,-0.77,0.31,-25.94,-19.38,30.40,-1.00
17154.00,-10.39,-3.50,-5.62,0.46,-0.77,0.31,-25.94,-19.38,30.40,-1.00
17166.00,-7.49,-5.27,-5.10,0.56,-0.92,-0.01,-25.94,-19.38,30.40,-1.00
17180.00,-7.55,-5.25,-3.61,0.22,-1.22,0.21,-25.94,-19.38,30.40,-1.00
17192.00,-7.55,-5.25,-3.61,0.22,-1.22,0.21,-25.94,-19.38,30.40,-1.00
17204.00,-7.63,-5.94,-5.12,-0.19,-1.32,0.65,-25.94,-19.38,30.40,-1.00
17216.00,-7.63,-5.94,-5.12,-0.19,-1.32,0.65,-25.94,-19.38,30.40,-1.00
17230.00,-9.32,-4.56,-4.09,-0.22,-1.54,1.31,-25.94,-19.38,30.40,-1.00
17242.00,-8.64,-1.51,-2.82,-0.30,-1.80,1.77,-25.94,-19.38,30.40,-1.00
17254.00,-8.64,-1.51,-2.82,-0.30,-1.80,1.77,-25.94,-19.38,30.40,-1.00
17268.00,-7.72,-2.08,-1.82,-0.04,-1.75,1.38,-25.66,-20.10,31.74,-1.00
17280.00,-6.79,-2.95,-2.15,0.02,-1.51,1.02,-25.66,-20.10,31.74,-1.00
17292.00,-6.79,-2.95,-2.15,0.02,-1.51,1.02,-25.66,-20.10,31.74,-1.00
17304.00,-6.94,-3.74,-2.74,0.08,-1.23,0.79,-25.66,-20.10,31.74,-1.00
17319.00,-7.34,-4.22,-3.71,0.13,-1.00,0.65,-25.66,-20.10,31.74,-1.00
17330.00,-7.34,-4.22,-3.71,0.13,-1.00,0.65,-25.66,-20.10,31.74,-1.00
17342.00,-7.46,-4.95,-4.40,0.16,-0.95,0.55,-25.66,-20.10,31.74,-1.00
17354.00,-7.46,-4.95,-4.40,0.16,-0.95,0.55,-25.66,-20.10,31.74,-1.00
17368.00,-8.93,-5.49,-4.25,0.16,-1.06,0.58,-25.66,-20.10,31.74,-1.00
17456.00,-8.58,-4.90,-3.14,-0.04,-1.06,0.68,-25.66,-21.18,31.74,-1.00
17545.00,-7.51,-5.16,-4.13,-0.00,-1.26,0.93,-23.99,-24.05,29.95,-1.00
17559.00,-7.54,-5.06,-3.97,0.08,-1.26,1.02,-23.99,-24.05,29.95,-1.00
17571.00,-7.54,-5.06,-3.97,0.08,-1.26,1.02,-23.99,-24.05,29.95,-1.00
17583.00,-7.89,-4.93,-4.45,0.06,-1.31,1.18,-23.99,-24.05,29.95,-1.00
17595.00,-7.89,-4.93,-4.45,0.06,-1.31,1.18,-23.99,-24.05,29.95,-1.00
17609.00,-8.02,-4.40,-4.48,0.05,-1.47,1.29,-23.99,-24.05,29.95,-1.00
17621.00,-8.16,-4.14,-4.04,0.09,-1.56,1.24,-24.97,-20.64,29.73,-1.00
17633.00,-8.16,-4.14,-4.04,0.09,-1.56,1.24,-24.97,-20.64,29.73,-1.00
17645.00,-8.47,-3.71,-3.08,0.13,-1.54,1.13,-24.97,-20.64,29.73,-1.00
17660.00,-8.33,-3.82,-3.37,0.14,-1.38,0.97,-24.97,-20.64,29.73,-1.00
17671.00,-8.33,-3.82,-3.37,0.14,-1.38,0.97,-24.97,-20.64,29.73,-1.00
17683.00,-7.97,-4.20,-3.29,0.11,-1.27,0.83,-24.97,-20.64,29.73,-1.00
17697.00,-7.97,-4.20,-3.29,0.11,-1.27,0.83,-24.97,-20.64,29.73,-1.00
17709.00,-8.09,-4.68,-3.53,0.02,-1.15,0.74,-24.97,-20.64,29.73,-1.00
17721.00,-7.91,-4.57,-3.27,-0.12,-1.07,0.76,-24.97,-20.64,29.73,-1.00
17733.00,-7.91,-4.57,-3.27,-0.12,-1.07,0.76,-24.97,-20.64,29.73,-1.00
17747.00,-8.34,-4.93,-2.90,-0.26,-0.95,0.79,-24.97,-20.64,29.73,-1.00
17759.00,-8.22,-4.38,-3.30,-0.57,-0.77,0.91,-24.13,-23.52,30.18,-1.00
17771.00,-8.22,-4.38,-3.30,-0.57,-0.77,0.91,-24.13,-23.52,30.18,-1.00
17783.00,-8.26,-4.03,-4.04,-0.86,-0.70,0.96,-24.13,-23.52,30.18,-1.00
17797.00,-8.26,-4.03,-4.04,-0.86,-0.70,0.96,-24.13,-23.52,30.18,-1.00
17809.00,-8.44,-4.02,-4.72,-0.82,-0.71,1.05,-24.13,-23.52,30.18,-1.00
17821.00,-8.37,-3.90,-5.10,-0.63,-0.91,1.18,-24.13,-23.52,30.18,-1.00
17835.00,-8.37,-3.90,-5.10,-0.63,-0.91,1.18,-24.13,-23.52,30.18,-1.00
17847.00,-8.37,-3.78,-5.29,-0.31,-1.14,1.24,-24.13,-23.52,30.18,-1.00
17859.00,-8.59,-3.68,-5.18,0.03,-1.44,1.24,-24.13,-23.52,30.18,-1.00
17871.00,-8.59,-3.68,-5.18,0.03,-1.44,1.24,-24.13,-23.52,30.18,-1.00
17885.00,-8.39,-3.57,-4.19,0.29,-1.68,1.24,-24.69,-21.36,28.39,-1.00
17897.00,-8.39,-3.57,-4.19,0.29,-1.68,1.24,-24.69,-21.36,28.39,-1.00
17909.00,-8.24,-3.67,-3.21,0.27,-1.74,1.08,-24.69,-21.36,28.39,-1.00
17923.00,-7.05,-5.42,-4.53,0.20,-1.53,0.82,-24.69,-21.36,28.39,-1.00
17935.00,-7.05,-5.42,-4.53,0.20,-1.53,0.82,-24.69,-21.36,28.39,-1.00
17947.00,-7.26,-4.73,-4.00,0.24,-1.57,1.00,-24.69,-21.36,28.39,-1.00
17959.00,-7.93,-4.27,-3.41,0.30,-1.54,1.17,-24.69,-21.36,28.39,-1.00
17973.00,-7.93,-4.27,-3.41,0.30,-1.54,1.17,-24.69,-21.36,28.39,-1.00
17985.00,-8.35,-4.00,-3.65,0.24,-1.41,1.19,-24.69,-21.36,28.39,-1.00
17997.00,-8.35,-4.00,-3.65,0.24,-1.41,1.19,-24.69,-21.36,28.39,-1.00
18009.00,-8.45,-3.68,-3.71,0.12,-1.32,1.10,-24.97,-21.72,31.07,-1.00
18023.00,-8.46,-3.36,-3.60,0.04,-1.28,0.97,-24.97,-21.72,31.07,-1.00
18035.00,-8.46,-3.36,-3.60,0.04,-1.28,0.97,-24.97,-21.72,31.07,-1.00
18047.00,-8.38,-3.81,-3.25,-0.04,-1.20,0.76,-24.97,-21.72,31.07,-1.00
18061.00,-8.35,-4.13,-3.29,-0.22,-1.09,0.74,-24.97,-21.72,31.07,-1.00
18073.00,-8.35,-4.13,-3.29,-0.22,-1.09,0.74,-24.97,-21.72,31.07,-1.00
18085.00,-8.17,-4.51,-3.67,-0.41,-0.93,0.79,-24.97,-21.72,31.07,-1.00
18097.00,-8.17,-4.51,-3.67,-0.41,-0.93,0.79,-24.97,-21.72,31.07,-1.00
18112.00,-8.67,-4.19,-3.91,-0.54,-0.84,0.93,-24.97,-21.72,31.07,-1.00
18123.00,-8.50,-3.33,-5.07,-0.62,-0.75,1.05,-24.97,-21.72,31.07,-1.00
18135.00,-8.50,-3.33,-5.07,-0.62,-0.75,1.05,-24.97,-21.72,31.07,-1.00
18147.00,-8.37,-4.06,-4.98,-0.42,-0.92,1.13,-26.08,-21.72,28.39,-1.00
18161.00,-8.47,-3.97,-4.93,-0.13,-1.18,1.23,-26.08,-21.72,28.39,-1.00
18173.00,-8.47,-3.97,-4.93,-0.13,-1.18,1.23,-26.08,-21.72,28.39,-1.00
18185.00,-8.40,-3.19,-4.72,0.12,-1.39,1.30,-26.08,-21.72,28.39,-1.00
18199.00,-8.21,-2.86,-4.49,0.33,-1.62,1.21,-26.08,-21.72,28.39,-1.00
18211.00,-8.21,-2.86,-4.49,0.33,-1.62,1.21,-26.08,-21.72,28.39,-1.00
18223.00,-7.76,-3.52,-4.91,0.58,-1.79,0.99,-26.08,-21.72,28.39,-1.00
18235.00,-7.76,-3.52,-4.91,0.58,-1.79,0.99,-26.08,-21.72,28.39,-1.00
18249.00,-7.91,-4.37,-3.29,0.74,-1.86,0.86,-26.08,-21.72,28.39,-1.00
18262.00,-8.25,-3.92,-2.97,0.62,-1.64,0.85,-26.64,-19.56,31.07,-1.00
18274.00,-8.25,-3.92,-2.97,0.62,-1.64,0.85,-26.64,-19.56,31.07,-1.00
18286.00,-8.32,-3.54,-2.18,0.33,-1.40,0.80,-26.64,-19.56,31.07,-1.00
18300.00,-8.58,-4.20,-3.26,-0.07,-1.13,0.70,-26.64,-19.56,31.07,-1.00
18312.00,-8.58,-4.20,-3.26,-0.07,-1.13,0.70,-26.64,-19.56,31.07,-1.00
18324.00,-8.45,-4.26,-3.82,-0.36,-1.00,0.74,-26.64,-19.56,31.07,-1.00
18338.00,-8.45,-4.26,-3.82,-0.36,-1.00,0.74,-26.64,-19.56,31.07,-1.00
18350.00,-8.27,-4.72,-3.99,-0.49,-0.99,0.85,-26.64,-19.56,31.07,-1.00
18362.00,-8.33,-3.98,-3.27,-0.55,-1.00,1.04,-26.64,-19.56,31.07,-1.00
18374.00,-8.33,-3.98,-3.27,-0.55,-1.00,1.04,-26.64,-19.56,31.07,-1.00
18389.00,-8.75,-3.48,-3.19,-0.56,-0.90,1.14,-24.83,-21.18,30.40,-1.00
18400.00,-8.62,-3.50,-4.22,-0.58,-0.82,1.13,-24.83,-21.18,30.40,-1.00
18412.00,-8.62,-3.50,-4.22,-0.58,-0.82,1.13,-24.83,-21.18,30.40,-1.00
18427.00,-8.78,-3.75,-6.14,-0.51,-1.02,1.07,-24.83,-21.18,30.40,-1.00
18438.00,-8.78,-3.75,-6.14,-0.51,-1.02,1.07,-24.83,-21.18,30.40,-1.00
18450.00,-8.14,-3.54,-5.78,-0.18,-1.56,1.05,-24.83,-21.18,30.40,-1.00
18462.00,-8.38,-3.57,-4.09,0.25,-1.90,0.97,-24.83,-21.18,30.40,-1.00
18476.00,-8.38,-3.57,-4.09,0.25,-1.90,0.97,-24.83,-21.18,30.40,-1.00
18488.00,-9.20,-2.58,-3.12,0.49,-1.90,0.88,-24.83,-21.18,30.40,-1.00
18500.00,-7.57,-4.00,-3.85,0.68,-1.85,0.59,-26.08,-19.20,31.96,-1.00
18512.00,-7.57,-4.00,-3.85,0.68,-1.85,0.59,-26.08,-19.20,31.96,-1.00
18526.00,-7.13,-5.23,-3.68,0.80,-1.97,0.62,-26.08,-19.20,31.96,-1.00
18538.00,-7.13,-5.23,-3.68,0.80,-1.97,0.62,-26.08,-19.20,31.96,-1.00
18550.00,-7.16,-5.35,-3.08,0.77,-1.93,0.84,-26.08,-19.20,31.96,-1.00
18564.00,-9.39,-4.19,-1.94,0.58,-1.68,1.04,-26.08,-19.20,31.96,-1.00
18576.00,-9.39,-4.19,-1.94,0.58,-1.68,1.04,-26.08,-19.20,31.96,-1.00
18588.00,-8.99,-3.34,-2.26,0.10,-1.33,1.00,-26.08,-19.20,31.96,-1.00
18600.00,-8.64,-3.80,-2.63,-0.25,-1.15,0.86,-26.08,-19.20,31.96,-1.00
18614.00,-8.64,-3.80,-2.63,-0.25,-1.15,0.86,-26.08,-19.20,31.96,-1.00
18626.00,-8.25,-4.71,-2.18,-0.44,-0.95,0.80,-26.08,-19.20,31.96,-1.00
18638.00,-8.25,-4.71,-2.18,-0.44,-0.95,0.80,-26.08,-19.20,31.96,-1.00
18650.00,-8.27,-4.36,-2.94,-0.75,-0.64,0.91,-24.69,-21.00,34.64,-1.00
18664.00,-8.02,-4.07,-2.67,-0.89,-0.38,1.03,-24.69,-21.00,34.64,-1.00
18676.00,-8.02,-4.07,-2.67,-0.89,-0.38,1.03,-24.69,-21.00,34.64,-1.00
18688.00,-8.16,-4.02,-2.91,-0.94,-0.09,1.11,-24.69,-21.00,34.64,-1.00
18703.00,-8.02,-3.34,-4.70,-0.94,0.09,1.15,-24.69,-21.00,34.64,-1.00
18714.00,-8.02,-3.34,-4.70,-0.94,0.09,1.15,-24.69,-21.00,34.64,-1.00
18726.00,-8.23,-4.38,-5.68,-0.69,-0.18,1.03,-24.69,-21.00,34.64,-1.00
18738.00,-8.23,-4.38,-5.68,-0.69,-0.18,1.03,-24.69,-21.00,34.64,-1.00
18752.00,-8.12,-3.70,-6.78,-0.37,-0.72,1.12,-24.69,-21.00,34.64,-1.00
18764.00,-8.28,-4.21,-5.95,-0.10,-1.18,1.16,-25.80,-22.08,24.82,-1.00
18776.00,-8.28,-4.21,-5.95,-0.10,-1.18,1.16,-25.80,-22.08,24.82,-1.00
18790.00,-8.55,-3.28,-5.44,0.01,-1.48,1.31,-25.80,-22.08,24.82,-1.00
18802.00,-8.31,-2.46,-4.58,0.11,-1.71,1.33,-25.80,-22.08,24.82,-1.00
18814.00,-8.31,-2.46,-4.58,0.11,-1.71,1.33,-25.80,-22.08,24.82,-1.00
18827.00,-8.19,-3.12,-3.66,0.22,-1.77,1.11,-25.80,-22.08,24.82,-1.00
18840.00,-8.50,-3.40,-3.96,0.29,-1.60,0.96,-25.80,-22.08,24.82,-1.00
18852.00,-8.50,-3.40,-3.96,0.29,-1.60,0.96,-25.80,-22.08,24.82,-1.00
18864.00,-9.04,-3.00,-3.71,0.37,-1.46,0.81,-25.80,-22.08,24.82,-1.00
18876.00,-9.04,-3.00,-3.71,0.37,-1.46,0.81,-25.80,-22.08,24.82,-1.00
18890.00,-8.34,-3.54,-4.10,0.38,-1.36,0.56,-25.80,-21.00,28.39,-1.00
18902.00,-7.53,-4.36,-4.69,0.33,-1.38,0.42,-25.80,-21.00,28.39,-1.00
18914.00,-7.53,-4.36,-4.69,0.33,-1.38,0.42,-25.80,-21.00,28.39,-1.00
18928.00,-6.04,-5.87,-3.54,0.32,-1.47,0.51,-25.80,-21.00,28.39,-1.00
18940.00,-6.73,-5.43,-2.67,0.08,-1.36,0.97,-25.80,-21.00,28.39,-1.00
18952.00,-6.73,-5.43,-2.67,0.08,-1.36,0.97,-25.80,-21.00,28.39,-1.00
18964.00,-12.29,-2.80,-3.09,-0.19,-1.20,1.47,-25.80,-21.00,28.39,-1.00
18979.00,-12.29,-2.80,-3.09,-0.19,-1.20,1.47,-25.80,-21.00,28.39,-1.00
18990.00,-9.20,-2.09,-4.38,-0.33,-1.10,1.37,-25.80,-21.00,28.39,-1.00
19002.00,-9.16,-3.14,-5.20,-0.28,-1.25,1.08,-25.25,-21.00,28.39,-1.00
19014.00,-9.16,-3.14,-5.20,-0.28,-1.25,1.08,-25.25,-21.00,28.39,-1.00
19028.00,-8.23,-3.65,-5.42,-0.16,-1.51,1.07,-25.25,-21.00,28.39,-1.00
19040.00,-8.60,-2.97,-4.71,0.12,-1.76,1.13,-25.25,-21.00,28.39,-1.00
19052.00,-8.60,-2.97,-4.71,0.12,-1.76,1.13,-25.25,-21.00,28.39,-1.00
19066.00,-10.51,-2.64,-3.23,0.31,-1.90,1.02,-25.25,-21.00,28.39,-1.00
19078.00,-10.51,-2.64,-3.23,0.31,-1.90,1.02,-25.25,-21.00,28.39,-1.00
19090.00,-11.28,-2.06,-3.32,0.27,-1.65,0.57,-25.25,-21.00,28.39,-1.00
19102.00,-9.90,-2.65,-3.54,0.01,-1.53,0.16,-25.25,-21.00,28.39,-1.00
19116.00,-9.90,-2.65,-3.54,0.01,-1.53,0.16,-25.25,-21.00,28.39,-1.00
19128.00,-6.56,-5.21,-3.10,-0.25,-1.64,0.09,-25.25,-21.00,28.39,-1.00
19140.00,-5.01,-6.55,-3.22,-0.24,-1.50,0.36,-24.69,-23.16,31.52,-1.00
19154.00,-5.01,-6.55,-3.22,-0.24,-1.50,0.36,-24.69,-23.16,31.52,-1.00
19166.00,-5.51,-4.69,-0.79,-0.04,-1.43,1.01,-24.69,-23.16,31.52,-1.00
19178.00,-5.51,-4.69,-0.79,-0.04,-1.43,1.01,-24.69,-23.16,31.52,-1.00
19190.00,-5.67,-4.88,-1.34,0.31,-0.85,1.21,-24.69,-23.16,31.52,-1.00
19204.00,-7.90,-5.06,-3.57,0.36,-0.32,1.28,-24.69,-23.16,31.52,-1.00
19216.00,-7.90,-5.06,-3.57,0.36,-0.32,1.28,-24.69,-23.16,31.52,-1.00
19228.00,-10.17,-3.85,-4.54,0.12,-0.25,1.42,-24.69,-23.16,31.52,-1.00
19240.00,-9.85,-3.10,-4.75,-0.09,-0.39,1.26,-24.69,-23.16,31.52,-1.00
19255.00,-9.85,-3.10,-4.75,-0.09,-0.39,1.26,-24.69,-23.16,31.52,-1.00
19266.00,-8.37,-2.92,-3.98,-0.07,-0.56,1.00,-26.36,-20.28,28.39,-1.00
19279.00,-8.37,-2.92,-3.98,-0.07,-0.56,1.00,-26.36,-20.28,28.39,-1.00
19293.00,-8.37,-3.09,-4.08,-0.03,-0.61,0.83,-26.36,-20.28,28.39,-1.00
19305.00,-8.70,-3.48,-5.04,-0.02,-0.67,0.72,-26.36,-20.28,28.39,-1.00
19317.00,-8.70,-3.48,-5.04,-0.02,-0.67,0.72,-26.36,-20.28,28.39,-1.00
19329.00,-8.02,-4.39,-5.30,-0.00,-0.83,0.78,-26.36,-20.28,28.39,-1.00
19343.00,-7.93,-4.62,-5.09,0.04,-0.94,0.85,-26.36,-20.28,28.39,-1.00
19355.00,-7.93,-4.62,-5.09,0.04,-0.94,0.85,-26.36,-20.28,28.39,-1.00
19367.00,-7.81,-4.38,-4.46,0.03,-1.05,0.92,-26.36,-20.28,28.39,-1.00
19379.00,-7.81,-4.38,-4.46,0.03,-1.05,0.92,-26.36,-20.28,28.39,-1.00
19393.00,-8.26,-3.83,-4.25,-0.04,-1.12,1.03,-25.94,-22.26,25.94,-1.00
19405.00,-8.28,-4.14,-4.51,-0.11,-1.20,1.05,-25.94,-22.26,25.94,-1.00
19417.00,-8.28,-4.14,-4.51,-0.11,-1.20,1.05,-25.94,-22.26,25.94,-1.00
19432.00,-8.56,-4.67,-4.83,-0.18,-1.30,1.09,-25.94,-22.26,25.94,-1.00
19443.00,-8.40,-4.03,-5.31,-0.23,-1.37,1.22,-25.94,-22.26,25.94,-1.00
19455.00,-8.40,-4.03,-5.31,-0.23,-1.37,1.22,-25.94,-22.26,25.94,-1.00
19467.00,-8.65,-2.87,-4.50,-0.10,-1.54,1.32,-25.94,-22.26,25.94,-1.00
19481.00,-8.48,-2.50,-4.13,0.08,-1.59,1.25,-25.94,-22.26,25.94,-1.00
19493.00,-8.48,-2.50,-4.13,0.08,-1.59,1.25,-25.94,-22.26,25.94,-1.00
19505.00,-8.11,-3.48,-3.90,0.28,-1.57,1.03,-26.78,-20.82,25.94,-1.00
19519.00,-8.11,-3.48,-3.90,0.28,-1.57,1.03,-26.78,-20.82,25.94,-1.00
19531.00,-7.70,-4.07,-4.39,0.39,-1.46,0.86,-26.78,-20.82,25.94,-1.00
19543.00,-8.02,-4.00,-3.63,0.43,-1.44,0.80,-26.78,-20.82,25.94,-1.00
19555.00,-8.02,-4.00,-3.63,0.43,-1.44,0.80,-26.78,-20.82,25.94,-1.00
19569.00,-8.07,-4.01,-3.53,0.27,-1.28,0.78,-26.78,-20.82,25.94,-1.00
19581.00,-8.19,-3.98,-3.13,-0.02,-1.12,0.79,-26.78,-20.82,25.94,-1.00
19593.00,-8.19,-3.98,-3.13,-0.02,-1.12,0.79,-26.78,-20.82,25.94,-1.00
19605.00,-7.84,-4.70,-3.47,-0.30,-0.85,0.82,-26.78,-20.82,25.94,-1.00
19619.00,-7.84,-4.70,-3.47,-0.30,-0.85,0.82,-26.78,-20.82,25.94,-1.00
19707.00,-8.70,-3.64,-6.01,-0.24,-1.45,1.22,-25.66,-21.18,25.04,-1.00
19795.00,-8.45,-3.33,-3.34,0.31,-1.58,0.62,-25.94,-20.10,26.83,-1.00
19809.00,-7.95,-3.76,-4.07,0.30,-1.36,0.38,-25.94,-20.10,26.83,-1.00
19821.00,-7.29,-4.58,-3.96,0.38,-1.38,0.36,-25.94,-20.10,26.83,-1.00
19833.00,-7.29,-4.58,-3.96,0.38,-1.38,0.36,-25.94,-20.10,26.83,-1.00
19845.00,-6.61,-5.57,-3.27,0.39,-1.39,0.53,-25.94,-20.10,26.83,-1.00
19859.00,-6.61,-5.57,-3.27,0.39,-1.39,0.53,-25.94,-20.10,26.83,-1.00
19871.00,-7.13,-5.13,-3.46,0.27,-1.28,0.89,-25.94,-20.10,26.83,-1.00
19883.00,-7.13,-5.06,-3.86,0.13,-1.28,1.21,-25.25,-21.72,30.18,-1.00
19895.00,-7.13,-5.06,-3.86,0.13,-1.28,1.21,-25.25,-21.72,30.18,-1.00
19910.00,-12.91,-2.59,-3.54,-0.06,-1.38,1.46,-25.25,-21.72,30.18,-1.00
19921.00,-9.08,-2.35,-4.03,-0.28,-1.27,1.25,-25.25,-21.72,30.18,-1.00
19933.00,-9.08,-2.35,-4.03,-0.28,-1.27,1.25,-25.25,-21.72,30.18,-1.00
19947.00,-9.17,-2.52,-4.40,-0.22,-1.42,1.05,-25.25,-21.72,30.18,-1.00
19959.00,-9.17,-2.52,-4.40,-0.22,-1.42,1.05,-25.25,-21.72,30.18,-1.00
19971.00,-8.69,-3.65,-4.30,-0.12,-1.68,0.94,-25.25,-21.72,30.18,-1.00
19983.00,-8.28,-4.49,-4.51,0.14,-1.81,0.98,-25.25,-21.72,30.18,-1.00
19997.00,-8.28,-4.49,-4.51,0.14,-1.81,0.98,-25.25,-21.72,30.18,-1.00
20009.00,-8.66,-3.51,-2.51,0.41,-1.87,1.11,-26.08,-20.28,31.96,-1.00
20021.00,-8.97,-3.43,-2.66,0.43,-1.66,1.07,-26.08,-20.28,31.96,-1.00
20033.00,-8.97,-3.43,-2.66,0.43,-1.66,1.07,-26.08,-20.28,31.96,-1.00
20047.00,-9.29,-3.51,-2.49,0.30,-1.33,0.79,-26.08,-20.28,31.96,-1.00
20059.00,-9.29,-3.51,-2.49,0.30,-1.33,0.79,-26.08,-20.28,31.96,-1.00
20071.00,-7.64,-4.28,-2.84,0.08,-0.96,0.51,-26.08,-20.28,31.96,-1.00
20085.00,-7.72,-4.51,-2.90,-0.01,-0.83,0.60,-26.08,-20.28,31.96,-1.00
20097.00,-7.72,-4.51,-2.90,-0.01,-0.83,0.60,-26.08,-20.28,31.96,-1.00
20109.00,-7.77,-4.81,-2.77,-0.07,-0.72,0.78,-26.08,-20.28,31.96,-1.00
20121.00,-8.43,-4.25,-3.47,-0.19,-0.55,0.98,-26.08,-20.28,31.96,-1.00
20135.00,-8.43,-4.25,-3.47,-0.19,-0.55,0.98,-26.08,-20.28,31.96,-1.00
20147.00,-8.65,-3.88,-4.09,-0.31,-0.50,1.07,-26.22,-21.54,30.85,-1.00
20159.00,-8.65,-3.88,-4.09,-0.31,-0.50,1.07,-26.22,-21.54,30.85,-1.00
20173.00,-7.80,-4.29,-4.02,-0.39,-0.58,1.03,-26.22,-21.54,30.85,-1.00
20185.00,-7.38,-4.77,-4.49,-0.44,-0.70,1.09,-26.22,-21.54,30.85,-1.00
20197.00,-7.38,-4.77,-4.49,-0.44,-0.70,1.09,-26.22,-21.54,30.85,-1.00
20209.00,-7.53,-3.91,-4.58,-0.36,-0.86,1.24,-26.22,-21.54,30.85,-1.00
20223.00,-8.21,-4.57,-4.69,-0.19,-1.04,1.40,-26.22,-21.54,30.85,-1.00
20235.00,-8.21,-4.57,-4.69,-0.19,-1.04,1.40,-26.22,-21.54,30.85,-1.00
20247.00,-10.54,-2.38,-4.45,-0.14,-1.24,1.50,-26.22,-21.54,30.85,-1.00
20259.00,-10.54,-2.38,-4.45,-0.14,-1.24,1.50,-26.22,-21.54,30.85,-1.00
20273.00,-8.95,-2.27,-4.25,-0.12,-1.41,1.20,-26.36,-18.84,28.84,-1.00
20285.00,-8.58,-3.37,-5.22,0.06,-1.53,1.00,-26.36,-18.84,28.84,-1.00
20297.00,-8.58,-3.37,-5.22,0.06,-1.53,1.00,-26.36,-18.84,28.84,-1.00
20311.00,-8.23,-3.51,-4.11,0.39,-1.67,1.00,-26.36,-18.84,28.84,-1.00
20323.00,-8.28,-3.44,-4.42,0.61,-1.64,0.98,-26.36,-18.84,28.84,-1.00
20335.00,-8.28,-3.44,-4.42,0.61,-1.64,0.98,-26.36,-18.84,28.84,-1.00
20347.00,-8.40,-3.50,-3.16,0.69,-1.68,0.96,-26.36,-18.84,28.84,-1.00
20362.00,-8.53,-3.79,-3.08,0.51,-1.52,0.90,-26.36,-18.84,28.84,-1.00
20373.00,-8.53,-3.79,-3.08,0.51,-1.52,0.90,-26.36,-18.84,28.84,-1.00
20385.00,-8.40,-4.08,-3.52,0.29,-1.32,0.85,-26.22,-19.38,33.08,-1.00
20397.00,-8.40,-4.08,-3.52,0.29,-1.32,0.85,-26.22,-19.38,33.08,-1.00
20411.00,-8.50,-3.95,-3.24,0.11,-1.27,0.89,-26.22,-19.38,33.08,-1.00
20423.00,-8.58,-3.98,-2.93,-0.04,-1.19,0.96,-26.22,-19.38,33.08,-1.00
20435.00,-8.58,-3.98,-2.93,-0.04,-1.19,0.96,-26.22,-19.38,33.08,-1.00
20449.00,-8.60,-3.94,-2.57,-0.10,-1.03,1.02,-26.22,-19.38,33.08,-1.00
20461.00,-8.44,-4.23,-3.65,-0.23,-0.78,1.10,-26.22,-19.38,33.08,-1.00
20473.00,-8.44,-4.23,-3.65,-0.23,-0.78,1.10,-26.22,-19.38,33.08,-1.00
20485.00,-8.55,-4.19,-4.50,-0.33,-0.77,1.19,-26.22,-19.38,33.08,-1.00
20499.00,-8.55,-4.19,-4.50,-0.33,-0.77,1.19,-26.22,-19.38,33.08,-1.00
20512.00,-8.33,-4.87,-5.12,-0.34,-0.92,1.33,-26.22,-19.38,33.08,-1.00
20524.00,-8.22,-1.96,-4.79,-0.32,-1.14,1.53,-26.92,-18.48,29.28,-1.00
20538.00,-8.22,-1.96,-4.79,-0.32,-1.14,1.53,-26.92,-18.48,29.28,-1.00
20550.00,-8.55,-2.48,-3.25,-0.14,-1.23,1.31,-26.92,-18.48,29.28,-1.00
20562.00,-8.59,-2.32,-3.23,-0.07,-1.11,1.10,-26.92,-18.48,29.28,-1.00
20574.00,-8.59,-2.32,-3.23,-0.07,-1.11,1.10,-26.92,-18.48,29.28,-1.00
20588.00,-8.89,-2.39,-2.81,-0.02,-0.98,0.88,-26.92,-18.48,29.28,-1.00
20600.00,-8.89,-2.39,-2.81,-0.02,-0.98,0.88,-26.92,-18.48,29.28,-1.00
20612.00,-8.95,-2.56,-3.79,-0.02,-0.80,0.73,-26.92,-18.48,29.28,-1.00
20624.00,-8.80,-2.73,-5.24,-0.02,-0.83,0.65,-26.92,-18.48,29.28,-1.00
20639.00,-8.80,-2.73,-5.24,-0.02,-0.83,0.65,-26.92,-18.48,29.28,-1.00
20650.00,-11.05,-2.34,-4.84,0.13,-1.06,0.55,-26.78,-19.02,27.28,-1.00
20662.00,-8.32,-2.76,-4.79,0.27,-0.99,0.08,-26.78,-19.02,27.28,-1.00
20677.00,-8.32,-2.76,-4.79,0.27,-0.99,0.08,-26.78,-19.02,27.28,-1.00
20688.00,-8.31,-4.12,-5.49,0.75,-1.01,-0.25,-26.78,-19.02,27.28,-1.00
20700.00,-8.31,-4.12,-5.49,0.75,-1.01,-0.25,-26.78,-19.02,27.28,-1.00
20712.00,-7.36,-4.44,-4.41,1.07,-1.28,-0.24,-26.78,-19.02,27.28,-1.00
20726.00,-7.10,-5.74,-4.02,1.17,-1.51,-0.11,-26.78,-19.02,27.28,-1.00
20738.00,-7.10,-5.74,-4.02,1.17,-1.51,-0.11,-26.78,-19.02,27.28,-1.00
20750.00,-6.31,-6.11,-3.76,1.15,-1.53,0.13,-26.78,-19.02,27.28,-1.00
20764.00,-6.02,-5.93,-3.94,1.21,-1.59,0.39,-24.55,-23.70,33.08,-1.00
20776.00,-6.02,-5.93,-3.94,1.21,-1.59,0.39,-24.55,-23.70,33.08,-1.00
20788.00,-5.20,-7.37,-3.05,1.36,-1.58,0.58,-24.55,-23.70,33.08,-1.00
20800.00,-5.20,-7.37,-3.05,1.36,-1.58,0.58,-24.55,-23.70,33.08,-1.00
20814.00,-7.44,-4.77,-1.01,0.99,-1.59,1.25,-24.55,-23.70,33.08,-1.00
20826.00,-8.77,-3.52,-1.26,0.54,-1.41,1.58,-24.55,-23.70,33.08,-1.00
20838.00,-8.77,-3.52,-1.26,0.54,-1.41,1.58,-24.55,-23.70,33.08,-1.00
20850.00,-9.24,-3.90,-2.24,0.26,-1.17,1.40,-24.55,-23.70,33.08,-1.00
20864.00,-8.89,-4.98,-3.53,0.03,-1.01,1.16,-24.55,-23.70,33.08,-1.00
20876.00,-8.89,-4.98,-3.53,0.03,-1.01,1.16,-24.55,-23.70,33.08,-1.00
20888.00,-7.81,-4.93,-3.31,-0.22,-1.07,1.17,-24.55,-23.34,35.31,-1.00
20902.00,-9.08,-4.53,-3.52,-0.30,-1.14,1.27,-24.55,-23.34,35.31,-1.00
20914.00,-9.08,-4.53,-3.52,-0.30,-1.14,1.27,-24.55,-23.34,35.31,-1.00
20926.00,-9.10,-4.05,-3.54,-0.26,-1.18,1.23,-24.55,-23.34,35.31,-1.00
20938.00,-9.10,-4.05,-3.54,-0.26,-1.18,1.23,-24.55,-23.34,35.31,-1.00
20953.00,-8.53,-4.31,-3.40,-0.18,-1.21,1.07,-24.55,-23.34,35.31,-1.00
20964.00,-7.96,-4.83,-3.59,-0.15,-1.20,0.97,-24.55,-23.34,35.31,-1.00
20976.00,-7.96,-4.83,-3.59,-0.15,-1.20,0.97,-24.55,-23.34,35.31,-1.00
20988.00,-7.56,-5.42,-3.57,-0.18,-1.23,1.01,-24.55,-23.34,35.31,-1.00
21002.00,-6.85,-5.69,-3.79,-0.20,-1.29,1.16,-24.55,-23.34,35.31,-1.00
21014.00,-6.85,-5.69,-3.79,-0.20,-1.29,1.16,-24.55,-23.34,35.31,-1.00
21026.00,-9.18,-4.53,-2.80,-0.29,-1.31,1.31,-24.69,-21.72,33.75,-1.00
21040.00,-9.18,-4.53,-2.80,-0.29,-1.31,1.31,-24.69,-21.72,33.75,-1.00
21052.00,-9.11,-3.43,-3.20,-0.35,-1.20,1.25,-24.69,-21.72,33.75,-1.00
21064.00,-9.00,-3.30,-4.13,-0.19,-1.26,1.13,-24.69,-21.72,33.75,-1.00
21076.00,-9.00,-3.30,-4.13,-0.19,-1.26,1.13,-24.69,-21.72,33.75,-1.00
21090.00,-8.57,-3.76,-4.26,0.05,-1.52,1.05,-24.69,-21.72,33.75,-1.00
21102.00,-8.03,-4.55,-3.10,0.28,-1.73,1.00,-24.69,-21.72,33.75,-1.00
21114.00,-8.03,-4.55,-3.10,0.28,-1.73,1.00,-24.69,-21.72,33.75,-1.00
21128.00,-8.10,-4.80,-2.35,0.25,-1.59,0.98,-24.69,-21.72,33.75,-1.00
21140.00,-8.10,-4.80,-2.35,0.25,-1.59,0.98,-24.69,-21.72,33.75,-1.00
21152.00,-8.54,-4.65,-1.39,0.02,-1.28,1.02,-24.83,-20.82,36.65,-1.00
21164.00,-8.61,-3.92,-1.51,-0.35,-0.82,1.03,-24.83,-20.82,36.65,-1.00
21178.00,-8.61,-3.92,-1.51,-0.35,-0.82,1.03,-24.83,-20.82,36.65,-1.00
21190.00,-8.57,-3.52,-3.85,-0.43,-0.54,0.98,-24.83,-20.82,36.65,-1.00
21202.00,-9.12,-3.57,-4.92,-0.16,-0.73,0.83,-24.83,-20.82,36.65,-1.00
21214.00,-9.12,-3.57,-4.92,-0.16,-0.73,0.83,-24.83,-20.82,36.65,-1.00
21229.00,-10.75,-2.90,-4.36,0.07,-1.03,0.53,-24.83,-20.82,36.65,-1.00
21240.00,-10.75,-2.90,-4.36,0.07,-1.03,0.53,-24.83,-20.82,36.65,-1.00
21252.00,-8.63,-3.81,-3.79,0.16,-1.14,0.04,-24.83,-20.82,36.65,-1.00
21266.00,-7.62,-5.00,-3.23,0.16,-1.23,-0.11,-23.85,-21.72,34.19,-1.00
21278.00,-7.62,-5.00,-3.23,0.16,-1.23,-0.11,-23.85,-21.72,34.19,-1.00
21290.00,-7.41,-6.18,-3.49,-0.02,-1.23,0.07,-23.85,-21.72,34.19,-1.00
21302.00,-7.14,-6.64,-3.91,-0.21,-1.19,0.41,-23.85,-21.72,34.19,-1.00
21316.00,-7.14,-6.64,-3.91,-0.21,-1.19,0.41,-23.85,-21.72,34.19,-1.00
21328.00,-7.75,-5.45,-3.80,-0.44,-1.31,0.92,-23.85,-21.72,34.19,-1.00
21340.00,-7.75,-5.45,-3.80,-0.44,-1.31,0.92,-23.85,-21.72,34.19,-1.00
21355.00,-7.25,-5.68,-3.56,-0.31,-1.41,1.22,-23.85,-21.72,34.19,-1.00
21366.00,-8.19,-4.07,-2.57,-0.21,-1.51,1.56,-23.85,-21.72,34.19,-1.00
21378.00,-8.19,-4.07,-2.57,-0.21,-1.51,1.56,-23.85,-21.72,34.19,-1.00
21390.00,-7.89,-3.53,-2.61,-0.14,-1.40,1.60,-25.38,-23.34,33.97,-1.00
21404.00,-6.97,-4.25,-2.93,-0.11,-1.23,1.41,-25.38,-23.34,33.97,-1.00
21416.00,-6.97,-4.25,-2.93,-0.11,-1.23,1.41,-25.38,-23.34,33.97,-1.00
21428.00,-6.69,-5.18,-3.69,0.00,-1.08,1.32,-25.38,-23.34,33.97,-1.00
21440.00,-6.69,-5.18,-3.69,0.00,-1.08,1.32,-25.38,-23.34,33.97,-1.00
21454.00,-8.07,-4.36,-3.28,0.06,-1.08,1.55,-25.38,-23.34,33.97,-1.00
21466.00,-9.54,-2.69,-3.34,0.01,-1.03,1.66,-25.38,-23.34,33.97,-1.00
21478.00,-9.54,-2.69,-3.34,0.01,-1.03,1.66,-25.38,-23.34,33.97,-1.00
21492.00,-9.05,-3.98,-3.63,0.12,-0.89,1.19,-25.38,-23.34,33.97,-1.00
21504.00,-8.47,-4.31,-3.78,0.07,-0.90,0.97,-25.38,-23.34,33.97,-1.00
21516.00,-8.47,-4.31,-3.78,0.07,-0.90,0.97,-25.38,-23.34,33.97,-1.00
21529.00,-7.45,-3.84,-3.76,0.02,-0.99,0.87,-26.50,-20.10,31.74,-1.00
21543.00,-6.39,-4.73,-3.87,0.27,-1.01,0.62,-26.50,-20.10,31.74,-1.00
21555.00,-6.39,-4.73,-3.87,0.27,-1.01,0.62,-26.50,-20.10,31.74,-1.00
21567.00,-7.11,-5.52,-3.73,0.41,-1.05,0.58,-26.50,-20.10,31.74,-1.00
21579.00,-7.11,-5.52,-3.73,0.41,-1.05,0.58,-26.50,-20.10,31.74,-1.00
21593.00,-8.81,-5.26,-3.86,0.34,-1.14,0.83,-26.50,-20.10,31.74,-1.00
21605.00,-9.47,-5.31,-3.83,0.24,-1.21,0.86,-26.50,-20.10,31.74,-1.00
21617.00,-9.47,-5.31,-3.83,0.24,-1.21,0.86,-26.50,-20.10,31.74,-1.00
21631.00,-8.26,-4.76,-3.46,0.10,-1.21,0.84,-26.50,-20.10,31.74,-1.00
21643.00,-7.47,-4.65,-3.64,-0.03,-1.20,0.83,-25.80,-21.36,31.96,-1.00
21655.00,-7.47,-4.65,-3.64,-0.03,-1.20,0.83,-25.80,-21.36,31.96,-1.00
21667.00,-8.07,-4.74,-3.96,-0.07,-1.20,0.89,-25.80,-21.36,31.96,-1.00
21682.00,-8.07,-4.74,-3.96,-0.07,-1.20,0.89,-25.80,-21.36,31.96,-1.00
21693.00,-8.89,-4.28,-3.90,-0.02,-1.20,0.97,-25.80,-21.36,31.96,-1.00
21705.00,-8.68,-3.69,-3.53,-0.01,-1.25,0.95,-25.80,-21.36,31.96,-1.00
21717.00,-8.68,-3.69,-3.53,-0.01,-1.25,0.95,-25.80,-21.36,31.96,-1.00
21731.00,-8.61,-4.15,-3.21,-0.01,-1.32,0.84,-25.80,-21.36,31.96,-1.00
21743.00,-8.39,-4.61,-3.11,-0.16,-1.34,0.82,-25.80,-21.36,31.96,-1.00
21755.00,-8.39,-4.61,-3.11,-0.16,-1.34,0.82,-25.80,-21.36,31.96,-1.00
21769.00,-8.16,-4.60,-3.34,-0.34,-1.29,0.86,-25.38,-21.90,32.63,-1.00
21781.00,-8.16,-4.60,-3.34,-0.34,-1.29,0.86,-25.38,-21.90,32.63,-1.00
21793.00,-7.32,-5.35,-3.70,-0.38,-1.21,0.89,-25.38,-21.90,32.63,-1.00
21805.00,-6.82,-5.29,-3.99,-0.28,-1.13,0.96,-25.38,-21.90,32.63,-1.00
21819.00,-6.82,-5.29,-3.99,-0.28,-1.13,0.96,-25.38,-21.90,32.63,-1.00
21831.00,-7.57,-5.12,-3.82,-0.14,-1.11,1.07,-25.38,-21.90,32.63,-1.00
21844.00,-7.74,-4.66,-4.08,-0.11,-1.09,1.18,-25.38,-21.90,32.63,-1.00
21857.00,-7.74,-4.66,-4.08,-0.11,-1.09,1.18,-25.38,-21.90,32.63,-1.00
21945.00,-7.75,-4.85,-4.12,-0.03,-1.14,0.74,-26.64,-21.72,31.96,-1.00
22034.00,-8.22,-4.50,-3.82,0.17,-1.32,1.06,-26.08,-23.52,30.62,-1.00
22123.00,-7.97,-4.28,-3.57,-0.42,-1.17,0.97,-26.08,-23.52,30.62,-1.00
22137.00,-7.81,-4.57,-1.90,-0.48,-0.94,0.87,-26.08,-23.52,30.62,-1.00
22150.00,-7.51,-4.90,-3.57,-0.57,-0.35,0.86,-26.64,-22.44,30.18,-1.00
22161.00,-7.51,-4.90,-3.57,-0.57,-0.35,0.86,-26.64,-22.44,30.18,-1.00
22173.00,-8.87,-3.04,-5.23,-0.44,-0.15,0.93,-26.64,-22.44,30.18,-1.00
22187.00,-8.71,-3.19,-6.23,-0.08,-0.60,0.88,-26.64,-22.44,30.18,-1.00
22199.00,-8.71,-3.19,-6.23,-0.08,-0.60,0.88,-26.64,-22.44,30.18,-1.00
22211.00,-11.68,-2.91,-5.99,0.07,-1.21,0.81,-26.64,-22.44,30.18,-1.00
22225.00,-9.22,-3.15,-5.77,-0.15,-1.53,0.40,-26.64,-22.44,30.18,-1.00
22237.00,-9.22,-3.15,-5.77,-0.15,-1.53,0.40,-26.64,-22.44,30.18,-1.00
22249.00,-8.12,-4.82,-4.49,-0.30,-1.93,0.15,-26.64,-22.44,30.18,-1.00
22261.00,-8.12,-4.82,-4.49,-0.30,-1.93,0.15,-26.64,-22.44,30.18,-1.00
22276.00,-7.43,-5.41,-3.69,-0.60,-2.09,0.34,-25.11,-25.13,26.83,-1.00
22287.00,-5.79,-6.60,-4.14,-0.81,-2.05,0.71,-25.11,-25.13,26.83,-1.00
22299.00,-5.79,-6.60,-4.14,-0.81,-2.05,0.71,-25.11,-25.13,26.83,-1.00
22314.00,-6.52,-4.06,-1.57,-0.77,-2.19,1.31,-25.11,-25.13,26.83,-1.00
22325.00,-5.80,-4.91,-2.14,-0.52,-1.74,1.27,-25.11,-25.13,26.83,-1.00
22337.00,-5.80,-4.91,-2.14,-0.52,-1.74,1.27,-25.11,-25.13,26.83,-1.00
22349.00,-5.38,-5.95,-3.58,-0.27,-1.22,1.17,-25.11,-25.13,26.83,-1.00
22363.00,-7.75,-5.91,-5.04,-0.04,-0.96,1.31,-25.11,-25.13,26.83,-1.00
22375.00,-7.75,-5.91,-5.04,-0.04,-0.96,1.31,-25.11,-25.13,26.83,-1.00
22387.00,-8.92,-3.61,-4.25,0.00,-1.06,1.59,-25.11,-25.13,26.83,-1.00
22399.00,-8.92,-3.61,-4.25,0.00,-1.06,1.59,-25.11,-25.13,26.83,-1.00
22413.00,-9.23,-2.87,-3.05,0.05,-1.17,1.52,-26.22,-22.62,28.17,-1.00
22425.00,-9.24,-2.89,-3.44,0.10,-1.18,1.26,-26.22,-22.62,28.17,-1.00
22437.00,-9.24,-2.89,-3.44,0.10,-1.18,1.26,-26.22,-22.62,28.17,-1.00
22451.00,-8.37,-3.84,-4.97,0.13,-1.16,1.08,-26.22,-22.62,28.17,-1.00
22463.00,-8.37,-3.84,-4.97,0.13,-1.16,1.08,-26.22,-22.62,28.17,-1.00
22475.00,-7.76,-4.65,-5.22,0.18,-1.34,1.07,-26.22,-22.62,28.17,-1.00
22487.00,-9.65,-3.99,-3.61,0.28,-1.56,1.16,-26.22,-22.62,28.17,-1.00
22501.00,-9.65,-3.99,-3.61,0.28,-1.56,1.16,-26.22,-22.62,28.17,-1.00
22513.00,-8.45,-3.71,-3.83,0.29,-1.45,1.08,-26.22,-22.62,28.17,-1.00
22525.00,-8.60,-3.21,-2.92,0.23,-1.36,0.96,-27.20,-19.92,27.50,-1.00
22540.00,-8.60,-3.21,-2.92,0.23,-1.36,0.96,-27.20,-19.92,27.50,-1.00
22552.00,-8.31,-3.66,-3.56,0.08,-1.21,0.77,-27.20,-19.92,27.50,-1.00
22564.00,-7.75,-5.42,-4.17,-0.10,-1.10,0.63,-27.20,-19.92,27.50,-1.00
22577.00,-7.75,-5.42,-4.17,-0.10,-1.10,0.63,-27.20,-19.92,27.50,-1.00
22591.00,-8.18,-4.67,-3.86,-0.31,-1.03,0.86,-27.20,-19.92,27.50,-1.00
22603.00,-8.18,-4.67,-3.86,-0.31,-1.03,0.86,-27.20,-19.92,27.50,-1.00
22615.00,-8.61,-4.08,-3.14,-0.47,-0.91,1.09,-27.20,-19.92,27.50,-1.00
22627.00,-8.89,-2.82,-4.46,-0.49,-0.80,1.25,-27.20,-19.92,27.50,-1.00
22641.00,-8.89,-2.82,-4.46,-0.49,-0.80,1.25,-27.20,-19.92,27.50,-1.00
22653.00,-8.82,-3.45,-4.74,-0.18,-1.03,1.20,-26.36,-20.28,27.94,-1.00
22665.00,-8.04,-3.76,-5.27,0.20,-1.35,1.17,-26.36,-20.28,27.94,-1.00
22679.00,-8.04,-3.76,-5.27,0.20,-1.35,1.17,-26.36,-20.28,27.94,-1.00
22691.00,-7.99,-3.61,-3.93,0.62,-1.67,1.11,-26.36,-20.28,27.94,-1.00
22703.00,-7.99,-3.61,-3.93,0.62,-1.67,1.11,-26.36,-20.28,27.94,-1.00
22715.00,-7.99,-4.05,-4.20,0.70,-1.65,0.98,-26.36,-20.28,27.94,-1.00
22730.00,-8.28,-4.00,-3.64,0.56,-1.66,0.92,-26.36,-20.28,27.94,-1.00
22741.00,-8.28,-4.00,-3.64,0.56,-1.66,0.92,-26.36,-20.28,27.94,-1.00
22753.00,-8.23,-4.59,-2.84,0.25,-1.57,0.92,-26.36,-20.28,27.94,-1.00
22765.00,-8.41,-3.96,-3.28,-0.12,-1.34,0.99,-26.08,-19.20,32.41,-1.00
22779.00,-8.41,-3.96,-3.28,-0.12,-1.34,0.99,-26.08,-19.20,32.41,-1.00
22791.00,-8.40,-4.10,-3.16,-0.29,-1.23,1.01,-26.08,-19.20,32.41,-1.00
22803.00,-8.40,-4.10,-3.16,-0.29,-1.23,1.01,-26.08,-19.20,32.41,-1.00
22817.00,-8.53,-3.83,-2.57,-0.44,-1.05,1.05,-26.08,-19.20,32.41,-1.00
22829.00,-8.74,-3.22,-3.35,-0.58,-0.80,1.10,-26.08,-19.20,32.41,-1.00
22841.00,-8.74,-3.22,-3.35,-0.58,-0.80,1.10,-26.08,-19.20,32.41,-1.00
22853.00,-8.70,-3.13,-4.30,-0.55,-0.76,1.08,-26.08,-19.20,32.41,-1.00
22867.00,-8.39,-3.71,-4.86,-0.38,-0.96,0.99,-26.08,-19.20,32.41,-1.00
22879.00,-8.39,-3.71,-4.86,-0.38,-0.96,0.99,-26.08,-19.20,32.41,-1.00
22891.00,-8.64,-3.48,-4.70,-0.13,-1.24,0.99,-26.08,-19.20,32.41,-1.00
22905.00,-8.62,-3.04,-4.39,0.00,-1.49,0.96,-26.92,-21.72,28.84,-1.00
22917.00,-8.62,-3.04,-4.39,0.00,-1.49,0.96,-26.92,-21.72,28.84,-1.00
22929.00,-8.11,-3.57,-3.53,0.05,-1.64,0.86,-26.92,-21.72,28.84,-1.00
22941.00,-8.11,-3.57,-3.53,0.05,-1.64,0.86,-26.92,-21.72,28.84,-1.00
22955.00,-8.13,-4.13,-3.32,-0.02,-1.50,0.78,-26.92,-21.72,28.84,-1.00
22967.00,-8.34,-3.95,-3.33,-0.14,-1.24,0.83,-26.92,-21.72,28.84,-1.00
22979.00,-8.34,-3.95,-3.33,-0.14,-1.24,0.83,-26.92,-21.72,28.84,-1.00
22991.00,-8.25,-4.31,-3.62,-0.31,-1.06,0.86,-26.92,-21.72,28.84,-1.00
23005.00,-8.16,-4.61,-3.79,-0.53,-0.91,0.94,-26.92,-21.72,28.84,-1.00
23017.00,-8.16,-4.61,-3.79,-0.53,-0.91,0.94,-26.92,-21.72,28.84,-1.00
23029.00,-8.29,-3.89,-4.42,-0.64,-0.77,1.11,-27.06,-20.46,27.72,-1.00
23044.00,-8.29,-3.89,-4.42,-0.64,-0.77,1.11,-27.06,-20.46,27.72,-1.00
23055.00,-8.58,-3.35,-5.12,-0.48,-0.88,1.19,-27.06,-20.46,27.72,-1.00
23067.00,-8.61,-3.63,-4.96,-0.16,-1.17,1.17,-27.06,-20.46,27.72,-1.00
23079.00,-8.61,-3.63,-4.96,-0.16,-1.17,1.17,-27.06,-20.46,27.72,-1.00
23093.00,-8.57,-3.15,-5.56,0.11,-1.46,1.22,-27.06,-20.46,27.72,-1.00
23105.00,-8.33,-3.04,-4.32,0.41,-1.84,1.18,-27.06,-20.46,27.72,-1.00
23117.00,-8.33,-3.04,-4.32,0.41,-1.84,1.18,-27.06,-20.46,27.72,-1.00
23129.00,-8.26,-3.42,-3.80,0.60,-1.93,1.04,-27.06,-20.46,27.72,-1.00
23143.00,-8.26,-3.42,-3.80,0.60,-1.93,1.04,-27.06,-20.46,27.72,-1.00
23155.00,-8.29,-3.87,-3.00,0.52,-1.86,0.97,-26.92,-19.56,29.28,-1.00
23167.00,-8.58,-3.55,-2.83,0.22,-1.60,0.97,-26.92,-19.56,29.28,-1.00
23181.00,-8.58,-3.55,-2.83,0.22,-1.60,0.97,-26.92,-19.56,29.28,-1.00
23193.00,-8.66,-3.27,-3.08,-0.08,-1.36,0.97,-26.92,-19.56,29.28,-1.00
23205.00,-8.83,-3.43,-2.34,-0.26,-1.21,0.95,-26.92,-19.56,29.28,-1.00
23217.00,-8.83,-3.43,-2.34,-0.26,-1.21,0.95,-26.92,-19.56,29.28,-1.00
23231.00,-8.86,-3.23,-2.67,-0.47,-0.95,1.00,-26.92,-19.56,29.28,-1.00
23243.00,-8.86,-3.23,-2.67,-0.47,-0.95,1.00,-26.92,-19.56,29.28,-1.00
23255.00,-8.88,-3.59,-4.18,-0.58,-0.83,1.04,-26.92,-19.56,29.28,-1.00
23269.00,-8.45,-3.61,-5.11,-0.51,-1.02,1.09,-27.20,-17.41,28.84,-1.00
23281.00,-8.45,-3.61,-5.11,-0.51,-1.02,1.09,-27.20,-17.41,28.84,-1.00
23293.00,-8.48,-3.57,-5.19,-0.21,-1.33,1.12,-27.20,-17.41,28.84,-1.00
23305.00,-8.55,-3.35,-4.52,0.11,-1.56,1.22,-27.20,-17.41,28.84,-1.00
23319.00,-8.55,-3.35,-4.52,0.11,-1.56,1.22,-27.20,-17.41,28.84,-1.00
23331.00,-8.43,-2.82,-4.10,0.37,-1.71,1.26,-27.20,-17.41,28.84,-1.00
23343.00,-8.43,-2.82,-4.10,0.37,-1.71,1.26,-27.20,-17.41,28.84,-1.00
23355.00,-8.47,-2.88,-3.29,0.55,-1.76,1.11,-27.20,-17.41,28.84,-1.00
23369.00,-8.63,-3.26,-2.64,0.57,-1.66,0.96,-27.20,-17.41,28.84,-1.00
23381.00,-8.63,-3.26,-2.64,0.57,-1.66,0.96,-27.20,-17.41,28.84,-1.00
23393.00,-8.68,-3.25,-2.69,0.41,-1.41,0.88,-27.20,-17.41,28.84,-1.00
23407.00,-8.87,-3.43,-2.63,0.16,-1.18,0.83,-28.18,-17.94,32.19,-1.00
23419.00,-8.87,-3.43,-2.63,0.16,-1.18,0.83,-28.18,-17.94,32.19,-1.00
23431.00,-8.48,-3.65,-2.81,-0.14,-0.93,0.83,-28.18,-17.94,32.19,-1.00
23443.00,-8.48,-3.65,-2.81,-0.14,-0.93,0.83,-28.18,-17.94,32.19,-1.00
23457.00,-8.83,-3.91,-2.54,-0.39,-0.71,0.88,-28.18,-17.94,32.19,-1.00
23545.00,-8.86,-3.12,-4.29,0.32,-1.92,1.24,-28.04,-16.69,27.05,-1.00
23635.00,-7.23,-4.55,-3.77,0.28,-1.62,1.15,-28.04,-16.69,27.05,-1.00
23722.00,-9.03,-2.41,-2.01,0.04,-0.94,0.60,-27.62,-16.51,33.97,-1.00
23736.00,-8.75,-3.41,-3.25,-0.11,-0.72,0.44,-27.62,-16.51,33.97,-1.00
23748.00,-8.66,-3.99,-3.18,-0.30,-0.63,0.51,-27.62,-16.51,33.97,-1.00
23760.00,-8.66,-3.99,-3.18,-0.30,-0.63,0.51,-27.62,-16.51,33.97,-1.00
23774.00,-8.79,-4.21,-4.19,-0.49,-0.46,0.77,-28.74,-17.23,30.85,-1.00
23786.00,-8.84,-3.81,-4.85,-0.65,-0.49,1.11,-28.74,-17.23,30.85,-1.00
23798.00,-8.84,-3.81,-4.85,-0.65,-0.49,1.11,-28.74,-17.23,30.85,-1.00
23810.00,-9.04,-3.40,-5.54,-0.66,-0.79,1.30,-28.74,-17.23,30.85,-1.00
23824.00,-9.04,-3.40,-5.54,-0.66,-0.79,1.30,-28.74,-17.23,30.85,-1.00
23836.00,-9.14,-2.14,-6.89,-0.44,-1.35,1.44,-28.74,-17.23,30.85,-1.00
23848.00,-8.76,-1.21,-3.60,0.03,-2.09,1.36,-28.74,-17.23,30.85,-1.00
23860.00,-8.76,-1.21,-3.60,0.03,-2.09,1.36,-28.74,-17.23,30.85,-1.00
23874.00,-12.64,0.45,-1.47,0.27,-2.03,0.94,-28.74,-17.23,30.85,-1.00
23886.00,-10.02,-0.41,-2.46,0.38,-1.33,-0.03,-28.74,-17.23,30.85,-1.00
23898.00,-10.02,-0.41,-2.46,0.38,-1.33,-0.03,-28.74,-17.23,30.85,-1.00
23913.00,-8.52,-3.87,-2.57,0.57,-1.06,-0.73,-28.18,-16.87,31.29,-1.00
23924.00,-8.52,-3.87,-2.57,0.57,-1.06,-0.73,-28.18,-16.87,31.29,-1.00
23936.00,-8.77,-6.20,-5.32,0.46,-0.89,-0.64,-28.18,-16.87,31.29,-1.00
23948.00,-9.69,-4.95,-4.27,0.16,-1.25,0.03,-28.18,-16.87,31.29,-1.00
23962.00,-9.69,-4.95,-4.27,0.16,-1.25,0.03,-28.18,-16.87,31.29,-1.00
23974.00,-7.55,-4.68,-3.33,0.14,-1.53,0.52,-28.18,-16.87,31.29,-1.00
23986.00,-5.65,-4.55,-1.04,0.29,-1.65,0.96,-28.18,-16.87,31.29,-1.00
24000.00,-5.65,-4.55,-1.04,0.29,-1.65,0.96,-28.18,-16.87,31.29,-1.00
24012.00,-5.63,-3.99,-1.11,0.42,-1.35,1.36,-28.18,-16.87,31.29,-1.00
24024.00,-5.63,-3.99,-1.11,0.42,-1.35,1.36,-28.18,-16.87,31.29,-1.00
24036.00,-6.25,-2.89,-1.88,0.40,-0.97,1.54,-25.66,-20.82,33.97,-1.00
24050.00,-6.10,-3.61,-3.31,0.38,-0.69,1.44,-25.66,-20.82,33.97,-1.00
24062.00,-6.10,-3.61,-3.31,0.38,-0.69,1.44,-25.66,-20.82,33.97,-1.00
24074.00,-7.51,-2.48,-2.62,0.39,-0.53,1.38,-25.66,-20.82,33.97,-1.00
24086.00,-8.78,-2.84,-3.92,0.38,-0.14,1.01,-25.66,-20.82,33.97,-1.00
24100.00,-8.78,-2.84,-3.92,0.38,-0.14,1.01,-25.66,-20.82,33.97,-1.00
24112.00,-12.10,-4.21,-5.93,0.35,-0.02,0.50,-25.66,-20.82,33.97,-1.00
24124.00,-12.10,-4.21,-5.93,0.35,-0.02,0.50,-25.66,-20.82,33.97,-1.00
24138.00,-9.85,-5.40,-6.03,0.27,-0.45,0.29,-25.66,-20.82,33.97,-1.00
24150.00,-7.23,-5.32,-3.83,0.18,-0.94,0.41,-27.76,-20.28,29.73,-1.00
24162.00,-7.23,-5.32,-3.83,0.18,-0.94,0.41,-27.76,-20.28,29.73,-1.00
24174.00,-6.35,-4.67,-3.57,0.16,-1.03,0.60,-27.76,-20.28,29.73,-1.00
24188.00,-8.14,-4.06,-4.05,0.16,-1.11,0.80,-27.76,-20.28,29.73,-1.00
24200.00,-8.14,-4.06,-4.05,0.16,-1.11,0.80,-27.76,-20.28,29.73,-1.00
24212.00,-9.77,-4.91,-4.79,0.11,-1.18,0.88,-27.76,-20.28,29.73,-1.00
24224.00,-9.77,-4.91,-4.79,0.11,-1.18,0.88,-27.76,-20.28,29.73,-1.00
24239.00,-7.93,-5.06,-4.39,0.00,-1.16,0.93,-27.76,-20.28,29.73,-1.00
24250.00,-6.90,-4.93,-3.76,-0.06,-1.10,0.99,-27.76,-20.28,29.73,-1.00
24262.00,-6.90,-4.93,-3.76,-0.06,-1.10,0.99,-27.76,-20.28,29.73,-1.00
24276.00,-6.70,-5.63,-4.22,-0.20,-1.13,1.18,-26.78,-20.82,28.17,-1.00
24288.00,-7.62,-5.36,-4.74,-0.28,-1.29,1.57,-26.78,-20.82,28.17,-1.00
24300.00,-7.62,-5.36,-4.74,-0.28,-1.29,1.57,-26.78,-20.82,28.17,-1.00
24312.00,-10.08,-3.25,-4.02,-0.24,-1.43,1.88,-26.78,-20.82,28.17,-1.00
24326.00,-9.68,-1.65,-4.39,-0.17,-1.36,1.64,-26.78,-20.82,28.17,-1.00
24338.00,-9.68,-1.65,-4.39,-0.17,-1.36,1.64,-26.78,-20.82,28.17,-1.00
24350.00,-9.09,-1.75,-4.74,0.10,-1.51,1.22,-26.78,-20.82,28.17,-1.00
24365.00,-9.09,-1.75,-4.74,0.10,-1.51,1.22,-26.78,-20.82,28.17,-1.00
24453.00,-8.52,-3.95,-2.87,-0.10,-1.34,0.92,-28.32,-18.12,31.07,-1.00
24542.00,-8.87,-3.35,-3.88,-0.56,-0.70,1.15,-28.32,-18.84,30.18,-1.00
24631.00,-8.25,-3.64,-3.24,0.46,-1.85,0.98,-28.32,-18.84,30.18,-1.00
24645.00,-8.25,-3.64,-3.24,0.46,-1.85,0.98,-28.32,-18.84,30.18,-1.00
24657.00,-8.40,-3.76,-2.89,0.36,-1.67,0.93,-27.90,-17.23,32.63,-1.00
24669.00,-8.59,-3.74,-2.89,0.18,-1.46,0.90,-27.90,-17.23,32.63,-1.00
24681.00,-8.59,-3.74,-2.89,0.18,-1.46,0.90,-27.90,-17.23,32.63,-1.00
24696.00,-8.66,-3.68,-3.14,-0.06,-1.31,0.91,-27.90,-17.23,32.63,-1.00
24707.00,-8.61,-3.81,-2.98,-0.21,-1.21,0.90,-27.90,-17.23,32.63,-1.00
24719.00,-8.61,-3.81,-2.98,-0.21,-1.21,0.90,-27.90,-17.23,32.63,-1.00
24733.00,-8.70,-4.16,-2.42,-0.34,-1.00,0.93,-27.90,-17.23,32.63,-1.00
24745.00,-8.70,-4.16,-2.42,-0.34,-1.00,0.93,-27.90,-17.23,32.63,-1.00
24757.00,-8.66,-3.80,-3.99,-0.53,-0.70,1.04,-27.90,-17.23,32.63,-1.00
24769.00,-8.67,-3.72,-3.43,-0.52,-0.74,1.13,-27.90,-17.23,32.63,-1.00
24783.00,-8.67,-3.72,-3.43,-0.52,-0.74,1.13,-27.90,-17.23,32.63,-1.00
24795.00,-8.84,-3.19,-4.02,-0.40,-0.83,1.16,-29.16,-17.41,29.28,-1.00
24807.00,-8.67,-3.39,-4.36,-0.22,-1.03,1.11,-29.16,-17.41,29.28,-1.00
24819.00,-8.67,-3.39,-4.36,-0.22,-1.03,1.11,-29.16,-17.41,29.28,-1.00
24833.00,-8.92,-2.84,-4.99,-0.05,-1.26,1.08,-29.16,-17.41,29.28,-1.00
24845.00,-8.92,-2.84,-4.99,-0.05,-1.26,1.08,-29.16,-17.41,29.28,-1.00
24857.00,-8.74,-2.78,-4.64,0.10,-1.58,1.03,-29.16,-17.41,29.28,-1.00
24872.00,-8.32,-3.70,-3.36,0.31,-1.74,0.93,-29.16,-17.41,29.28,-1.00
24883.00,-8.32,-3.70,-3.36,0.31,-1.74,0.93,-29.16,-17.41,29.28,-1.00
24895.00,-8.61,-3.53,-2.82,0.25,-1.53,0.94,-29.16,-17.41,29.28,-1.00
