time,ax,ay,az,gx,gy,gz,mx,my,mz,pressure
1.00,-0.19,6.12,-7.85,0.20,1.71,2.17,-26.30,14.85,-33.84,-1.00
13.00,-0.19,6.12,-7.85,0.20,1.71,2.17,-26.30,14.85,-33.84,-1.00
25.00,-0.22,6.12,-7.83,0.20,1.71,2.17,-25.74,12.72,-34.01,-1.00
37.00,-0.24,6.14,-7.86,0.20,1.71,2.17,-25.74,12.72,-34.01,-1.00
99.00,-0.20,6.12,-7.84,0.20,1.71,2.17,-25.74,12.72,-34.01,-1.00
111.00,-0.20,6.12,-7.84,0.20,1.71,2.17,-25.74,12.72,-34.01,-1.00
123.00,-0.24,6.13,-7.85,0.20,1.71,2.17,-25.74,12.72,-34.01,-1.00
137.00,-0.24,6.12,-7.85,0.20,1.71,2.17,-27.24,14.03,-33.33,-1.00
149.00,-0.24,6.12,-7.85,0.20,1.71,2.17,-27.24,14.03,-33.33,-1.00
161.00,-0.23,6.13,-7.83,0.20,1.71,2.17,-27.24,14.03,-33.33,-1.00
173.00,-0.23,6.13,-7.83,0.20,1.71,2.17,-27.24,14.03,-33.33,-1.00
187.00,-0.20,6.12,-7.81,0.20,1.71,2.17,-27.24,14.03,-33.33,-1.00
199.00,-0.21,6.12,-7.84,0.20,1.71,2.17,-27.24,14.03,-33.33,-1.00
211.00,-0.21,6.12,-7.84,0.20,1.71,2.17,-27.24,14.03,-33.33,-1.00
223.00,-0.22,6.11,-7.83,0.20,1.71,2.17,-27.24,14.03,-33.33,-1.00
237.00,-0.22,6.13,-7.85,0.20,1.71,2.17,-27.24,14.03,-33.33,-1.00
249.00,-0.22,6.13,-7.85,0.20,1.71,2.17,-27.24,14.03,-33.33,-1.00
261.00,-0.22,6.13,-7.85,0.20,1.71,2.17,-27.24,14.03,-33.33,-1.00
273.00,-0.22,6.13,-7.85,0.20,1.71,2.17,-27.24,14.03,-33.33,-1.00
287.00,-0.21,6.13,-7.87,0.20,1.71,2.17,-25.74,13.38,-32.65,-1.00
299.00,-0.20,6.13,-7.85,0.20,1.71,2.17,-25.74,13.38,-32.65,-1.00
311.00,-0.20,6.13,-7.85,0.20,1.71,2.17,-25.74,13.38,-32.65,-1.00
323.00,-0.22,6.12,-7.84,0.20,1.71,2.17,-25.74,13.38,-32.65,-1.00
337.00,-0.22,6.12,-7.83,0.20,1.71,2.17,-25.74,13.38,-32.65,-1.00
349.00,-0.22,6.12,-7.83,0.20,1.71,2.17,-25.74,13.38,-32.65,-1.00
361.00,-0.22,6.12,-7.85,0.20,1.71,2.17,-25.74,13.38,-32.65,-1.00
373.00,-0.22,6.12,-7.85,0.20,1.71,2.17,-25.74,13.38,-32.65,-1.00
387.00,-0.23,6.12,-7.83,0.20,1.71,2.17,-25.74,13.38,-32.65,-1.00
399.00,-0.22,6.11,-7.84,0.20,1.71,2.17,-26.49,13.05,-32.99,-1.00
411.00,-0.22,6.11,-7.84,0.20,1.71,2.17,-26.49,13.05,-32.99,-1.00
423.00,-0.23,6.11,-7.85,0.20,1.71,2.17,-26.49,13.05,-32.99,-1.00
437.00,-0.22,6.12,-7.82,0.20,1.71,2.17,-26.49,13.05,-32.99,-1.00
449.00,-0.22,6.12,-7.82,0.20,1.71,2.17,-26.49,13.05,-32.99,-1.00
461.00,-0.21,6.13,-7.83,0.20,1.71,2.17,-26.49,13.05,-32.99,-1.00
473.00,-0.21,6.13,-7.83,0.20,1.71,2.17,-26.49,13.05,-32.99,-1.00
487.00,-0.21,6.13,-7.84,0.20,1.71,2.17,-26.49,13.05,-32.99,-1.00
499.00,-0.20,6.22,-7.90,0.20,1.71,2.17,-26.49,13.05,-32.99,-1.00
511.00,-0.20,6.22,-7.90,0.20,1.71,2.17,-26.49,13.05,-32.99,-1.00
523.00,-0.23,6.12,-7.87,0.22,1.70,2.17,-24.99,13.71,-34.35,-1.00
537.00,-0.23,6.11,-7.87,0.22,1.70,2.16,-24.99,13.71,-34.35,-1.00
549.00,-0.23,6.11,-7.87,0.22,1.70,2.16,-24.99,13.71,-34.35,-1.00
561.00,-0.23,6.09,-7.85,0.23,1.70,2.16,-24.99,13.71,-34.35,-1.00
575.00,-0.25,6.05,-7.82,0.22,1.70,2.16,-24.99,13.71,-34.35,-1.00
587.00,-0.25,6.05,-7.82,0.22,1.70,2.16,-24.99,13.71,-34.35,-1.00
599.00,-1.68,6.09,-7.89,0.19,1.95,1.86,-24.99,13.71,-34.35,-1.00
611.00,-1.68,6.09,-7.89,0.19,1.95,1.86,-24.99,13.71,-34.35,-1.00
626.00,0.47,6.33,-7.68,0.18,2.35,1.37,-24.99,13.71,-34.35,-1.00
637.00,0.13,6.07,-7.87,0.18,2.16,1.62,-25.93,11.90,-32.82,-1.00
649.00,0.13,6.07,-7.87,0.18,2.16,1.62,-25.93,11.90,-32.82,-1.00
661.00,-0.37,6.12,-7.94,0.18,1.95,1.88,-25.93,11.90,-32.82,-1.00
675.00,0.04,6.10,-7.89,0.19,1.87,1.97,-25.93,11.90,-32.82,-1.00
687.00,0.04,6.10,-7.89,0.19,1.87,1.97,-25.93,11.90,-32.82,-1.00
699.00,-0.18,6.11,-7.87,0.20,1.73,2.14,-25.93,11.90,-32.82,-1.00
711.00,-0.18,6.11,-7.87,0.20,1.73,2.14,-25.93,11.90,-32.82,-1.00
725.00,-0.54,6.05,-7.82,0.20,1.71,2.16,-25.93,11.90,-32.82,-1.00
737.00,-1.22,5.97,-7.87,0.17,1.96,1.87,-25.93,11.90,-32.82,-1.00
749.00,-1.22,5.97,-7.87,0.17,1.96,1.87,-25.93,11.90,-32.82,-1.00
761.00,0.57,7.42,-8.29,0.15,2.52,1.25,-24.99,10.43,-35.37,-1.00
776.00,0.86,4.65,-12.16,0.94,2.69,1.90,-24.99,10.43,-35.37,-1.00
787.00,0.86,4.65,-12.16,0.94,2.69,1.90,-24.99,10.43,-35.37,-1.00
800.00,1.89,0.85,-10.57,2.81,1.89,2.98,-24.99,10.43,-35.37,-1.00
812.00,1.89,0.85,-10.57,2.81,1.89,2.98,-24.99,10.43,-35.37,-1.00
826.00,-0.34,6.58,-6.55,2.18,0.97,4.73,-24.99,10.43,-35.37,-1.00
838.00,-1.66,9.82,-8.55,1.25,1.82,4.71,-24.99,10.43,-35.37,-1.00
850.00,-1.66,9.82,-8.55,1.25,1.82,4.71,-24.99,10.43,-35.37,-1.00
862.00,0.71,7.54,-9.21,2.79,3.36,3.67,-24.99,10.43,-35.37,-1.00
876.00,2.57,6.26,-14.70,2.44,3.90,2.63,-24.99,10.43,-35.37,-1.00
888.00,2.57,6.26,-14.70,2.44,3.90,2.63,-24.99,10.43,-35.37,-1.00
900.00,1.85,6.06,-15.73,2.40,2.52,2.20,-19.34,5.19,-38.43,-1.00
912.00,1.85,6.06,-15.73,2.40,2.52,2.20,-19.34,5.19,-38.43,-1.00
927.00,0.48,5.56,-12.54,3.59,0.96,2.34,-19.34,5.19,-38.43,-1.00
938.00,0.55,4.74,-11.45,4.50,0.52,2.31,-19.34,5.19,-38.43,-1.00
950.00,0.55,4.74,-11.45,4.50,0.52,2.31,-19.34,5.19,-38.43,-1.00
962.00,0.74,2.85,-10.43,4.71,0.84,2.00,-19.34,5.19,-38.43,-1.00
977.00,1.22,3.03,-8.40,4.13,1.00,1.70,-19.34,5.19,-38.43,-1.00
989.00,1.22,3.03,-8.40,4.13,1.00,1.70,-19.34,5.19,-38.43,-1.00
1001.00,1.47,2.50,-8.93,3.77,0.77,1.47,-19.34,5.19,-38.43,-1.00
1013.00,1.47,2.50,-8.93,3.77,0.77,1.47,-19.34,5.19,-38.43,-1.00
1027.00,0.66,0.01,-12.07,4.33,0.40,1.65,-22.73,-10.53,-34.69,-1.00
1039.00,1.15,-1.42,-14.43,5.79,0.18,2.01,-22.73,-10.53,-34.69,-1.00
1051.00,1.15,-1.42,-14.43,5.79,0.18,2.01,-22.73,-10.53,-34.69,-1.00
1065.00,1.42,-2.24,-12.66,7.79,0.17,2.23,-22.73,-10.53,-34.69,-1.00
1077.00,0.11,-1.04,-9.38,8.45,-0.19,2.25,-22.73,-10.53,-34.69,-1.00
1089.00,0.11,-1.04,-9.38,8.45,-0.19,2.25,-22.73,-10.53,-34.69,-1.00
1101.00,1.48,-2.95,-8.69,8.26,-0.90,2.13,-22.73,-10.53,-34.69,-1.00
1116.00,1.65,-10.31,-5.13,7.94,-1.57,3.27,-22.73,-10.53,-34.69,-1.00
1202.00,-0.40,-6.85,-3.25,4.21,-1.54,-0.11,-26.49,-30.84,-4.10,-1.00
1292.00,-1.25,-6.01,-0.27,-2.28,-2.54,0.86,-21.04,-31.99,16.46,-1.00
1378.00,1.71,-10.00,-2.80,-1.05,-1.07,0.48,-4.30,-39.36,12.21,-1.00
1393.00,1.71,-10.00,-2.80,-1.05,-1.07,0.48,-4.30,-39.36,12.21,-1.00
1404.00,0.85,-9.12,-2.78,-2.19,-1.51,0.78,-4.30,-39.36,12.21,-1.00
1416.00,-0.56,-8.57,-4.79,-1.53,-1.62,0.80,-4.30,-39.36,12.21,-1.00
1431.00,-0.56,-8.57,-4.79,-1.53,-1.62,0.80,-4.30,-39.36,12.21,-1.00
1442.00,-1.58,-8.65,-3.54,-0.82,-1.35,0.66,-4.30,-39.36,12.21,-1.00
1454.00,-1.44,-7.89,-2.06,-3.09,-1.00,0.27,-4.30,-39.36,12.21,-1.00
1466.00,-1.44,-7.89,-2.06,-3.09,-1.00,0.27,-4.30,-39.36,12.21,-1.00
1480.00,-0.08,-6.22,-4.83,-4.51,-0.55,-0.18,-4.30,-39.36,12.21,-1.00
1492.00,-0.08,-6.22,-4.83,-4.51,-0.55,-0.18,-4.30,-39.36,12.21,-1.00
1504.00,-0.61,-6.80,-6.21,-1.49,0.14,-0.39,7.92,-41.16,-0.19,-1.00
1516.00,-1.42,-8.42,-4.91,1.40,0.75,-0.39,7.92,-41.16,-0.19,-1.00
1530.00,-1.42,-8.42,-4.91,1.40,0.75,-0.39,7.92,-41.16,-0.19,-1.00
1542.00,0.28,-9.47,-5.14,2.08,1.01,-0.15,7.92,-41.16,-0.19,-1.00
1554.00,0.90,-9.82,-4.86,2.73,1.06,0.43,7.92,-41.16,-0.19,-1.00
1566.00,0.90,-9.82,-4.86,2.73,1.06,0.43,7.92,-41.16,-0.19,-1.00
1581.00,0.68,-8.83,-3.26,2.65,0.99,1.14,7.92,-41.16,-0.19,-1.00
1592.00,0.68,-8.83,-3.26,2.65,0.99,1.14,7.92,-41.16,-0.19,-1.00
1604.00,0.20,-7.48,-2.92,2.46,0.98,1.43,7.92,-41.16,-0.19,-1.00
1616.00,-0.27,-8.44,-2.32,3.07,1.13,1.08,7.92,-41.16,-0.19,-1.00
1630.00,-0.27,-8.44,-2.32,3.07,1.13,1.08,7.92,-41.16,-0.19,-1.00
1642.00,2.13,-11.14,-3.80,3.00,1.32,0.89,17.14,-39.03,12.21,-1.00
1654.00,3.28,-11.54,-3.17,3.12,1.09,1.43,17.14,-39.03,12.21,-1.00
1666.00,3.28,-11.54,-3.17,3.12,1.09,1.43,17.14,-39.03,12.21,-1.00
1680.00,1.69,-10.80,-3.87,2.29,0.55,2.05,17.14,-39.03,12.21,-1.00
1692.00,1.69,-10.80,-3.87,2.29,0.55,2.05,17.14,-39.03,12.21,-1.00
1704.00,0.40,-8.37,-2.95,2.20,0.21,2.26,17.14,-39.03,12.21,-1.00
1718.00,-0.52,-8.21,1.91,1.90,0.08,1.63,17.14,-39.03,12.21,-1.00
1730.00,-0.52,-8.21,1.91,1.90,0.08,1.63,17.14,-39.03,12.21,-1.00
1742.00,-0.07,-9.83,3.08,0.84,0.41,0.84,17.14,-39.03,12.21,-1.00
1754.00,3.48,-10.49,-0.54,-0.53,0.65,0.53,21.28,-36.08,16.97,-1.00
1768.00,3.48,-10.49,-0.54,-0.53,0.65,0.53,21.28,-36.08,16.97,-1.00
1780.00,5.24,-11.04,-5.67,-1.28,0.24,1.02,21.28,-36.08,16.97,-1.00
1792.00,5.24,-11.04,-5.67,-1.28,0.24,1.02,21.28,-36.08,16.97,-1.00
1804.00,3.65,-8.64,-4.81,-0.28,-0.59,1.73,21.28,-36.08,16.97,-1.00
1818.00,2.94,-10.28,-0.44,1.06,-1.04,1.78,21.28,-36.08,16.97,-1.00
1830.00,2.94,-10.28,-0.44,1.06,-1.04,1.78,21.28,-36.08,16.97,-1.00
1842.00,1.84,-12.72,2.27,0.58,-0.64,1.82,21.28,-36.08,16.97,-1.00
1854.00,2.75,-13.36,0.67,-0.43,0.74,2.72,21.28,-36.08,16.97,-1.00
1868.00,2.75,-13.36,0.67,-0.43,0.74,2.72,21.28,-36.08,16.97,-1.00
1880.00,-0.03,-8.36,-5.40,-1.70,1.31,4.00,27.11,-34.94,7.96,-1.00
1892.00,-0.03,-8.36,-5.40,-1.70,1.31,4.00,27.11,-34.94,7.96,-1.00
1904.00,-3.08,-3.47,-2.57,1.74,2.16,4.12,27.11,-34.94,7.96,-1.00
1918.00,0.68,-11.45,-0.89,4.22,2.33,2.65,27.11,-34.94,7.96,-1.00
1930.00,0.68,-11.45,-0.89,4.22,2.33,2.65,27.11,-34.94,7.96,-1.00
1942.00,1.01,-12.59,0.89,2.07,1.28,2.72,27.11,-34.94,7.96,-1.00
1956.00,-3.62,-10.32,1.80,-0.15,1.26,3.34,27.11,-34.94,7.96,-1.00
1968.00,-3.62,-10.32,1.80,-0.15,1.26,3.34,27.11,-34.94,7.96,-1.00
1980.00,-2.81,-5.86,-0.51,-2.37,1.41,2.91,27.11,-34.94,7.96,-1.00
1992.00,-2.81,-5.86,-0.51,-2.37,1.41,2.91,27.11,-34.94,7.96,-1.00
2007.00,1.88,-7.84,-0.89,-0.70,1.42,1.67,21.28,-36.41,9.83,-1.00
2018.00,2.61,-14.23,-3.23,-0.30,1.11,1.69,21.28,-36.41,9.83,-1.00
2031.00,2.61,-14.23,-3.23,-0.30,1.11,1.69,21.28,-36.41,9.83,-1.00
2043.00,-2.06,-10.68,-3.39,-0.74,0.74,2.91,21.28,-36.41,9.83,-1.00
2057.00,-3.57,-6.95,-3.30,-0.72,0.68,3.23,21.28,-36.41,9.83,-1.00
2069.00,-3.57,-6.95,-3.30,-0.72,0.68,3.23,21.28,-36.41,9.83,-1.00
2081.00,-1.31,-4.41,-2.96,0.76,0.73,2.89,21.28,-36.41,9.83,-1.00
2093.00,4.10,-6.94,-4.90,1.25,0.41,1.86,21.28,-36.41,9.83,-1.00
2107.00,4.10,-6.94,-4.90,1.25,0.41,1.86,21.28,-36.41,9.83,-1.00
2119.00,2.04,-11.63,-3.17,2.31,0.15,1.56,23.53,-36.41,9.49,-1.00
2131.00,2.04,-11.63,-3.17,2.31,0.15,1.56,23.53,-36.41,9.49,-1.00
2143.00,2.06,-11.30,-1.63,2.17,-0.09,2.24,23.53,-36.41,9.49,-1.00
2158.00,1.98,-9.06,-0.13,1.83,-0.21,2.83,23.53,-36.41,9.49,-1.00
2169.00,1.98,-9.06,-0.13,1.83,-0.21,2.83,23.53,-36.41,9.49,-1.00
2181.00,1.16,-7.02,3.16,1.46,-0.11,3.06,23.53,-36.41,9.49,-1.00
2193.00,-0.96,-7.62,3.10,0.13,0.49,2.81,23.53,-36.41,9.49,-1.00
2207.00,-0.96,-7.62,3.10,0.13,0.49,2.81,23.53,-36.41,9.49,-1.00
2219.00,0.59,-10.06,0.99,0.51,1.39,2.85,23.53,-36.41,9.49,-1.00
2231.00,0.59,-10.06,0.99,0.51,1.39,2.85,23.53,-36.41,9.49,-1.00
2243.00,-4.87,-4.62,-2.09,3.17,1.53,3.48,23.53,-36.41,9.49,-1.00
2257.00,-2.83,-3.80,2.18,5.50,1.22,3.03,19.58,-35.27,13.40,-1.00
2269.00,-2.83,-3.80,2.18,5.50,1.22,3.03,19.58,-35.27,13.40,-1.00
2281.00,4.66,-10.86,1.43,3.98,1.04,1.92,19.58,-35.27,13.40,-1.00
2293.00,5.24,-15.34,5.26,3.92,0.94,2.75,19.58,-35.27,13.40,-1.00
2308.00,5.24,-15.34,5.26,3.92,0.94,2.75,19.58,-35.27,13.40,-1.00
2319.00,1.44,-10.86,11.30,1.93,1.27,4.40,19.58,-35.27,13.40,-1.00
2331.00,1.44,-10.86,11.30,1.93,1.27,4.40,19.58,-35.27,13.40,-1.00
2345.00,-6.03,-9.05,7.54,-1.49,2.63,4.66,19.58,-35.27,13.40,-1.00
2357.00,-3.88,-10.04,4.63,-4.10,3.52,4.63,19.58,-35.27,13.40,-1.00
2369.00,-3.88,-10.04,4.63,-4.10,3.52,4.63,19.58,-35.27,13.40,-1.00
2381.00,-7.30,-4.12,-1.18,-4.33,3.98,4.88,13.19,-38.21,16.80,-1.00
2395.00,1.19,-12.49,1.66,-1.91,4.36,4.43,13.19,-38.21,16.80,-1.00
2407.00,1.19,-12.49,1.66,-1.91,4.36,4.43,13.19,-38.21,16.80,-1.00
2419.00,-5.60,-8.74,-1.82,-4.03,3.79,4.44,13.19,-38.21,16.80,-1.00
2431.00,-5.60,-8.74,-1.82,-4.03,3.79,4.44,13.19,-38.21,16.80,-1.00
2446.00,-2.72,-7.37,-2.88,-1.77,3.92,4.67,13.19,-38.21,16.80,-1.00
2457.00,-4.56,-7.30,-8.05,-0.92,3.35,4.40,13.19,-38.21,16.80,-1.00
2469.00,-4.56,-7.30,-8.05,-0.92,3.35,4.40,13.19,-38.21,16.80,-1.00
2481.00,-5.85,-7.05,-6.26,2.99,2.32,4.60,13.19,-38.21,16.80,-1.00
2495.00,-7.28,-7.09,0.96,5.17,1.26,4.70,-2.04,-39.03,14.93,-1.00
2507.00,-7.28,-7.09,0.96,5.17,1.26,4.70,-2.04,-39.03,14.93,-1.00
2519.00,-4.69,-5.81,3.80,2.55,1.03,4.10,-2.04,-39.03,14.93,-1.00
2531.00,-4.69,-5.81,3.80,2.55,1.03,4.10,-2.04,-39.03,14.93,-1.00
2545.00,-8.70,-9.77,9.20,4.97,2.81,3.99,-2.04,-39.03,14.93,-1.00
2557.00,-10.49,-6.28,0.63,2.49,3.86,3.84,-2.04,-39.03,14.93,-1.00
2569.00,-10.49,-6.28,0.63,2.49,3.86,3.84,-2.04,-39.03,14.93,-1.00
2583.00,-10.36,-5.94,-6.56,-1.45,2.80,3.06,-2.04,-39.03,14.93,-1.00
2595.00,-5.67,-8.91,-0.73,-1.96,1.37,2.50,-2.04,-39.03,14.93,-1.00
2607.00,-5.67,-8.91,-0.73,-1.96,1.37,2.50,-2.04,-39.03,14.93,-1.00
2619.00,-6.94,-16.31,4.91,-2.26,1.52,2.88,-8.81,-34.77,16.63,-1.00
2633.00,-9.77,-6.63,-0.69,-4.84,2.03,4.21,-8.81,-34.77,16.63,-1.00
2645.00,-9.77,-6.63,-0.69,-4.84,2.03,4.21,-8.81,-34.77,16.63,-1.00
2657.00,-10.62,-0.52,-4.94,-5.02,1.71,4.09,-8.81,-34.77,16.63,-1.00
2669.00,-10.62,-0.52,-4.94,-5.02,1.71,4.09,-8.81,-34.77,16.63,-1.00
2683.00,-5.24,-0.66,-5.81,-3.48,1.16,2.91,-8.81,-34.77,16.63,-1.00
2695.00,-4.42,-6.16,0.69,-0.88,1.14,2.44,-8.81,-34.77,16.63,-1.00
2707.00,-4.42,-6.16,0.69,-0.88,1.14,2.44,-8.81,-34.77,16.63,-1.00
2719.00,-6.16,-6.09,0.41,-0.69,1.51,2.87,-8.81,-34.77,16.63,-1.00
2733.00,-9.38,-4.92,-4.60,-0.47,1.61,3.39,-14.64,-35.27,5.58,-1.00
2745.00,-9.38,-4.92,-4.60,-0.47,1.61,3.39,-14.64,-35.27,5.58,-1.00
2757.00,-13.37,-4.82,-3.72,0.37,1.18,3.28,-14.64,-35.27,5.58,-1.00
2771.00,-13.37,-4.82,-3.72,0.37,1.18,3.28,-14.64,-35.27,5.58,-1.00
2783.00,-9.09,-3.61,0.38,0.44,1.15,2.32,-14.64,-35.27,5.58,-1.00
2795.00,-5.48,-6.74,-0.91,0.35,1.35,1.84,-14.64,-35.27,5.58,-1.00
2807.00,-5.48,-6.74,-0.91,0.35,1.35,1.84,-14.64,-35.27,5.58,-1.00
2821.00,-6.30,-8.39,-0.43,0.10,1.12,2.43,-14.64,-35.27,5.58,-1.00
2833.00,-8.35,-5.88,-2.18,0.01,1.38,2.96,-14.64,-35.27,5.58,-1.00
2845.00,-8.35,-5.88,-2.18,0.01,1.38,2.96,-14.64,-35.27,5.58,-1.00
2857.00,-8.80,-3.42,-3.54,0.23,1.51,2.82,-14.64,-35.27,5.58,-1.00
2872.00,-8.54,-5.34,-1.69,0.53,1.21,2.46,-16.71,-35.27,5.58,-1.00
2883.00,-8.54,-5.34,-1.69,0.53,1.21,2.46,-16.71,-34.77,6.09,-1.00
2895.00,-8.19,-6.23,0.05,0.50,1.22,2.55,-16.71,-34.77,6.09,-1.00
2907.00,-8.19,-6.23,0.05,0.50,1.22,2.55,-16.71,-34.77,6.09,-1.00
2921.00,-9.63,-3.88,-1.32,0.35,1.52,2.75,-16.71,-34.77,6.09,-1.00
2933.00,-9.70,-3.49,-0.92,0.19,1.41,2.42,-16.71,-34.77,6.09,-1.00
2945.00,-9.70,-3.49,-0.92,0.19,1.41,2.42,-16.71,-34.77,6.09,-1.00
2957.00,-7.73,-5.92,0.33,0.16,1.39,2.14,-16.71,-34.77,6.09,-1.00
2971.00,-8.11,-5.58,-1.14,0.17,1.67,2.41,-16.71,-34.77,6.09,-1.00
2983.00,-8.11,-5.58,-1.14,0.17,1.67,2.41,-16.71,-34.77,6.09,-1.00
2995.00,-9.02,-3.85,-2.58,0.23,1.66,2.50,-18.40,-36.25,7.28,-1.00
3007.00,-9.02,-3.85,-2.58,0.23,1.66,2.50,-18.40,-36.25,7.28,-1.00
3022.00,-8.06,-5.24,-1.47,0.36,1.37,2.25,-18.40,-36.25,7.28,-1.00
3033.00,-7.56,-5.78,-1.47,0.47,1.35,2.31,-18.40,-36.25,7.28,-1.00
3045.00,-7.56,-5.78,-1.47,0.47,1.35,2.31,-18.40,-36.25,7.28,-1.00
3059.00,-11.87,-5.02,-0.95,0.53,1.42,2.55,-18.40,-36.25,7.28,-1.00
3071.00,-9.05,-4.53,0.73,0.37,1.59,2.34,-18.40,-36.25,7.28,-1.00
3083.00,-9.05,-4.53,0.73,0.37,1.59,2.34,-18.40,-36.25,7.28,-1.00
3095.00,-9.47,-4.40,0.58,0.22,1.95,2.35,-18.40,-36.25,7.28,-1.00
3109.00,-9.47,-4.40,0.58,0.22,1.95,2.35,-18.40,-36.25,7.28,-1.00
3121.00,-9.01,-5.83,0.69,-0.04,2.30,2.49,-19.53,-33.96,7.28,-1.00
3133.00,-8.93,-3.74,-1.80,-0.23,2.51,2.73,-19.53,-33.96,7.28,-1.00
3145.00,-8.93,-3.74,-1.80,-0.23,2.51,2.73,-19.53,-33.96,7.28,-1.00
3159.00,-8.56,-4.35,-2.89,-0.21,2.32,2.79,-19.53,-33.96,7.28,-1.00
3171.00,-8.60,-2.67,-3.85,-0.11,1.93,2.74,-19.53,-33.96,7.28,-1.00
3183.00,-8.60,-2.67,-3.85,-0.11,1.93,2.74,-19.53,-33.96,7.28,-1.00
3195.00,-8.45,-3.57,-2.23,0.00,1.43,2.39,-19.53,-33.96,7.28,-1.00
3210.00,-8.45,-3.57,-2.23,0.00,1.43,2.39,-19.53,-33.96,7.28,-1.00
3221.00,-8.17,-3.64,-2.82,0.10,1.14,2.02,-19.53,-33.96,7.28,-1.00
3233.00,-8.62,-3.32,-2.43,0.21,0.97,1.70,-19.34,-34.77,6.43,-1.00
3245.00,-8.62,-3.32,-2.43,0.21,0.97,1.70,-19.34,-34.77,6.43,-1.00
3259.00,-8.88,-6.48,-1.06,0.54,0.98,1.56,-19.34,-34.77,6.43,-1.00
3271.00,-8.95,-4.91,0.31,0.28,1.38,2.07,-19.34,-34.77,6.43,-1.00
3283.00,-8.95,-4.91,0.31,0.28,1.38,2.07,-19.34,-34.77,6.43,-1.00
3297.00,-9.03,-6.60,1.98,0.02,1.75,2.27,-19.34,-34.77,6.43,-1.00
3309.00,-9.03,-6.60,1.98,0.02,1.75,2.27,-19.34,-34.77,6.43,-1.00
3321.00,-8.76,-4.02,-1.16,-0.18,2.34,2.60,-19.34,-34.77,6.43,-1.00
3333.00,-8.10,-4.01,-1.88,0.04,2.72,2.72,-19.34,-34.77,6.43,-1.00
3347.00,-8.10,-4.01,-1.88,0.04,2.72,2.72,-19.34,-34.77,6.43,-1.00
3359.00,-8.69,-3.22,-2.27,0.36,2.79,2.63,-21.04,-33.63,6.60,-1.00
3371.00,-8.66,-3.69,-3.01,0.43,2.52,2.42,-21.04,-33.63,6.60,-1.00
3383.00,-8.66,-3.69,-3.01,0.43,2.52,2.42,-21.04,-33.63,6.60,-1.00
3397.00,-8.79,-4.91,-0.89,0.36,1.98,2.19,-21.04,-33.63,6.60,-1.00
3409.00,-8.79,-4.91,-0.89,0.36,1.98,2.19,-21.04,-33.63,6.60,-1.00
3421.00,-8.34,-3.78,-1.68,-0.13,1.55,2.06,-21.04,-33.63,6.60,-1.00
3433.00,-9.07,-5.05,-0.79,-0.25,1.30,1.93,-21.04,-33.63,6.60,-1.00
3447.00,-9.07,-5.05,-0.79,-0.25,1.30,1.93,-21.04,-33.63,6.60,-1.00
3459.00,-9.15,-4.24,-0.98,-0.37,1.33,2.07,-21.04,-33.63,6.60,-1.00
3471.00,-8.87,-4.92,-0.78,-0.38,1.50,2.28,-21.41,-33.96,5.58,-1.00
3483.00,-8.87,-4.92,-0.78,-0.38,1.50,2.28,-21.41,-33.96,5.58,-1.00
3497.00,-8.69,-5.12,-0.95,-0.37,1.82,2.53,-21.41,-33.96,5.58,-1.00
3509.00,-8.69,-5.12,-0.95,-0.37,1.82,2.53,-21.41,-33.96,5.58,-1.00
3521.00,-8.75,-3.86,-1.43,-0.37,2.07,2.70,-21.41,-33.96,5.58,-1.00
3535.00,-8.81,-2.90,-2.62,-0.24,2.15,2.58,-21.41,-33.96,5.58,-1.00
3622.00,-6.57,-5.54,-3.15,-0.41,1.86,0.73,-21.04,-34.61,3.21,-1.00
3711.00,-11.90,-1.81,-0.13,0.18,1.10,3.15,-21.04,-34.61,3.21,-1.00
3799.00,-9.62,-4.54,-1.27,-0.65,2.79,1.54,-20.85,-34.12,3.71,-1.00
3813.00,-6.60,-5.15,-2.44,-0.92,2.88,1.63,-20.85,-34.12,3.71,-1.00
3827.00,-6.60,-5.15,-2.44,-0.92,2.88,1.63,-20.85,-34.12,3.71,-1.00
3838.00,-2.21,-7.11,-12.01,-0.69,2.37,2.22,-20.85,-34.12,3.71,-1.00
3850.00,-6.70,-2.41,-2.75,-0.00,0.63,2.95,-20.10,-34.45,41.44,-1.00
3864.00,-6.70,-2.41,-2.75,-0.00,0.63,2.95,-20.10,-34.45,-2.06,-1.00
3876.00,-9.24,-4.80,0.33,0.23,0.77,2.65,-20.10,-34.45,-2.06,-1.00
3888.00,-9.24,-4.80,0.33,0.23,0.77,2.65,-20.10,-34.45,-2.06,-1.00
3900.00,-8.29,-5.51,-4.99,0.16,1.86,2.25,-20.10,-34.45,-2.06,-1.00
3914.00,-6.99,-4.06,-4.10,0.33,1.85,2.07,-20.10,-34.45,-2.06,-1.00
3926.00,-6.99,-4.06,-4.10,0.33,1.85,2.07,-20.10,-34.45,-2.06,-1.00
3938.00,-7.94,-4.47,-2.99,0.62,1.56,1.98,-20.10,-34.45,-2.06,-1.00
3950.00,-9.21,-4.55,-1.00,0.71,1.44,2.04,-20.10,-34.45,-2.06,-1.00
3964.00,-9.21,-4.55,-1.00,0.71,1.44,2.04,-20.10,-34.45,-2.06,-1.00
3976.00,-9.78,-4.16,-0.43,0.46,1.60,2.16,-20.10,-34.77,-0.70,-1.00
3988.00,-9.78,-4.16,-0.43,0.46,1.60,2.16,-20.10,-34.77,-0.70,-1.00
4002.00,-8.96,-3.24,-3.15,0.19,1.77,2.18,-20.10,-34.77,-0.70,-1.00
4014.00,-9.03,-4.47,-2.57,0.27,1.71,2.11,-20.10,-34.77,-0.70,-1.00
4026.00,-9.03,-4.47,-2.57,0.27,1.71,2.11,-20.10,-34.77,-0.70,-1.00
4038.00,-8.81,-3.59,-2.55,0.39,1.78,2.17,-20.10,-34.77,-0.70,-1.00
4052.00,-8.32,-4.85,-2.13,0.43,1.78,2.18,-20.10,-34.77,-0.70,-1.00
4064.00,-8.32,-4.85,-2.13,0.43,1.78,2.18,-20.10,-34.77,-0.70,-1.00
4076.00,-8.02,-4.78,-3.51,0.44,1.73,2.31,-20.10,-34.77,-0.70,-1.00
4088.00,-8.02,-4.78,-3.51,0.44,1.73,2.31,-20.10,-34.77,-0.70,-1.00
4103.00,-6.82,-6.54,-3.16,0.48,1.54,2.54,-21.41,-34.28,-0.53,-1.00
4114.00,-11.61,-1.23,-2.75,0.41,1.50,2.99,-21.41,-34.28,-0.53,-1.00
4126.00,-11.61,-1.23,-2.75,0.41,1.50,2.99,-21.41,-34.28,-0.53,-1.00
4138.00,-9.59,-4.06,0.77,0.17,1.55,2.60,-21.41,-34.28,-0.53,-1.00
4152.00,-9.32,-3.49,-1.12,-0.01,1.83,2.53,-21.41,-34.28,-0.53,-1.00
4164.00,-9.32,-3.49,-1.12,-0.01,1.83,2.53,-21.41,-34.28,-0.53,-1.00
4176.00,-8.99,-2.78,-2.46,-0.12,1.84,2.40,-21.41,-34.28,-0.53,-1.00
4190.00,-8.86,-3.03,-3.68,-0.19,1.68,2.16,-21.41,-34.28,-0.53,-1.00
4202.00,-8.86,-3.03,-3.68,-0.19,1.68,2.16,-21.41,-34.28,-0.53,-1.00
4214.00,-8.77,-3.90,-2.97,-0.09,1.49,1.99,-21.41,-34.28,-0.53,-1.00
4226.00,-8.77,-3.90,-2.97,-0.09,1.49,1.99,-21.41,-34.28,-0.53,-1.00
4240.00,-8.47,-4.53,-2.58,0.02,1.50,1.96,-21.98,-34.77,-0.02,-1.00
4252.00,-8.68,-4.03,-3.01,0.10,1.65,2.04,-21.98,-34.77,-0.02,-1.00
4264.00,-8.68,-4.03,-3.01,0.10,1.65,2.04,-21.98,-34.77,-0.02,-1.00
4276.00,-8.71,-3.95,-2.44,0.15,1.66,2.07,-21.98,-34.77,-0.02,-1.00
4291.00,-9.60,-3.48,-1.51,0.12,1.63,2.03,-21.98,-34.77,-0.02,-1.00
4302.00,-9.60,-3.48,-1.51,0.12,1.63,2.03,-21.98,-34.77,-0.02,-1.00
4314.00,-8.88,-4.33,-0.85,0.02,1.76,1.97,-21.98,-34.77,-0.02,-1.00
4328.00,-8.88,-4.33,-0.85,0.02,1.76,1.97,-21.98,-34.77,-0.02,-1.00
4340.00,-8.81,-4.11,-2.79,-0.05,1.94,2.05,-21.98,-34.77,-0.02,-1.00
4352.00,-8.72,-3.70,-3.33,-0.02,1.90,2.07,-21.98,-34.12,-1.38,-1.00
4364.00,-8.72,-3.70,-3.33,-0.02,1.90,2.07,-21.98,-34.12,-1.38,-1.00
4378.00,-7.86,-4.61,-3.37,0.06,1.85,2.03,-21.98,-34.12,-1.38,-1.00
4390.00,-8.04,-4.28,-3.54,0.21,1.81,2.15,-21.98,-34.12,-1.38,-1.00
4402.00,-8.04,-4.28,-3.54,0.21,1.81,2.15,-21.98,-34.12,-1.38,-1.00
4414.00,-8.75,-4.27,-2.20,0.31,1.71,2.24,-21.98,-34.12,-1.38,-1.00
4428.00,-8.75,-4.27,-2.20,0.31,1.71,2.24,-21.98,-34.12,-1.38,-1.00
4440.00,-9.20,-3.51,-2.44,0.27,1.70,2.26,-21.98,-34.12,-1.38,-1.00
4452.00,-8.67,-3.91,-2.06,0.23,1.70,2.14,-21.98,-34.12,-1.38,-1.00
4464.00,-8.67,-3.91,-2.06,0.23,1.70,2.14,-21.98,-34.12,-1.38,-1.00
4478.00,-8.32,-4.50,-2.49,0.24,1.73,2.11,-22.17,-33.63,-0.19,-1.00
4490.00,-8.53,-4.20,-2.70,0.30,1.76,2.21,-22.17,-33.63,-0.19,-1.00
4502.00,-8.53,-4.20,-2.70,0.30,1.76,2.21,-22.17,-33.63,-0.19,-1.00
4516.00,-8.66,-4.07,-2.66,0.33,1.76,2.26,-22.17,-33.63,-0.19,-1.00
4528.00,-8.66,-4.07,-2.66,0.33,1.76,2.26,-22.17,-33.63,-0.19,-1.00
4540.00,-8.84,-3.70,-2.98,0.35,1.69,2.26,-22.17,-33.63,-0.19,-1.00
4552.00,-8.81,-3.92,-2.60,0.35,1.60,2.20,-22.17,-33.63,-0.19,-1.00
4567.00,-8.81,-3.92,-2.60,0.35,1.60,2.20,-22.17,-33.63,-0.19,-1.00
4578.00,-7.99,-5.07,-2.75,0.34,1.58,2.22,-22.17,-33.63,-0.19,-1.00
4590.00,-10.44,-3.52,-2.27,0.38,1.61,2.49,-20.28,-33.63,-0.53,-1.00
4602.00,-10.44,-3.52,-2.27,0.38,1.61,2.49,-20.28,-33.63,-0.53,-1.00
4616.00,-9.43,-4.16,-0.26,0.31,1.60,2.42,-20.28,-33.63,-0.53,-1.00
4628.00,-9.43,-4.16,-0.26,0.31,1.60,2.42,-20.28,-33.63,-0.53,-1.00
4640.00,-9.46,-3.31,-0.83,0.12,1.72,2.38,-20.28,-33.63,-0.53,-1.00
4652.00,-9.10,-3.35,-2.14,-0.03,1.79,2.34,-20.28,-33.63,-0.53,-1.00
4666.00,-9.10,-3.35,-2.14,-0.03,1.79,2.34,-20.28,-33.63,-0.53,-1.00
4678.00,-8.73,-3.57,-3.24,-0.07,1.67,2.23,-20.28,-33.63,-0.53,-1.00
4690.00,-8.50,-3.78,-3.59,-0.03,1.46,2.03,-20.28,-33.63,-0.53,-1.00
4704.00,-8.50,-3.78,-3.59,-0.03,1.46,2.03,-20.28,-33.63,-0.53,-1.00
4716.00,-8.57,-4.51,-2.45,0.14,1.45,1.98,-22.54,-33.30,0.15,-1.00
4728.00,-8.57,-4.51,-2.45,0.14,1.45,1.98,-22.54,-33.30,0.15,-1.00
4740.00,-8.61,-3.29,-2.78,0.29,1.60,1.99,-22.54,-33.30,0.15,-1.00
4754.00,-8.81,-4.87,-1.90,0.44,1.67,1.93,-22.54,-33.30,0.15,-1.00
4766.00,-8.81,-4.87,-1.90,0.44,1.67,1.93,-22.54,-33.30,0.15,-1.00
4778.00,-9.06,-4.08,-1.98,0.39,1.81,2.14,-22.54,-33.30,0.15,-1.00
4790.00,-9.09,-4.58,-1.72,0.30,1.93,2.31,-22.54,-33.30,0.15,-1.00
4804.00,-9.09,-4.58,-1.72,0.30,1.93,2.31,-22.54,-33.30,0.15,-1.00
4816.00,-9.15,-4.09,-1.76,0.18,1.91,2.44,-22.54,-33.30,0.15,-1.00
4828.00,-9.15,-4.09,-1.76,0.18,1.91,2.44,-22.54,-33.30,0.15,-1.00
4840.00,-8.88,-4.10,-1.91,0.10,1.92,2.59,-22.54,-33.30,0.15,-1.00
4854.00,-8.98,-3.99,-1.97,-0.02,1.82,2.56,-22.35,-32.15,-1.04,-1.00
4866.00,-8.98,-3.99,-1.97,-0.02,1.82,2.56,-22.35,-32.15,-1.04,-1.00
4878.00,-9.12,-3.16,-2.76,-0.11,1.72,2.49,-22.35,-32.15,-1.04,-1.00
4890.00,-9.13,-2.77,-2.45,-0.23,1.52,2.32,-22.35,-32.15,-1.04,-1.00
4904.00,-9.13,-2.77,-2.45,-0.23,1.52,2.32,-22.35,-32.15,-1.04,-1.00
4916.00,-8.59,-3.62,-2.99,-0.29,1.41,2.10,-22.35,-32.15,-1.04,-1.00
4928.00,-8.59,-3.62,-2.99,-0.29,1.41,2.10,-22.35,-32.15,-1.04,-1.00
4942.00,-8.57,-3.81,-3.13,-0.21,1.40,2.02,-22.35,-32.15,-1.04,-1.00
4954.00,-8.51,-3.85,-3.54,-0.01,1.45,1.99,-22.35,-32.15,-1.04,-1.00
4966.00,-8.51,-3.85,-3.54,-0.01,1.45,1.99,-22.35,-32.15,-1.04,-1.00
4978.00,-8.72,-3.95,-2.72,0.24,1.43,1.93,-23.11,-33.79,-1.04,-1.00
4993.00,-8.78,-4.75,-1.90,0.43,1.55,1.96,-23.11,-33.79,-1.04,-1.00
5004.00,-8.78,-4.75,-1.90,0.43,1.55,1.96,-23.11,-33.79,-1.04,-1.00
5016.00,-8.98,-4.50,-1.52,0.51,1.77,2.06,-23.11,-33.79,-1.04,-1.00
5028.00,-8.98,-4.50,-1.52,0.51,1.77,2.06,-23.11,-33.79,-1.04,-1.00
5042.00,-9.27,-4.20,-0.92,0.41,1.90,2.22,-23.11,-33.79,-1.04,-1.00
5054.00,-9.05,-4.24,-1.60,0.23,2.07,2.41,-23.11,-33.79,-1.04,-1.00
5066.00,-9.05,-4.24,-1.60,0.23,2.07,2.41,-23.11,-33.79,-1.04,-1.00
5078.00,-9.06,-4.11,-1.93,0.12,2.07,2.54,-23.11,-33.79,-1.04,-1.00
5092.00,-9.36,-2.41,-2.76,0.05,1.97,2.58,-22.73,-33.46,-1.04,-1.00
5104.00,-9.36,-2.41,-2.76,0.05,1.97,2.58,-22.73,-33.46,-1.04,-1.00
5116.00,-8.99,-2.97,-3.63,-0.02,1.81,2.44,-22.73,-33.46,-1.04,-1.00
5130.00,-8.85,-2.36,-3.34,-0.10,1.52,2.21,-22.73,-33.46,-1.04,-1.00
5143.00,-8.85,-2.36,-3.34,-0.10,1.52,2.21,-22.73,-33.46,-1.04,-1.00
5155.00,-8.51,-3.93,-3.03,-0.06,1.38,1.92,-22.73,-33.46,-1.04,-1.00
5167.00,-8.51,-3.93,-3.03,-0.06,1.38,1.92,-22.73,-33.46,-1.04,-1.00
5181.00,-8.78,-3.74,-3.13,0.12,1.46,1.91,-22.73,-33.46,-1.04,-1.00
5193.00,-8.98,-3.68,-2.23,0.24,1.52,2.04,-22.73,-33.46,-1.04,-1.00
5205.00,-8.98,-3.68,-2.23,0.24,1.52,2.04,-22.73,-33.46,-1.04,-1.00
5217.00,-9.19,-3.49,-1.33,0.26,1.65,2.19,-23.86,-31.50,0.66,-1.00
5231.00,-9.06,-4.47,-1.65,0.18,1.84,2.25,-23.86,-31.50,0.66,-1.00
5243.00,-9.06,-4.47,-1.65,0.18,1.84,2.25,-23.86,-31.50,0.66,-1.00
5255.00,-9.12,-3.68,-1.76,0.11,1.97,2.46,-23.86,-31.50,0.66,-1.00
5267.00,-9.12,-3.68,-1.76,0.11,1.97,2.46,-23.86,-31.50,0.66,-1.00
5281.00,-9.13,-3.49,-2.19,0.10,2.03,2.50,-23.86,-31.50,0.66,-1.00
5293.00,-9.02,-3.00,-2.61,0.03,1.93,2.47,-23.86,-31.50,0.66,-1.00
5305.00,-9.02,-3.00,-2.61,0.03,1.93,2.47,-23.86,-31.50,0.66,-1.00
5319.00,-9.07,-2.24,-4.00,-0.06,1.78,2.34,-23.86,-31.50,0.66,-1.00
5331.00,-8.76,-1.82,-4.10,-0.08,1.45,2.06,-22.92,-32.32,-4.27,-1.00
5343.00,-8.76,-1.82,-4.10,-0.08,1.45,2.06,-22.92,-32.32,-4.27,-1.00
5355.00,-8.63,-4.84,-2.13,0.07,1.28,1.81,-22.92,-32.32,-4.27,-1.00
5369.00,-8.75,-3.90,-3.24,0.18,1.40,1.89,-22.92,-32.32,-4.27,-1.00
5381.00,-8.75,-3.90,-3.24,0.18,1.40,1.89,-22.92,-32.32,-4.27,-1.00
5393.00,-8.98,-4.07,-1.76,0.28,1.42,2.03,-22.92,-32.32,-4.27,-1.00
5405.00,-8.98,-4.07,-1.76,0.28,1.42,2.03,-22.92,-32.32,-4.27,-1.00
5420.00,-9.16,-3.58,-1.12,0.22,1.63,2.25,-22.92,-32.32,-4.27,-1.00
5431.00,-9.17,-3.67,-1.99,0.12,1.84,2.31,-22.92,-32.32,-4.27,-1.00
5444.00,-9.17,-3.67,-1.99,0.12,1.84,2.31,-22.92,-32.32,-4.27,-1.00
5455.00,-9.05,-4.27,-1.70,0.12,1.94,2.43,-22.92,-32.32,-3.25,-1.00
5469.00,-9.29,-2.14,-3.50,0.14,2.02,2.56,-22.92,-32.32,-3.25,-1.00
5481.00,-9.29,-2.14,-3.50,0.14,2.02,2.56,-22.92,-32.32,-3.25,-1.00
5493.00,-9.26,-2.55,-3.12,0.19,1.83,2.48,-22.92,-32.32,-3.25,-1.00
5507.00,-9.26,-2.55,-3.12,0.19,1.83,2.48,-22.92,-32.32,-3.25,-1.00
5519.00,-9.10,-2.49,-3.08,0.14,1.66,2.36,-22.92,-32.32,-3.25,-1.00
5531.00,-9.06,-2.40,-2.58,0.08,1.50,2.13,-22.92,-32.32,-3.25,-1.00
5543.00,-9.06,-2.40,-2.58,0.08,1.50,2.13,-22.92,-32.32,-3.25,-1.00
5557.00,-9.05,-2.75,-2.78,0.08,1.44,1.95,-22.92,-32.32,-3.25,-1.00
5570.00,-8.83,-3.05,-3.58,0.17,1.43,1.81,-22.92,-32.32,-3.25,-1.00
5581.00,-8.83,-3.05,-3.58,0.17,1.43,1.81,-22.92,-32.32,-3.25,-1.00
5593.00,-8.88,-4.82,-1.81,0.35,1.43,1.88,-23.11,-32.81,-2.40,-1.00
5608.00,-8.88,-4.82,-1.81,0.35,1.43,1.88,-23.11,-32.81,-2.40,-1.00
5619.00,-9.17,-3.61,-1.42,0.31,1.59,2.18,-23.11,-32.81,-2.40,-1.00
5631.00,-9.21,-3.17,-2.07,0.26,1.75,2.26,-23.11,-32.81,-2.40,-1.00
5643.00,-9.21,-3.17,-2.07,0.26,1.75,2.26,-23.11,-32.81,-2.40,-1.00
5657.00,-9.17,-4.64,-1.23,0.29,1.85,2.37,-23.11,-32.81,-2.40,-1.00
5669.00,-9.40,-2.61,-3.25,0.32,2.00,2.67,-23.11,-32.81,-2.40,-1.00
5681.00,-9.40,-2.61,-3.25,0.32,2.00,2.67,-23.11,-32.81,-2.40,-1.00
5695.00,-9.72,-1.08,-3.94,0.26,1.76,2.63,-23.11,-32.81,-2.40,-1.00
5707.00,-9.72,-1.08,-3.94,0.26,1.76,2.63,-23.11,-32.81,-2.40,-1.00
5719.00,-13.45,2.52,0.14,0.17,1.32,2.21,-25.74,-30.52,-1.72,-1.00
5731.00,-13.10,-1.35,6.70,-0.33,1.75,0.86,-25.74,-30.52,-1.72,-1.00
5745.00,-13.10,-1.35,6.70,-0.33,1.75,0.86,-25.74,-30.52,-1.72,-1.00
5757.00,-7.31,-4.52,-0.10,-1.01,2.96,0.28,-25.74,-30.52,-1.72,-1.00
5769.00,-3.30,-7.17,-11.72,-0.96,2.85,0.79,-25.74,-30.52,-1.72,-1.00
5781.00,-3.30,-7.17,-11.72,-0.96,2.85,0.79,-25.74,-30.52,-1.72,-1.00
5795.00,-5.44,-4.68,-2.15,-0.27,1.34,1.79,-25.74,-30.52,-1.72,-1.00
5807.00,-5.44,-4.68,-2.15,-0.27,1.34,1.79,-25.74,-30.52,-1.72,-1.00
5819.00,-8.28,-5.17,-4.00,0.08,1.79,2.15,-25.74,-30.52,-1.72,-1.00
5831.00,-5.38,-6.08,-8.77,0.32,2.55,2.16,-21.41,-34.28,-5.63,-1.00
5845.00,-5.38,-6.08,-8.77,0.32,2.55,2.16,-21.41,-34.28,-5.63,-1.00
5857.00,-4.87,-5.69,-8.11,0.70,2.17,2.63,-21.41,-34.28,-5.63,-1.00
5869.00,-9.48,-3.25,-3.35,0.85,1.36,3.14,-21.41,-34.28,-5.63,-1.00
5884.00,-9.48,-3.25,-3.35,0.85,1.36,3.14,-21.41,-34.28,-5.63,-1.00
5895.00,-11.24,-1.64,0.15,0.76,1.17,2.97,-21.41,-34.28,-5.63,-1.00
5907.00,-11.24,-1.64,0.15,0.76,1.17,2.97,-21.41,-34.28,-5.63,-1.00
5919.00,-10.92,-2.58,0.65,0.51,1.45,2.57,-21.41,-34.28,-5.63,-1.00
5933.00,-9.89,-2.83,-1.26,0.27,1.82,2.34,-21.41,-34.28,-5.63,-1.00
6020.00,-9.43,-3.20,-1.70,0.33,1.54,2.29,-21.41,-32.97,-3.25,-1.00
6109.00,-9.23,-3.07,-2.51,0.22,1.71,2.17,-22.92,-32.97,-3.59,-1.00
6197.00,-9.01,-3.27,-2.81,0.26,1.65,2.27,-22.92,-32.97,-3.59,-1.00
6211.00,-9.21,-3.33,-2.39,0.26,1.64,2.24,-22.92,-33.30,-4.95,-1.00
6225.00,-9.21,-3.33,-2.39,0.26,1.64,2.24,-22.92,-33.30,-4.95,-1.00
6236.00,-9.13,-3.31,-2.59,0.22,1.69,2.18,-22.92,-33.30,-4.95,-1.00
6248.00,-8.94,-3.40,-2.68,0.20,1.72,2.15,-22.92,-33.30,-4.95,-1.00
6262.00,-8.94,-3.40,-2.68,0.20,1.72,2.15,-22.92,-33.30,-4.95,-1.00
6274.00,-8.87,-3.44,-3.05,0.20,1.72,2.14,-22.92,-33.30,-4.95,-1.00
6286.00,-8.87,-3.44,-3.05,0.20,1.72,2.14,-22.92,-33.30,-4.95,-1.00
6300.00,-8.72,-3.62,-3.01,0.23,1.70,2.16,-22.92,-33.30,-4.95,-1.00
6312.00,-8.85,-3.53,-2.85,0.24,1.64,2.19,-22.92,-33.30,-4.95,-1.00
6324.00,-8.85,-3.53,-2.85,0.24,1.64,2.19,-22.92,-33.30,-4.95,-1.00
6336.00,-8.89,-3.64,-2.70,0.24,1.63,2.20,-21.60,-33.14,-3.76,-1.00
6351.00,-9.12,-3.39,-2.28,0.22,1.67,2.21,-21.60,-33.14,-3.76,-1.00
6362.00,-9.12,-3.39,-2.28,0.22,1.67,2.21,-21.60,-33.14,-3.76,-1.00
6374.00,-9.10,-3.34,-2.55,0.19,1.73,2.19,-21.60,-33.14,-3.76,-1.00
6386.00,-9.10,-3.34,-2.55,0.19,1.73,2.19,-21.60,-33.14,-3.76,-1.00
6400.00,-8.95,-3.14,-3.30,0.18,1.75,2.16,-21.60,-33.14,-3.76,-1.00
6412.00,-8.73,-3.69,-3.04,0.21,1.69,2.12,-21.60,-33.14,-3.76,-1.00
6424.00,-8.73,-3.69,-3.04,0.21,1.69,2.12,-21.60,-33.14,-3.76,-1.00
6436.00,-8.86,-3.37,-2.83,0.24,1.67,2.17,-21.60,-33.14,-3.76,-1.00
6450.00,-8.88,-3.72,-2.32,0.26,1.67,2.19,-21.79,-32.65,-4.61,-1.00
6462.00,-8.88,-3.72,-2.32,0.26,1.67,2.19,-21.79,-32.65,-4.61,-1.00
6474.00,-9.01,-3.33,-2.87,0.24,1.71,2.23,-21.79,-32.65,-4.61,-1.00
6488.00,-8.87,-3.45,-2.80,0.24,1.69,2.20,-21.79,-32.65,-4.61,-1.00
6500.00,-8.87,-3.45,-2.80,0.24,1.69,2.20,-21.79,-32.65,-4.61,-1.00
6512.00,-8.96,-3.40,-2.75,0.23,1.67,2.19,-21.79,-32.65,-4.61,-1.00
6524.00,-8.96,-3.40,-2.75,0.23,1.67,2.19,-21.79,-32.65,-4.61,-1.00
6539.00,-8.93,-3.63,-2.50,0.24,1.69,2.20,-21.79,-32.65,-4.61,-1.00
6550.00,-8.93,-3.62,-2.47,0.22,1.73,2.22,-21.79,-32.65,-4.61,-1.00
6562.00,-8.93,-3.62,-2.47,0.22,1.73,2.22,-21.79,-32.65,-4.61,-1.00
6574.00,-8.82,-3.77,-2.72,0.19,1.76,2.25,-22.73,-31.50,-1.72,-1.00
6588.00,-9.05,-3.27,-2.76,0.18,1.79,2.32,-22.73,-31.50,-1.72,-1.00
6600.00,-9.05,-3.27,-2.76,0.18,1.79,2.32,-22.73,-31.50,-1.72,-1.00
6612.00,-8.99,-3.42,-2.57,0.17,1.78,2.31,-22.73,-31.50,-1.72,-1.00
6624.00,-8.99,-3.42,-2.57,0.17,1.78,2.31,-22.73,-31.50,-1.72,-1.00
6638.00,-9.03,-3.20,-2.97,0.16,1.77,2.28,-22.73,-31.50,-1.72,-1.00
6651.00,-9.08,-2.60,-3.28,0.13,1.68,2.22,-22.73,-31.50,-1.72,-1.00
6663.00,-9.08,-2.60,-3.28,0.13,1.68,2.22,-22.73,-31.50,-1.72,-1.00
6675.00,-9.05,-2.81,-3.08,0.12,1.54,2.05,-22.73,-31.50,-1.72,-1.00
6690.00,-8.79,-3.77,-2.20,0.14,1.45,1.88,-23.86,-33.14,-4.10,-1.00
6701.00,-8.79,-3.77,-2.20,0.14,1.45,1.88,-23.86,-33.14,-4.10,-1.00
6713.00,-8.69,-3.55,-2.61,0.13,1.50,1.82,-23.86,-33.14,-4.10,-1.00
6727.00,-8.74,-4.29,-3.00,0.17,1.54,1.83,-23.86,-33.14,-4.10,-1.00
6739.00,-8.74,-4.29,-3.00,0.17,1.54,1.83,-23.86,-33.14,-4.10,-1.00
6751.00,-8.90,-3.94,-2.42,0.19,1.60,2.02,-23.86,-33.14,-4.10,-1.00
6763.00,-8.90,-3.94,-2.42,0.19,1.60,2.02,-23.86,-33.14,-4.10,-1.00
6777.00,-8.89,-3.81,-2.56,0.19,1.69,2.17,-23.86,-33.14,-4.10,-1.00
6789.00,-9.06,-3.44,-2.71,0.24,1.75,2.26,-23.86,-33.14,-4.10,-1.00
6801.00,-9.06,-3.44,-2.71,0.24,1.75,2.26,-23.86,-33.14,-4.10,-1.00
6813.00,-8.91,-4.92,-1.53,0.19,1.90,2.45,-22.73,-32.81,-2.06,-1.00
6827.00,-9.04,-2.99,-1.91,0.09,2.11,2.77,-22.73,-32.81,-2.06,-1.00
6839.00,-9.04,-2.99,-1.91,0.09,2.11,2.77,-22.73,-32.81,-2.06,-1.00
6851.00,-9.08,-3.04,-2.93,0.06,2.10,2.73,-22.73,-32.81,-2.06,-1.00
6863.00,-9.08,-3.04,-2.93,0.06,2.10,2.73,-22.73,-32.81,-2.06,-1.00
6877.00,-9.03,-2.78,-3.81,0.01,1.91,2.58,-22.73,-32.81,-2.06,-1.00
6889.00,-9.14,-1.93,-3.79,-0.02,1.64,2.37,-22.73,-32.81,-2.06,-1.00
6901.00,-9.14,-1.93,-3.79,-0.02,1.64,2.37,-22.73,-32.81,-2.06,-1.00
6915.00,-9.03,-1.58,-3.68,-0.02,1.35,2.05,-22.73,-32.81,-2.06,-1.00
6927.00,-8.85,-2.57,-3.27,0.04,1.16,1.71,-22.73,-32.81,-2.06,-1.00
6939.00,-8.85,-2.57,-3.27,0.04,1.16,1.71,-22.73,-32.81,-2.06,-1.00
6951.00,-8.60,-5.08,-2.14,0.16,1.20,1.62,-24.23,-32.81,-3.42,-1.00
6965.00,-8.60,-5.08,-2.14,0.16,1.20,1.62,-24.23,-32.81,-3.42,-1.00
6977.00,-8.76,-3.16,-3.57,0.27,1.42,1.77,-24.23,-32.81,-3.42,-1.00
6989.00,-9.08,-3.55,-2.17,0.45,1.58,1.86,-24.23,-32.81,-3.42,-1.00
7001.00,-9.08,-3.55,-2.17,0.45,1.58,1.86,-24.23,-32.81,-3.42,-1.00
7015.00,-9.24,-3.55,-2.16,0.33,1.65,1.99,-24.23,-32.81,-3.42,-1.00
7027.00,-9.10,-3.64,-2.00,0.14,1.62,2.10,-24.23,-32.81,-3.42,-1.00
7039.00,-9.10,-3.64,-2.00,0.14,1.62,2.10,-24.23,-32.81,-3.42,-1.00
7051.00,-9.43,-3.04,-2.32,0.01,1.65,2.18,-24.23,-32.81,-3.42,-1.00
7065.00,-9.43,-3.04,-2.32,0.01,1.65,2.18,-24.23,-32.81,-3.42,-1.00
7077.00,-9.46,-2.45,-0.73,-0.10,1.52,2.16,-23.29,-33.63,-4.27,-1.00
7089.00,-9.15,-2.97,-3.06,-0.08,1.64,2.09,-23.29,-33.63,-4.27,-1.00
7103.00,-9.15,-2.97,-3.06,-0.08,1.64,2.09,-23.29,-33.63,-4.27,-1.00
7115.00,-11.09,-2.96,-2.36,0.00,1.78,1.99,-23.29,-33.63,-4.27,-1.00
7127.00,-7.50,-4.22,-2.82,0.05,2.09,1.81,-23.29,-33.63,-4.27,-1.00
7139.00,-7.50,-4.22,-2.82,0.05,2.09,1.81,-23.29,-33.63,-4.27,-1.00
7153.00,-8.18,-3.91,-3.34,0.14,2.04,1.98,-23.29,-33.63,-4.27,-1.00
7165.00,-8.18,-3.91,-3.34,0.14,2.04,1.98,-23.29,-33.63,-4.27,-1.00
7177.00,-7.44,-4.57,-3.69,0.18,1.88,2.08,-23.29,-33.63,-4.27,-1.00
7189.00,-8.35,-4.17,-3.06,0.27,1.73,2.25,-21.79,-32.97,-3.59,-1.00
7203.00,-8.35,-4.17,-3.06,0.27,1.73,2.25,-21.79,-32.97,-3.59,-1.00
7215.00,-8.39,-3.97,-2.86,0.32,1.68,2.33,-21.79,-32.97,-3.59,-1.00
7227.00,-8.16,-4.24,-3.21,0.37,1.67,2.44,-21.79,-32.97,-3.59,-1.00
7239.00,-8.16,-4.24,-3.21,0.37,1.67,2.44,-21.79,-32.97,-3.59,-1.00
7253.00,-8.14,-4.08,-3.28,0.44,1.63,2.66,-21.79,-32.97,-3.59,-1.00
7265.00,-8.14,-4.08,-3.28,0.44,1.63,2.66,-21.79,-32.97,-3.59,-1.00
7277.00,-11.59,-1.56,-2.15,0.40,1.55,2.82,-21.79,-32.97,-3.59,-1.00
7291.00,-9.70,-3.19,-0.51,0.24,1.61,2.54,-21.79,-32.97,-3.59,-1.00
7303.00,-9.70,-3.19,-0.51,0.24,1.61,2.54,-21.79,-32.97,-3.59,-1.00
7315.00,-9.42,-2.23,-2.46,0.17,1.74,2.47,-22.92,-32.97,-2.23,-1.00
7327.00,-9.08,-2.42,-3.37,0.12,1.58,2.28,-22.92,-32.97,-2.23,-1.00
7341.00,-9.08,-2.42,-3.37,0.12,1.58,2.28,-22.92,-32.97,-2.23,-1.00
7353.00,-8.86,-2.66,-3.80,-0.01,1.36,2.05,-22.92,-32.97,-2.23,-1.00
7365.00,-8.86,-2.66,-3.80,-0.01,1.36,2.05,-22.92,-32.97,-2.23,-1.00
7377.00,-8.75,-3.94,-2.40,0.05,1.28,1.88,-22.92,-32.97,-2.23,-1.00
7392.00,-8.85,-3.10,-2.65,0.19,1.40,1.80,-22.92,-32.97,-2.23,-1.00
7403.00,-8.85,-3.10,-2.65,0.19,1.40,1.80,-22.92,-32.97,-2.23,-1.00
7415.00,-9.00,-4.62,-1.74,0.35,1.56,1.87,-22.92,-32.97,-2.23,-1.00
7427.00,-9.04,-4.47,-1.76,0.35,1.80,2.13,-23.11,-33.14,-2.74,-1.00
7442.00,-9.04,-4.47,-1.76,0.35,1.80,2.13,-23.11,-33.14,-2.74,-1.00
7454.00,-9.14,-4.05,-1.56,0.31,1.93,2.31,-23.11,-33.14,-2.74,-1.00
7466.00,-9.34,-3.29,-1.66,0.23,1.99,2.47,-23.11,-33.14,-2.74,-1.00
7480.00,-9.34,-3.29,-1.66,0.23,1.99,2.47,-23.11,-33.14,-2.74,-1.00
7492.00,-9.13,-3.75,-2.14,0.19,2.01,2.55,-23.11,-33.14,-2.74,-1.00
7504.00,-9.13,-3.75,-2.14,0.19,2.01,2.55,-23.11,-33.14,-2.74,-1.00
7516.00,-9.32,-2.00,-2.98,0.15,1.98,2.69,-23.11,-33.14,-2.74,-1.00
7530.00,-9.30,-2.86,-2.41,0.16,1.90,2.59,-23.11,-33.14,-2.74,-1.00
7543.00,-9.30,-2.86,-2.41,0.16,1.90,2.59,-23.11,-33.14,-2.74,-1.00
7555.00,-9.37,-1.25,-3.55,-0.00,1.77,2.41,-23.11,-33.14,-2.74,-1.00
7567.00,-9.06,-2.08,-3.83,-0.06,1.43,1.93,-23.67,-31.34,-4.61,-1.00
7581.00,-9.06,-2.08,-3.83,-0.06,1.43,1.93,-23.67,-31.34,-4.61,-1.00
7670.00,-9.44,-3.77,-0.69,0.17,1.88,2.36,-23.67,-31.34,-4.61,-1.00
7758.00,-9.19,-2.01,-3.76,0.22,1.65,2.20,-22.73,-30.84,-3.42,-1.00
7845.00,-9.09,-3.68,-2.27,0.06,1.78,2.31,-24.05,-32.32,-3.25,-1.00
7859.00,-9.09,-3.68,-2.27,0.06,1.78,2.31,-24.05,-32.32,-3.25,-1.00
7871.00,-9.31,-3.14,-2.21,0.14,1.87,2.45,-24.05,-32.32,-3.25,-1.00
7883.00,-9.31,-3.14,-2.21,0.14,1.87,2.45,-24.05,-32.32,-3.25,-1.00
7897.00,-9.06,-3.75,-1.63,0.23,1.96,2.60,-24.05,-32.32,-3.25,-1.00
7909.00,-9.33,-2.41,-2.97,0.30,2.06,2.67,-24.05,-32.32,-3.25,-1.00
7921.00,-9.33,-2.41,-2.97,0.30,2.06,2.67,-24.05,-32.32,-3.25,-1.00
7933.00,-9.33,-1.47,-4.35,0.36,1.90,2.59,-24.99,-31.17,-3.76,-1.00
7947.00,-9.30,-2.39,-2.94,0.41,1.52,2.43,-24.99,-31.17,-3.76,-1.00
7959.00,-9.30,-2.39,-2.94,0.41,1.52,2.43,-24.99,-31.17,-3.76,-1.00
7971.00,-9.27,-2.64,-1.66,0.36,1.27,2.27,-24.99,-31.17,-3.76,-1.00
7983.00,-9.27,-2.64,-1.66,0.36,1.27,2.27,-24.99,-31.17,-3.76,-1.00
7997.00,-9.30,-2.65,-2.33,0.24,1.25,2.05,-24.99,-31.17,-3.76,-1.00
8009.00,-9.08,-2.98,-2.45,0.15,1.22,1.90,-24.99,-31.17,-3.76,-1.00
8021.00,-9.08,-2.98,-2.45,0.15,1.22,1.90,-24.99,-31.17,-3.76,-1.00
8033.00,-8.97,-3.56,-2.71,0.13,1.23,1.80,-24.99,-31.17,-3.76,-1.00
8047.00,-8.96,-2.87,-2.54,0.23,1.29,1.81,-23.29,-32.97,-3.25,-1.00
8059.00,-8.96,-2.87,-2.54,0.23,1.29,1.81,-23.29,-32.97,-3.25,-1.00
8071.00,-9.26,-4.59,-0.43,0.38,1.45,1.87,-23.29,-32.97,-3.25,-1.00
8085.00,-9.61,-3.53,-0.60,0.34,1.86,2.15,-23.29,-32.97,-3.25,-1.00
8097.00,-9.61,-3.53,-0.60,0.34,1.86,2.15,-23.29,-32.97,-3.25,-1.00
8109.00,-9.33,-4.31,-0.10,0.18,2.11,2.35,-23.29,-32.97,-3.25,-1.00
8121.00,-9.33,-4.31,-0.10,0.18,2.11,2.35,-23.29,-32.97,-3.25,-1.00
8136.00,-9.36,-3.13,-2.22,0.09,2.28,2.62,-23.29,-32.97,-3.25,-1.00
8147.00,-9.27,-2.28,-2.92,0.13,2.15,2.73,-23.29,-32.97,-3.25,-1.00
8159.00,-9.27,-2.28,-2.92,0.13,2.15,2.73,-23.29,-32.97,-3.25,-1.00
8171.00,-9.13,-2.52,-3.78,0.24,1.88,2.59,-23.29,-32.97,-3.25,-1.00
8185.00,-9.39,-1.19,-3.01,0.26,1.53,2.38,-23.29,-32.97,-3.25,-1.00
8197.00,-9.39,-1.19,-3.01,0.26,1.53,2.38,-23.29,-32.97,-3.25,-1.00
8209.00,-9.19,-2.18,-2.44,0.21,1.29,2.05,-23.29,-32.97,-3.25,-1.00
8221.00,-9.19,-2.18,-2.44,0.21,1.29,2.05,-23.29,-32.97,-3.25,-1.00
8235.00,-9.18,-3.74,-1.27,0.23,1.25,1.79,-23.29,-32.97,-3.25,-1.00
8247.00,-8.93,-4.38,-2.73,0.30,1.41,1.80,-23.29,-32.97,-3.25,-1.00
8259.00,-8.93,-4.38,-2.73,0.30,1.41,1.80,-23.29,-32.97,-3.25,-1.00
8273.00,-9.26,-3.99,-0.66,0.39,1.50,2.12,-23.29,-32.97,-3.25,-1.00
8285.00,-9.60,-2.59,-1.29,0.27,1.75,2.32,-23.29,-32.97,-3.25,-1.00
8297.00,-9.60,-2.59,-1.29,0.27,1.75,2.32,-23.29,-32.97,-3.25,-1.00
8309.00,-9.36,-4.67,-0.11,0.18,1.88,2.38,-24.99,-31.17,-3.08,-1.00
8324.00,-9.36,-4.67,-0.11,0.18,1.88,2.38,-24.99,-31.17,-3.08,-1.00
8335.00,-9.38,-2.19,-2.91,0.14,2.09,2.66,-24.99,-31.17,-3.08,-1.00
8347.00,-9.32,-1.87,-3.51,0.22,1.91,2.61,-24.99,-31.17,-3.08,-1.00
8359.00,-9.32,-1.87,-3.51,0.22,1.91,2.61,-24.99,-31.17,-3.08,-1.00
8373.00,-9.29,-2.07,-3.51,0.25,1.62,2.43,-24.99,-31.17,-3.08,-1.00
8385.00,-9.28,-2.33,-1.82,0.27,1.29,2.18,-24.99,-31.17,-3.08,-1.00
8397.00,-9.28,-2.33,-1.82,0.27,1.29,2.18,-24.99,-31.17,-3.08,-1.00
8409.00,-9.47,-1.95,-1.91,0.27,1.27,2.01,-24.99,-31.17,-3.08,-1.00
8423.00,-9.47,-1.95,-1.91,0.27,1.27,2.01,-24.99,-31.17,-3.08,-1.00
8435.00,-9.09,-3.34,-1.87,0.37,1.30,1.81,-24.99,-29.86,-1.04,-1.00
8447.00,-9.27,-4.08,-1.09,0.49,1.42,1.89,-24.99,-29.86,-1.04,-1.00
8459.00,-9.27,-4.08,-1.09,0.49,1.42,1.89,-24.99,-29.86,-1.04,-1.00
8474.00,-9.51,-2.95,-0.85,0.31,1.64,2.21,-24.99,-29.86,-1.04,-1.00
8485.00,-9.40,-4.01,-0.90,0.17,1.78,2.30,-24.99,-29.86,-1.04,-1.00
8497.00,-9.40,-4.01,-0.90,0.17,1.78,2.30,-24.99,-29.86,-1.04,-1.00
8511.00,-9.47,-3.09,-0.96,0.08,1.90,2.56,-24.99,-29.86,-1.04,-1.00
8600.00,-10.64,-2.47,-1.36,0.23,1.27,1.63,-24.99,-31.17,-1.72,-1.00
8688.00,-10.01,-1.87,0.41,0.13,1.72,2.19,-24.05,-31.34,-0.53,-1.00
8776.00,-8.14,-4.90,-1.34,0.23,1.28,1.59,-24.05,-31.34,-0.53,-1.00
8790.00,-7.86,-4.75,-1.95,0.17,1.34,1.86,-24.42,-33.30,-0.53,-1.00
8802.00,-7.86,-4.75,-1.95,0.17,1.34,1.86,-24.42,-33.30,-0.53,-1.00
8814.00,-8.26,-4.35,-2.51,0.22,1.38,2.15,-24.42,-33.30,-0.53,-1.00
8826.00,-9.88,-2.53,-1.78,0.22,1.34,2.30,-24.42,-33.30,-0.53,-1.00
8840.00,-9.88,-2.53,-1.78,0.22,1.34,2.30,-24.42,-33.30,-0.53,-1.00
8852.00,-9.61,-2.90,0.04,0.14,1.42,2.28,-24.42,-33.30,-0.53,-1.00
8864.00,-9.37,-4.84,0.28,0.12,1.72,2.36,-24.42,-33.30,-0.53,-1.00
8876.00,-9.37,-4.84,0.28,0.12,1.72,2.36,-24.42,-33.30,-0.53,-1.00
8890.00,-9.23,-4.24,-0.30,0.13,2.03,2.63,-24.42,-33.30,-0.53,-1.00
8902.00,-9.23,-4.24,-0.30,0.13,2.03,2.63,-24.42,-33.30,-0.53,-1.00
8915.00,-9.30,-3.45,-1.63,0.17,2.19,2.84,-24.42,-33.30,-0.53,-1.00
8928.00,-8.98,-3.64,-1.10,0.26,2.20,2.99,-24.99,-31.17,0.32,-1.00
8940.00,-8.98,-3.64,-1.10,0.26,2.20,2.99,-24.99,-31.17,0.32,-1.00
8952.00,-9.49,-1.59,-2.39,0.21,2.15,2.93,-24.99,-31.17,0.32,-1.00
8964.00,-9.44,-1.51,-3.24,0.16,1.91,2.60,-24.99,-31.17,0.32,-1.00
8978.00,-9.44,-1.51,-3.24,0.16,1.91,2.60,-24.99,-31.17,0.32,-1.00
8990.00,-9.71,-1.26,-1.85,0.17,1.59,2.23,-24.99,-31.17,0.32,-1.00
9002.00,-9.71,-1.26,-1.85,0.17,1.59,2.23,-24.99,-31.17,0.32,-1.00
9014.00,-11.48,-1.31,-1.00,0.29,1.54,1.87,-24.99,-31.17,0.32,-1.00
9028.00,-9.65,-2.25,0.03,0.24,1.72,1.45,-24.99,-31.17,0.32,-1.00
9040.00,-9.65,-2.25,0.03,0.24,1.72,1.45,-24.99,-31.17,0.32,-1.00
9052.00,-8.56,-3.58,-1.56,0.13,1.99,1.27,-24.80,-29.37,-1.55,-1.00
9064.00,-6.78,-5.20,-3.50,0.14,2.06,1.35,-24.80,-29.37,-1.55,-1.00
9079.00,-6.78,-5.20,-3.50,0.14,2.06,1.35,-24.80,-29.37,-1.55,-1.00
9090.00,-6.31,-6.04,-4.68,0.39,1.95,1.82,-24.80,-29.37,-1.55,-1.00
9102.00,-6.31,-6.04,-4.68,0.39,1.95,1.82,-24.80,-29.37,-1.55,-1.00
9114.00,-7.31,-5.39,-4.23,0.52,1.50,2.51,-24.80,-29.37,-1.55,-1.00
9128.00,-11.97,-0.38,-1.49,0.32,0.94,2.91,-24.80,-29.37,-1.55,-1.00
9140.00,-11.97,-0.38,-1.49,0.32,0.94,2.91,-24.80,-29.37,-1.55,-1.00
9152.00,-10.14,-3.17,2.89,-0.00,1.03,2.52,-24.80,-29.37,-1.55,-1.00
9166.00,-9.99,-1.34,-0.32,-0.18,1.58,2.42,-25.74,-32.48,-0.02,-1.00
9178.00,-9.99,-1.34,-0.32,-0.18,1.58,2.42,-25.74,-32.48,-0.02,-1.00
9190.00,-12.38,-0.44,-1.01,-0.12,1.68,2.09,-25.74,-32.48,-0.02,-1.00
9202.00,-12.38,-0.44,-1.01,-0.12,1.68,2.09,-25.74,-32.48,-0.02,-1.00
9216.00,-13.46,1.98,4.16,-0.18,2.12,1.29,-25.74,-32.48,-0.02,-1.00
9228.00,-10.70,-3.37,7.21,-0.67,3.14,0.46,-25.74,-32.48,-0.02,-1.00
9240.00,-10.70,-3.37,7.21,-0.67,3.14,0.46,-25.74,-32.48,-0.02,-1.00
9252.00,-7.64,-3.91,-1.25,-1.29,4.23,0.37,-25.74,-32.48,-0.02,-1.00
9266.00,-3.27,-7.24,-9.22,-1.30,4.31,0.55,-25.74,-32.48,-0.02,-1.00
9278.00,-3.27,-7.24,-9.22,-1.30,4.31,0.55,-25.74,-32.48,-0.02,-1.00
9290.00,-3.11,-6.09,-9.68,-0.73,3.26,1.58,-19.34,-34.45,-6.82,-1.00
9304.00,-4.27,-4.79,-8.91,-0.07,2.02,2.51,-19.34,-34.45,-6.82,-1.00
9316.00,-4.27,-4.79,-8.91,-0.07,2.02,2.51,-19.34,-34.45,-6.82,-1.00
9328.00,-7.31,-3.66,-5.03,0.54,1.31,2.94,-19.34,-34.45,-6.82,-1.00
9340.00,-7.31,-3.66,-5.03,0.54,1.31,2.94,-19.34,-34.45,-6.82,-1.00
9355.00,-9.85,-3.06,-4.70,0.73,1.43,2.82,-19.34,-34.45,-6.82,-1.00
9366.00,-8.07,-3.22,-5.03,0.66,1.51,2.46,-19.34,-34.45,-6.82,-1.00
9378.00,-8.07,-3.22,-5.03,0.66,1.51,2.46,-19.34,-34.45,-6.82,-1.00
9390.00,-8.67,-3.00,-2.24,0.57,1.18,2.36,-19.34,-34.45,-6.82,-1.00
9404.00,-9.43,-3.85,-2.65,0.45,1.09,2.31,-21.60,-32.81,-5.12,-1.00
9416.00,-9.43,-3.85,-2.65,0.45,1.09,2.31,-21.60,-32.81,-5.12,-1.00
9428.00,-9.47,-3.44,-2.07,0.34,1.18,2.13,-21.60,-32.81,-5.12,-1.00
9440.00,-9.47,-3.44,-2.07,0.34,1.18,2.13,-21.60,-32.81,-5.12,-1.00
9454.00,-8.27,-4.78,-2.76,0.26,1.43,1.95,-21.60,-32.81,-5.12,-1.00
9466.00,-8.74,-5.02,-2.07,0.27,1.49,2.12,-21.60,-32.81,-5.12,-1.00
9478.00,-8.74,-5.02,-2.07,0.27,1.49,2.12,-21.60,-32.81,-5.12,-1.00
9492.00,-8.84,-4.03,-2.16,0.23,1.59,2.29,-21.60,-32.81,-5.12,-1.00
9504.00,-9.86,-2.78,-1.92,0.24,1.74,2.25,-21.60,-32.81,-5.12,-1.00
9516.00,-9.86,-2.78,-1.92,0.24,1.74,2.25,-21.60,-32.81,-5.12,-1.00
9528.00,-8.97,-3.84,-1.92,0.23,1.85,2.03,-21.60,-32.81,-5.12,-1.00
9542.00,-8.97,-3.84,-1.92,0.23,1.85,2.03,-21.60,-32.81,-5.12,-1.00
9554.00,-8.37,-4.34,-2.81,0.18,1.85,2.09,-19.72,-33.14,-5.80,-1.00
9566.00,-8.50,-3.99,-3.99,0.19,1.87,2.29,-19.72,-33.14,-5.80,-1.00
9578.00,-8.50,-3.99,-3.99,0.19,1.87,2.29,-19.72,-33.14,-5.80,-1.00
9592.00,-8.63,-3.43,-3.90,0.26,1.75,2.35,-19.72,-33.14,-5.80,-1.00
9604.00,-8.96,-3.34,-3.10,0.34,1.63,2.30,-19.72,-33.14,-5.80,-1.00
9616.00,-8.96,-3.34,-3.10,0.34,1.63,2.30,-19.72,-33.14,-5.80,-1.00
9628.00,-8.85,-4.07,-2.24,0.39,1.67,2.25,-19.72,-33.14,-5.80,-1.00
9642.00,-8.85,-4.07,-2.24,0.39,1.67,2.25,-19.72,-33.14,-5.80,-1.00
9655.00,-8.02,-4.71,-2.86,0.35,1.78,2.35,-19.72,-33.14,-5.80,-1.00
9667.00,-7.36,-4.73,-3.88,0.32,1.75,2.65,-19.34,-31.83,-4.44,-1.00
9679.00,-7.36,-4.73,-3.88,0.32,1.75,2.65,-19.34,-31.83,-4.44,-1.00
9693.00,-13.27,-1.59,-1.21,0.32,1.54,3.01,-19.34,-31.83,-4.44,-1.00
9705.00,-9.73,-3.56,0.36,0.18,1.53,2.56,-19.34,-31.83,-4.44,-1.00
9717.00,-9.73,-3.56,0.36,0.18,1.53,2.56,-19.34,-31.83,-4.44,-1.00
9731.00,-9.38,-1.82,-2.49,0.00,1.69,2.31,-19.34,-31.83,-4.44,-1.00
9743.00,-8.57,-3.44,-3.79,-0.01,1.53,1.96,-19.34,-31.83,-4.44,-1.00
9755.00,-8.57,-3.44,-3.79,-0.01,1.53,1.96,-19.34,-31.83,-4.44,-1.00
9767.00,-8.39,-3.22,-4.12,0.11,1.47,1.88,-19.34,-31.83,-4.44,-1.00
9782.00,-8.39,-3.22,-4.12,0.11,1.47,1.88,-19.34,-31.83,-4.44,-1.00
9793.00,-8.77,-4.73,-2.92,0.23,1.44,1.83,-20.28,-33.30,-4.95,-1.00
9805.00,-9.07,-3.93,-2.65,0.30,1.49,1.95,-20.28,-33.30,-4.95,-1.00
9817.00,-9.07,-3.93,-2.65,0.30,1.49,1.95,-20.28,-33.30,-4.95,-1.00
9831.00,-9.41,-2.67,-1.77,0.25,1.56,2.16,-20.28,-33.30,-4.95,-1.00
9843.00,-9.28,-3.94,-1.84,0.16,1.66,2.22,-20.28,-33.30,-4.95,-1.00
9855.00,-9.28,-3.94,-1.84,0.16,1.66,2.22,-20.28,-33.30,-4.95,-1.00
9867.00,-9.09,-5.06,-0.41,0.04,1.73,2.41,-20.28,-33.30,-4.95,-1.00
9881.00,-9.09,-5.06,-0.41,0.04,1.73,2.41,-20.28,-33.30,-4.95,-1.00
9893.00,-9.04,-3.79,-2.44,-0.13,1.88,2.63,-20.28,-33.30,-4.95,-1.00
9905.00,-8.56,-2.49,-3.87,-0.10,1.94,2.69,-20.66,-32.65,-6.65,-1.00
9919.00,-8.56,-2.49,-3.87,-0.10,1.94,2.69,-20.66,-32.65,-6.65,-1.00
9931.00,-8.44,-3.81,-4.79,0.18,1.90,2.44,-20.66,-32.65,-6.65,-1.00
9943.00,-8.82,-2.08,-3.80,0.32,1.75,2.32,-20.66,-32.65,-6.65,-1.00
9955.00,-8.82,-2.08,-3.80,0.32,1.75,2.32,-20.66,-32.65,-6.65,-1.00
9970.00,-8.93,-3.13,-3.06,0.40,1.70,2.09,-20.66,-32.65,-6.65,-1.00
9981.00,-8.93,-3.13,-3.06,0.40,1.70,2.09,-20.66,-32.65,-6.65,-1.00
9993.00,-9.38,-3.62,-0.99,0.39,1.57,2.02,-20.66,-32.65,-6.65,-1.00
10005.00,-9.39,-3.82,-0.74,0.22,1.63,2.09,-20.66,-32.65,-6.65,-1.00
10019.00,-9.39,-3.82,-0.74,0.22,1.63,2.09,-20.66,-32.65,-6.65,-1.00
10031.00,-9.39,-2.42,-2.54,-0.04,1.67,2.17,-20.28,-31.66,-3.93,-1.00
10043.00,-9.08,-2.74,-2.72,-0.16,1.47,2.02,-20.28,-31.66,-3.93,-1.00
10057.00,-9.08,-2.74,-2.72,-0.16,1.47,2.02,-20.28,-31.66,-3.93,-1.00
10069.00,-8.57,-3.06,-4.05,-0.13,1.53,1.99,-20.28,-31.66,-3.93,-1.00
10081.00,-8.57,-3.06,-4.05,-0.13,1.53,1.99,-20.28,-31.66,-3.93,-1.00
10093.00,-8.65,-3.63,-3.50,0.02,1.55,2.05,-20.28,-31.66,-3.93,-1.00
10107.00,-8.86,-2.38,-3.46,0.17,1.55,2.00,-20.28,-31.66,-3.93,-1.00
10119.00,-8.86,-2.38,-3.46,0.17,1.55,2.00,-20.28,-31.66,-3.93,-1.00
10131.00,-9.06,-4.00,-2.15,0.29,1.53,1.95,-20.28,-31.66,-3.93,-1.00
10143.00,-9.19,-3.61,-1.63,0.24,1.65,2.16,-22.17,-31.01,-5.97,-1.00
10157.00,-9.19,-3.61,-1.63,0.24,1.65,2.16,-22.17,-31.01,-5.97,-1.00
10169.00,-9.15,-3.46,-2.27,0.16,1.78,2.24,-22.17,-31.01,-5.97,-1.00
10181.00,-9.15,-3.46,-2.27,0.16,1.78,2.24,-22.17,-31.01,-5.97,-1.00
10193.00,-8.97,-4.91,-1.99,0.10,1.81,2.34,-22.17,-31.01,-5.97,-1.00
10207.00,-9.42,-1.21,-2.79,0.05,1.91,2.65,-22.17,-31.01,-5.97,-1.00
10297.00,-8.71,-3.07,-3.80,0.06,1.43,1.90,-23.29,-30.02,-6.31,-1.00
10383.00,-9.06,-3.70,-2.84,0.13,1.83,2.29,-23.29,-30.02,-6.31,-1.00
10398.00,-9.06,-3.70,-2.84,0.13,1.83,2.29,-23.29,-30.02,-6.31,-1.00
10409.00,-9.10,-4.03,-1.44,0.17,1.86,2.51,-22.92,-31.99,-6.99,-1.00
10421.00,-9.10,-4.03,-1.44,0.17,1.86,2.51,-22.92,-31.99,-6.99,-1.00
10433.00,-9.27,-2.91,-2.59,0.17,1.99,2.62,-22.92,-31.99,-6.99,-1.00
10447.00,-9.10,-2.88,-2.94,0.21,1.90,2.55,-22.92,-31.99,-6.99,-1.00
10459.00,-9.10,-2.88,-2.94,0.21,1.90,2.55,-22.92,-31.99,-6.99,-1.00
10471.00,-9.17,-2.10,-3.63,0.14,1.73,2.39,-22.92,-31.99,-6.99,-1.00
10483.00,-9.00,-2.14,-3.82,0.09,1.48,2.07,-22.92,-31.99,-6.99,-1.00
10497.00,-9.00,-2.14,-3.82,0.09,1.48,2.07,-22.92,-31.99,-6.99,-1.00
10509.00,-8.80,-2.93,-3.09,0.13,1.36,1.83,-22.92,-31.99,-6.99,-1.00
10521.00,-8.80,-2.93,-3.09,0.13,1.36,1.83,-22.92,-31.99,-6.99,-1.00
10535.00,-8.67,-4.08,-3.49,0.23,1.36,1.69,-23.48,-31.50,-4.78,-1.00
10547.00,-8.92,-3.64,-2.37,0.41,1.43,1.85,-23.48,-31.50,-4.78,-1.00
10559.00,-8.92,-3.64,-2.37,0.41,1.43,1.85,-23.48,-31.50,-4.78,-1.00
10571.00,-9.45,-3.34,-1.26,0.43,1.63,2.12,-23.48,-31.50,-4.78,-1.00
10586.00,-9.48,-3.11,-0.56,0.21,1.77,2.23,-23.48,-31.50,-4.78,-1.00
10597.00,-9.48,-3.11,-0.56,0.21,1.77,2.23,-23.48,-31.50,-4.78,-1.00
10609.00,-9.26,-3.57,-2.71,0.04,1.91,2.26,-23.48,-31.50,-4.78,-1.00
10621.00,-9.26,-3.57,-2.71,0.04,1.91,2.26,-23.48,-31.50,-4.78,-1.00
10635.00,-9.24,-2.32,-3.50,0.01,1.73,2.30,-23.48,-31.50,-4.78,-1.00
10647.00,-9.02,-2.60,-3.30,0.09,1.49,2.15,-22.17,-31.99,-5.63,-1.00
10659.00,-9.02,-2.60,-3.30,0.09,1.49,2.15,-22.17,-31.99,-5.63,-1.00
10673.00,-8.79,-4.15,-2.11,0.13,1.41,2.02,-22.17,-31.99,-5.63,-1.00
10685.00,-8.91,-3.62,-2.61,0.17,1.57,2.11,-22.17,-31.99,-5.63,-1.00
10698.00,-8.91,-3.62,-2.61,0.17,1.57,2.11,-22.17,-31.99,-5.63,-1.00
10710.00,-9.07,-2.68,-3.24,0.29,1.68,2.18,-22.17,-31.99,-5.63,-1.00
10724.00,-9.30,-2.80,-2.89,0.39,1.68,2.22,-22.17,-31.99,-5.63,-1.00
10736.00,-9.30,-2.80,-2.89,0.39,1.68,2.22,-22.17,-31.99,-5.63,-1.00
10748.00,-9.08,-5.29,-1.45,0.48,1.73,2.40,-22.17,-31.99,-5.63,-1.00
10760.00,-9.08,-5.29,-1.45,0.48,1.73,2.40,-22.17,-31.99,-5.63,-1.00
10774.00,-9.37,-2.23,-2.19,0.57,1.89,2.77,-23.11,-31.50,-5.46,-1.00
10786.00,-9.61,-1.54,-2.55,0.59,1.89,2.70,-23.11,-31.50,-5.46,-1.00
10798.00,-9.61,-1.54,-2.55,0.59,1.89,2.70,-23.11,-31.50,-5.46,-1.00
10810.00,-9.38,-1.76,-3.47,0.33,1.68,2.53,-23.11,-31.50,-5.46,-1.00
10824.00,-10.77,0.50,-2.15,0.19,1.33,2.11,-23.11,-31.50,-5.46,-1.00
10836.00,-10.77,0.50,-2.15,0.19,1.33,2.11,-23.11,-31.50,-5.46,-1.00
10848.00,-12.50,-2.09,4.48,0.01,1.56,1.31,-23.11,-31.50,-5.46,-1.00
10863.00,-8.55,-4.57,0.76,-0.48,2.51,1.01,-23.11,-31.50,-5.46,-1.00
10874.00,-8.55,-4.57,0.76,-0.48,2.51,1.01,-23.11,-31.50,-5.46,-1.00
10886.00,-5.33,-5.24,-7.25,-0.59,2.55,1.36,-23.11,-31.50,-5.46,-1.00
10898.00,-5.33,-5.24,-7.25,-0.59,2.55,1.36,-23.11,-31.50,-5.46,-1.00
10912.00,-6.34,-4.76,-3.80,-0.24,1.52,2.04,-22.35,-30.52,-6.48,-1.00
10924.00,-9.21,-3.27,-3.43,-0.00,1.51,2.40,-22.35,-30.52,-6.48,-1.00
10936.00,-9.21,-3.27,-3.43,-0.00,1.51,2.40,-22.35,-30.52,-6.48,-1.00
10948.00,-7.74,-3.81,-5.96,0.18,2.03,2.28,-22.35,-30.52,-6.48,-1.00
10962.00,-6.85,-5.01,-7.98,0.38,2.11,2.29,-22.35,-30.52,-6.48,-1.00
10974.00,-6.85,-5.01,-7.98,0.38,2.11,2.29,-22.35,-30.52,-6.48,-1.00
10986.00,-8.89,-2.43,-4.07,0.52,1.53,2.52,-22.35,-30.52,-6.48,-1.00
11000.00,-8.89,-2.43,-4.07,0.52,1.53,2.52,-22.35,-30.52,-6.48,-1.00
11012.00,-9.68,-3.04,-1.03,0.54,1.29,2.44,-22.35,-30.52,-6.48,-1.00
11024.00,-10.02,-3.35,-0.08,0.39,1.42,2.40,-22.54,-31.66,-6.31,-1.00
11036.00,-10.02,-3.35,-0.08,0.39,1.42,2.40,-22.54,-31.66,-6.31,-1.00
11050.00,-10.66,-1.93,-0.84,0.22,1.68,2.38,-22.54,-31.66,-6.31,-1.00
11137.00,-8.78,-3.47,-3.08,0.21,1.74,2.17,-22.54,-31.66,-6.31,-1.00
11227.00,-8.18,-3.95,-3.78,0.23,1.73,2.36,-22.73,-32.48,-6.48,-1.00
11314.00,-9.36,-1.48,-3.25,0.07,1.58,2.25,-22.35,-31.83,-5.46,-1.00
11329.00,-8.91,-2.81,-3.36,0.00,1.32,1.93,-22.35,-31.83,-5.46,-1.00
11340.00,-8.91,-2.81,-3.36,0.00,1.32,1.93,-22.35,-31.83,-5.46,-1.00
11352.00,-8.78,-3.45,-2.41,-0.03,1.20,1.77,-22.35,-31.83,-5.46,-1.00
11366.00,-9.12,-2.53,-2.72,-0.00,1.33,1.65,-22.35,-31.83,-5.46,-1.00
11378.00,-9.12,-2.53,-2.72,-0.00,1.33,1.65,-22.35,-31.83,-5.46,-1.00
11390.00,-8.90,-3.49,-3.12,0.09,1.36,1.41,-22.35,-32.15,-6.82,-1.00
11402.00,-8.96,-4.88,-1.81,0.26,1.44,1.54,-22.35,-32.15,-6.82,-1.00
11416.00,-8.96,-4.88,-1.81,0.26,1.44,1.54,-22.35,-32.15,-6.82,-1.00
11428.00,-9.23,-3.83,-1.71,0.24,1.67,1.92,-22.35,-32.15,-6.82,-1.00
11440.00,-9.23,-3.83,-1.71,0.24,1.67,1.92,-22.35,-32.15,-6.82,-1.00
11452.00,-9.16,-3.46,-2.19,0.15,1.80,2.13,-22.35,-32.15,-6.82,-1.00
11466.00,-9.08,-3.91,-2.58,0.14,1.83,2.24,-22.35,-32.15,-6.82,-1.00
11478.00,-9.08,-3.91,-2.58,0.14,1.83,2.24,-22.35,-32.15,-6.82,-1.00
11490.00,-8.85,-4.78,-2.14,0.13,1.85,2.46,-22.35,-32.15,-6.82,-1.00
11502.00,-9.11,-2.88,-2.77,0.15,1.97,2.79,-22.92,-32.97,-5.97,-1.00
11516.00,-9.11,-2.88,-2.77,0.15,1.97,2.79,-22.92,-32.97,-5.97,-1.00
11528.00,-9.04,-3.98,-1.56,0.18,1.96,2.80,-22.92,-32.97,-5.97,-1.00
11540.00,-9.12,-2.79,-2.87,0.14,2.05,2.87,-22.92,-32.97,-5.97,-1.00
11554.00,-9.12,-2.79,-2.87,0.14,2.05,2.87,-22.92,-32.97,-5.97,-1.00
11566.00,-9.02,-2.77,-3.83,0.15,1.97,2.79,-22.92,-32.97,-5.97,-1.00
11578.00,-9.02,-2.77,-3.83,0.15,1.97,2.79,-22.92,-32.97,-5.97,-1.00
11590.00,-9.20,-2.66,-3.06,0.25,1.71,2.58,-22.92,-32.97,-5.97,-1.00
11605.00,-9.39,-1.85,-3.21,0.24,1.52,2.39,-22.92,-32.97,-5.97,-1.00
11616.00,-9.39,-1.85,-3.21,0.24,1.52,2.39,-22.92,-32.97,-5.97,-1.00
11628.00,-9.39,-1.49,-2.44,0.12,1.32,2.16,-22.92,-32.97,-5.97,-1.00
11640.00,-9.11,-2.29,-2.86,0.05,1.25,1.84,-24.23,-29.86,-5.80,-1.00
11654.00,-9.11,-2.29,-2.86,0.05,1.25,1.84,-24.23,-29.86,-5.80,-1.00
11666.00,-8.75,-4.35,-2.66,0.11,1.29,1.69,-24.23,-29.86,-5.80,-1.00
11678.00,-8.75,-4.35,-2.66,0.11,1.29,1.69,-24.23,-29.86,-5.80,-1.00
11692.00,-8.94,-3.27,-3.01,0.19,1.43,1.83,-24.23,-29.86,-5.80,-1.00
11704.00,-9.12,-3.57,-1.98,0.31,1.51,1.90,-24.23,-29.86,-5.80,-1.00
11716.00,-9.12,-3.57,-1.98,0.31,1.51,1.90,-24.23,-29.86,-5.80,-1.00
11728.00,-9.39,-3.42,-1.18,0.28,1.69,2.07,-24.23,-29.86,-5.80,-1.00
11742.00,-9.23,-3.80,-1.39,0.20,1.93,2.21,-24.23,-29.86,-5.80,-1.00
11754.00,-9.23,-3.80,-1.39,0.20,1.93,2.21,-24.23,-29.86,-5.80,-1.00
11766.00,-9.16,-3.62,-2.41,0.15,2.08,2.37,-22.35,-31.17,-7.16,-1.00
11778.00,-9.16,-3.62,-2.41,0.15,2.08,2.37,-22.35,-31.17,-7.16,-1.00
11792.00,-9.20,-3.09,-2.83,0.21,2.07,2.54,-22.35,-31.17,-7.16,-1.00
11804.00,-9.40,-2.06,-3.06,0.26,1.97,2.65,-22.35,-31.17,-7.16,-1.00
11816.00,-9.40,-2.06,-3.06,0.26,1.97,2.65,-22.35,-31.17,-7.16,-1.00
11830.00,-9.18,-2.51,-2.23,0.28,1.79,2.56,-22.35,-31.17,-7.16,-1.00
11842.00,-9.14,-2.77,-3.43,0.19,1.66,2.34,-22.35,-31.17,-7.16,-1.00
11854.00,-9.14,-2.77,-3.43,0.19,1.66,2.34,-22.35,-31.17,-7.16,-1.00
11866.00,-9.20,-2.30,-2.98,0.09,1.42,2.10,-22.35,-31.17,-7.16,-1.00
11881.00,-8.94,-2.78,-3.31,0.14,1.33,1.87,-25.17,-29.70,-6.31,-1.00
11892.00,-8.94,-2.78,-3.31,0.14,1.33,1.87,-25.17,-29.70,-6.31,-1.00
11904.00,-8.94,-3.78,-2.92,0.28,1.33,1.86,-25.17,-29.70,-6.31,-1.00
11916.00,-8.94,-3.78,-2.92,0.28,1.33,1.86,-25.17,-29.70,-6.31,-1.00
11930.00,-9.28,-3.20,-1.58,0.30,1.42,2.11,-25.17,-29.70,-6.31,-1.00
11942.00,-9.63,-2.82,-1.36,0.30,1.61,2.27,-25.17,-29.70,-6.31,-1.00
11954.00,-9.63,-2.82,-1.36,0.30,1.61,2.27,-25.17,-29.70,-6.31,-1.00
11966.00,-9.33,-3.66,-0.85,0.39,1.70,2.40,-25.17,-29.70,-6.31,-1.00
11980.00,-9.08,-2.71,-2.70,0.37,1.86,2.53,-25.17,-29.70,-6.31,-1.00
11992.00,-9.08,-2.71,-2.70,0.37,1.86,2.53,-25.17,-29.70,-6.31,-1.00
12004.00,-8.98,-2.23,-3.94,0.29,1.89,2.49,-24.80,-29.70,-5.29,-1.00
12018.00,-8.98,-2.23,-3.94,0.29,1.89,2.49,-24.80,-29.70,-5.29,-1.00
12030.00,-9.08,-1.97,-4.05,0.39,1.71,2.34,-24.80,-29.70,-5.29,-1.00
12042.00,-9.40,-1.53,-2.19,0.51,1.62,2.07,-24.80,-29.70,-5.29,-1.00
12054.00,-9.40,-1.53,-2.19,0.51,1.62,2.07,-24.80,-29.70,-5.29,-1.00
12069.00,-9.76,-2.00,0.83,0.51,1.78,1.81,-24.80,-29.70,-5.29,-1.00
12080.00,-11.77,-2.90,0.18,0.33,2.15,1.72,-24.80,-29.70,-5.29,-1.00
12092.00,-11.77,-2.90,0.18,0.33,2.15,1.72,-24.80,-29.70,-5.29,-1.00
12104.00,-13.16,0.96,0.77,-0.10,2.30,1.39,-24.80,-29.70,-5.29,-1.00
12118.00,-13.16,0.96,0.77,-0.10,2.30,1.39,-24.80,-29.70,-5.29,-1.00
12130.00,-6.82,-5.75,-1.23,-0.46,2.57,0.86,-22.73,-32.81,-7.84,-1.00
12142.00,-6.27,-4.33,-7.10,-0.52,2.44,1.46,-22.73,-32.81,-7.84,-1.00
12156.00,-6.27,-4.33,-7.10,-0.52,2.44,1.46,-22.73,-32.81,-7.84,-1.00
12168.00,-7.17,-4.37,-3.15,-0.22,1.47,1.98,-22.73,-32.81,-7.84,-1.00
12180.00,-9.04,-3.37,-2.40,-0.17,1.29,2.26,-22.73,-32.81,-7.84,-1.00
12192.00,-9.04,-3.37,-2.40,-0.17,1.29,2.26,-22.73,-32.81,-7.84,-1.00
12206.00,-8.19,-3.67,-3.43,-0.21,1.54,2.18,-22.73,-32.81,-7.84,-1.00
12218.00,-8.19,-3.67,-3.43,-0.21,1.54,2.18,-22.73,-32.81,-7.84,-1.00
12230.00,-7.42,-3.86,-5.41,-0.14,1.84,2.12,-22.73,-32.81,-7.84,-1.00
12242.00,-6.75,-4.85,-8.10,0.19,2.06,2.11,-22.73,-32.81,-7.84,-1.00
12256.00,-6.75,-4.85,-8.10,0.19,2.06,2.11,-22.73,-32.81,-7.84,-1.00
12268.00,-8.27,-3.08,-3.68,0.46,1.69,2.30,-21.60,-32.48,-7.84,-1.00
12280.00,-10.37,-2.74,-0.90,0.47,1.44,2.34,-21.60,-32.48,-7.84,-1.00
12294.00,-10.37,-2.74,-0.90,0.47,1.44,2.34,-21.60,-32.48,-7.84,-1.00
12306.00,-10.27,-2.93,-0.20,0.29,1.52,2.23,-21.60,-32.48,-7.84,-1.00
12318.00,-10.27,-2.93,-0.20,0.29,1.52,2.23,-21.60,-32.48,-7.84,-1.00
12330.00,-9.18,-3.49,-2.13,0.15,1.79,2.21,-21.60,-32.48,-7.84,-1.00
12345.00,-9.17,-3.25,-2.89,0.14,1.81,2.32,-21.60,-32.48,-7.84,-1.00
12356.00,-9.17,-3.25,-2.89,0.14,1.81,2.32,-21.60,-32.48,-7.84,-1.00
12368.00,-9.26,-3.02,-2.95,0.17,1.72,2.36,-21.60,-32.48,-7.84,-1.00
12380.00,-9.60,-2.75,-2.48,0.12,1.64,2.29,-21.04,-31.01,-8.69,-1.00
12394.00,-9.60,-2.75,-2.48,0.12,1.64,2.29,-21.04,-31.01,-8.69,-1.00
12406.00,-9.03,-3.03,-2.39,0.06,1.61,2.19,-21.04,-31.01,-8.69,-1.00
12418.00,-9.03,-3.03,-2.39,0.06,1.61,2.19,-21.04,-31.01,-8.69,-1.00
12430.00,-8.91,-3.01,-3.05,0.04,1.56,2.10,-21.04,-31.01,-8.69,-1.00
12444.00,-8.01,-4.01,-3.56,0.09,1.54,2.03,-21.04,-31.01,-8.69,-1.00
12456.00,-8.01,-4.01,-3.56,0.09,1.54,2.03,-21.04,-31.01,-8.69,-1.00
12468.00,-8.69,-3.86,-4.47,0.19,1.48,2.17,-21.04,-31.01,-8.69,-1.00
12482.00,-9.25,-2.78,-3.14,0.33,1.43,2.21,-21.04,-31.01,-8.69,-1.00
12494.00,-9.25,-2.78,-3.14,0.33,1.43,2.21,-21.04,-31.01,-8.69,-1.00
12506.00,-9.42,-3.16,-1.43,0.40,1.57,2.24,-22.17,-31.99,-7.33,-1.00
12518.00,-9.42,-3.16,-1.43,0.40,1.57,2.24,-22.17,-31.99,-7.33,-1.00
12532.00,-9.52,-3.49,-1.12,0.36,1.83,2.41,-22.17,-31.99,-7.33,-1.00
12544.00,-9.24,-3.77,-1.37,0.23,2.03,2.61,-22.17,-31.99,-7.33,-1.00
12556.00,-9.24,-3.77,-1.37,0.23,2.03,2.61,-22.17,-31.99,-7.33,-1.00
12568.00,-9.51,-1.50,-3.66,0.13,2.11,2.73,-22.17,-31.99,-7.33,-1.00
12582.00,-9.50,-1.94,-2.97,0.11,1.84,2.55,-22.17,-31.99,-7.33,-1.00
12594.00,-9.50,-1.94,-2.97,0.11,1.84,2.55,-22.17,-31.99,-7.33,-1.00
12606.00,-9.59,-0.76,-2.97,0.08,1.59,2.33,-22.17,-31.99,-7.33,-1.00
12620.00,-9.90,-2.84,-2.05,0.01,1.38,1.87,-23.11,-31.50,-8.86,-1.00
12632.00,-9.90,-2.84,-2.05,0.01,1.38,1.87,-23.11,-31.50,-8.86,-1.00
12644.00,-7.82,-3.98,-3.88,-0.12,1.52,1.65,-23.11,-31.50,-8.86,-1.00
12656.00,-7.82,-3.98,-3.88,-0.12,1.52,1.65,-23.11,-31.50,-8.86,-1.00
12671.00,-6.85,-4.81,-4.87,0.01,1.52,1.85,-23.11,-31.50,-8.86,-1.00
12682.00,-9.53,-3.33,-4.32,0.22,1.38,2.21,-23.11,-31.50,-8.86,-1.00
12694.00,-9.53,-3.33,-4.32,0.22,1.38,2.21,-23.11,-31.50,-8.86,-1.00
12706.00,-9.37,-3.02,-1.80,0.36,1.38,2.13,-23.11,-31.50,-8.86,-1.00
12720.00,-9.51,-3.24,-0.53,0.43,1.68,2.20,-23.11,-31.50,-8.86,-1.00
12809.00,-9.35,-1.25,-3.93,0.17,1.79,2.63,-21.60,-30.52,-7.16,-1.00
12898.00,-8.69,-3.87,-2.93,0.10,1.32,1.75,-21.60,-30.52,-7.16,-1.00
12911.00,-8.88,-2.85,-3.54,0.27,1.43,1.75,-21.60,-30.52,-7.16,-1.00
12923.00,-9.14,-3.18,-1.62,0.45,1.49,1.79,-21.60,-30.52,-7.16,-1.00
12935.00,-9.14,-3.18,-1.62,0.45,1.49,1.79,-21.60,-30.52,-7.16,-1.00
12947.00,-9.31,-3.48,-0.96,0.41,1.76,2.00,-21.60,-30.52,-7.16,-1.00
12962.00,-9.46,-2.89,-1.84,0.26,2.00,2.20,-21.60,-30.52,-7.16,-1.00
12973.00,-9.46,-2.89,-1.84,0.26,2.00,2.20,-21.60,-30.52,-7.16,-1.00
12985.00,-9.04,-4.43,-2.40,0.18,2.04,2.27,-21.60,-30.52,-7.16,-1.00
12997.00,-9.04,-4.43,-2.40,0.18,2.04,2.27,-21.60,-30.52,-7.16,-1.00
13011.00,-9.21,-2.74,-3.45,0.12,1.94,2.44,-23.86,-31.17,-8.86,-1.00
13023.00,-9.44,-3.06,-2.02,0.12,1.72,2.47,-23.86,-31.17,-8.86,-1.00
13035.00,-9.44,-3.06,-2.02,0.12,1.72,2.47,-23.86,-31.17,-8.86,-1.00
13047.00,-9.88,-1.08,-1.05,0.01,1.66,2.48,-23.86,-31.17,-8.86,-1.00
13061.00,-10.01,-0.89,-1.17,-0.07,1.68,2.06,-23.86,-31.17,-8.86,-1.00
13073.00,-10.01,-0.89,-1.17,-0.07,1.68,2.06,-23.86,-31.17,-8.86,-1.00
13085.00,-11.70,-2.00,-2.43,-0.08,1.89,1.60,-23.86,-31.17,-8.86,-1.00
13099.00,-7.13,-3.85,-4.53,-0.08,2.16,1.29,-23.86,-31.17,-8.86,-1.00
13111.00,-7.13,-3.85,-4.53,-0.08,2.16,1.29,-23.86,-31.17,-8.86,-1.00
13123.00,-7.49,-3.90,-5.45,0.07,1.95,1.45,-22.35,-31.83,-8.52,-1.00
13135.00,-7.49,-3.90,-5.45,0.07,1.95,1.45,-22.35,-31.83,-8.52,-1.00
13150.00,-7.29,-4.54,-4.19,0.24,1.67,1.63,-22.35,-31.83,-8.52,-1.00
13161.00,-8.58,-3.74,-2.83,0.44,1.57,1.87,-22.35,-31.83,-8.52,-1.00
13173.00,-8.58,-3.74,-2.83,0.44,1.57,1.87,-22.35,-31.83,-8.52,-1.00
13185.00,-8.90,-3.82,-2.19,0.53,1.63,2.00,-22.35,-31.83,-8.52,-1.00
13199.00,-8.75,-4.03,-2.23,0.49,1.70,2.14,-22.35,-31.83,-8.52,-1.00
13211.00,-8.75,-4.03,-2.23,0.49,1.70,2.14,-22.35,-31.83,-8.52,-1.00
13223.00,-8.38,-4.23,-2.82,0.39,1.70,2.34,-22.35,-31.83,-8.52,-1.00
13237.00,-8.38,-4.23,-2.82,0.39,1.70,2.34,-22.35,-31.83,-8.52,-1.00
13249.00,-7.83,-4.53,-2.89,0.31,1.65,2.66,-21.79,-32.65,-7.67,-1.00
13261.00,-10.84,-0.69,-2.33,0.21,1.63,2.82,-21.79,-32.65,-7.67,-1.00
13273.00,-10.84,-0.69,-2.33,0.21,1.63,2.82,-21.79,-32.65,-7.67,-1.00
13287.00,-9.56,-3.05,-1.62,0.14,1.65,2.37,-21.79,-32.65,-7.67,-1.00
13299.00,-9.17,-2.12,-3.96,-0.01,1.60,2.20,-21.79,-32.65,-7.67,-1.00
13311.00,-9.17,-2.12,-3.96,-0.01,1.60,2.20,-21.79,-32.65,-7.67,-1.00
13323.00,-8.67,-3.59,-3.84,-0.03,1.35,2.02,-21.79,-32.65,-7.67,-1.00
13337.00,-8.67,-3.59,-3.84,-0.03,1.35,2.02,-21.79,-32.65,-7.67,-1.00
13349.00,-8.94,-3.51,-2.79,0.05,1.36,2.15,-21.79,-32.65,-7.67,-1.00
13361.00,-9.35,-4.13,-0.33,0.09,1.48,2.32,-22.73,-31.83,-7.50,-1.00
13375.00,-9.35,-4.13,-0.33,0.09,1.48,2.32,-22.73,-31.83,-7.50,-1.00
13387.00,-9.81,-2.34,1.29,0.03,1.83,2.52,-22.73,-31.83,-7.50,-1.00
13399.00,-9.42,-1.34,-4.19,0.00,2.28,2.49,-22.73,-31.83,-7.50,-1.00
13411.00,-9.42,-1.34,-4.19,0.00,2.28,2.49,-22.73,-31.83,-7.50,-1.00
13426.00,-11.00,-0.58,-5.11,0.04,1.98,2.09,-22.73,-31.83,-7.50,-1.00
13437.00,-11.00,-0.58,-5.11,0.04,1.98,2.09,-22.73,-31.83,-7.50,-1.00
13449.00,-7.44,-3.95,-3.73,0.05,1.68,1.45,-22.73,-31.83,-7.50,-1.00
13461.00,-8.17,-3.65,-3.08,0.07,1.49,1.52,-22.73,-31.83,-7.50,-1.00
13475.00,-8.17,-3.65,-3.08,0.07,1.49,1.52,-22.73,-31.83,-7.50,-1.00
13487.00,-7.98,-3.64,-3.47,0.03,1.36,1.50,-21.22,-31.50,-8.86,-1.00
13499.00,-7.22,-5.73,-3.62,0.09,1.20,1.56,-21.22,-31.50,-8.86,-1.00
13513.00,-7.22,-5.73,-3.62,0.09,1.20,1.56,-21.22,-31.50,-8.86,-1.00
13525.00,-7.17,-5.27,-3.48,0.23,1.11,2.23,-21.22,-31.50,-8.86,-1.00
13537.00,-7.17,-5.27,-3.48,0.23,1.11,2.23,-21.22,-31.50,-8.86,-1.00
13549.00,-10.59,-1.00,-1.51,0.27,1.18,2.61,-21.22,-31.50,-8.86,-1.00
13563.00,-9.60,-4.00,0.39,0.23,1.48,2.37,-21.22,-31.50,-8.86,-1.00
13651.00,-9.12,-4.46,-1.74,0.38,2.10,2.90,-23.11,-31.83,-8.18,-1.00
13739.00,-8.89,-3.00,-1.62,0.07,1.77,1.34,-23.86,-29.53,-9.20,-1.00
13825.00,-14.83,-1.91,-0.47,0.49,1.20,2.78,-23.86,-29.53,-9.20,-1.00
13839.00,-10.25,-3.79,3.14,0.18,1.24,2.45,-23.86,-29.53,-9.20,-1.00
13851.00,-10.25,-3.79,3.14,0.18,1.24,2.45,-23.86,-29.53,-9.20,-1.00
13863.00,-9.86,-1.90,-2.45,-0.13,1.72,2.34,-22.92,-32.65,-8.69,-1.00
13875.00,-9.86,-1.90,-2.45,-0.13,1.72,2.34,-22.92,-32.65,-8.69,-1.00
13889.00,-9.27,-3.26,-1.71,-0.13,1.58,2.17,-22.92,-32.65,-8.69,-1.00
13901.00,-9.31,-2.08,-3.74,0.04,1.70,2.18,-22.92,-32.65,-8.69,-1.00
13913.00,-9.31,-2.08,-3.74,0.04,1.70,2.18,-22.92,-32.65,-8.69,-1.00
13927.00,-10.14,-2.65,-2.50,0.21,1.74,2.06,-22.92,-32.65,-8.69,-1.00
13939.00,-8.00,-4.05,-2.27,0.20,1.83,1.96,-22.92,-32.65,-8.69,-1.00
13951.00,-8.00,-4.05,-2.27,0.20,1.83,1.96,-22.92,-32.65,-8.69,-1.00
13963.00,-7.89,-4.35,-3.49,0.21,1.86,2.18,-22.92,-32.65,-8.69,-1.00
13977.00,-7.32,-4.51,-4.36,0.32,1.77,2.49,-23.86,-31.50,-7.50,-1.00
13989.00,-7.32,-4.51,-4.36,0.32,1.77,2.49,-23.86,-31.50,-7.50,-1.00
14001.00,-11.20,-2.00,-2.89,0.44,1.51,2.80,-23.86,-31.50,-7.50,-1.00
14013.00,-11.20,-2.00,-2.89,0.44,1.51,2.80,-23.86,-31.50,-7.50,-1.00
14028.00,-10.00,-2.10,-0.01,0.42,1.44,2.63,-23.86,-31.50,-7.50,-1.00
14039.00,-9.55,-2.43,-1.61,0.41,1.64,2.48,-23.86,-31.50,-7.50,-1.00
14051.00,-9.55,-2.43,-1.61,0.41,1.64,2.48,-23.86,-31.50,-7.50,-1.00
14065.00,-9.33,-1.82,-2.87,0.38,1.63,2.34,-23.86,-31.50,-7.50,-1.00
14077.00,-9.08,-2.76,-2.80,0.22,1.42,2.04,-23.86,-31.50,-7.50,-1.00
14089.00,-9.08,-2.76,-2.80,0.22,1.42,2.04,-23.86,-31.50,-7.50,-1.00
14101.00,-9.16,-3.17,-1.84,0.18,1.34,1.89,-23.11,-31.83,-7.84,-1.00
14115.00,-9.16,-3.17,-1.84,0.18,1.34,1.89,-23.11,-31.83,-7.84,-1.00
14127.00,-9.19,-2.74,-2.01,0.19,1.47,1.87,-23.11,-31.83,-7.84,-1.00
14139.00,-9.07,-3.97,-1.23,0.25,1.62,1.90,-23.11,-31.83,-7.84,-1.00
14151.00,-9.07,-3.97,-1.23,0.25,1.62,1.90,-23.11,-31.83,-7.84,-1.00
14165.00,-9.26,-3.29,-1.90,0.27,1.89,2.11,-23.11,-31.83,-7.84,-1.00
14177.00,-9.19,-3.34,-3.14,0.25,1.99,2.25,-23.11,-31.83,-7.84,-1.00
14189.00,-9.19,-3.34,-3.14,0.25,1.99,2.25,-23.11,-31.83,-7.84,-1.00
14203.00,-9.38,-3.10,-1.56,0.29,1.82,2.33,-23.11,-31.83,-7.84,-1.00
14215.00,-9.38,-3.10,-1.56,0.29,1.82,2.33,-23.11,-31.83,-7.84,-1.00
14227.00,-9.28,-4.06,-0.80,0.31,1.89,2.45,-23.11,-31.83,-7.84,-1.00
14239.00,-9.46,-2.20,-2.26,0.28,2.00,2.62,-23.67,-30.35,-6.65,-1.00
14253.00,-9.46,-2.20,-2.26,0.28,2.00,2.62,-23.67,-30.35,-6.65,-1.00
14265.00,-9.34,-2.68,-2.60,0.31,1.89,2.51,-23.67,-30.35,-6.65,-1.00
14277.00,-9.45,-1.49,-3.05,0.36,1.70,2.43,-23.67,-30.35,-6.65,-1.00
14289.00,-9.45,-1.49,-3.05,0.36,1.70,2.43,-23.67,-30.35,-6.65,-1.00
14305.00,-9.10,-2.26,-3.49,0.35,1.47,2.15,-23.67,-30.35,-6.65,-1.00
14316.00,-9.10,-2.26,-3.49,0.35,1.47,2.15,-23.67,-30.35,-6.65,-1.00
14328.00,-8.99,-3.23,-2.98,0.30,1.26,1.87,-23.67,-30.35,-6.65,-1.00
14340.00,-9.17,-3.40,-2.42,0.36,1.19,1.93,-23.67,-30.35,-6.65,-1.00
14354.00,-9.17,-3.40,-2.42,0.36,1.19,1.93,-23.67,-30.35,-6.65,-1.00
14366.00,-9.47,-3.15,-1.04,0.35,1.26,2.17,-23.86,-30.52,-6.48,-1.00
14378.00,-9.68,-3.14,0.34,0.33,1.42,2.31,-23.86,-30.52,-6.48,-1.00
14392.00,-9.68,-3.14,0.34,0.33,1.42,2.31,-23.86,-30.52,-6.48,-1.00
14404.00,-9.10,-4.05,-0.86,0.30,1.72,2.43,-23.86,-30.52,-6.48,-1.00
14416.00,-9.10,-4.05,-0.86,0.30,1.72,2.43,-23.86,-30.52,-6.48,-1.00
14428.00,-8.90,-3.29,-4.87,0.27,1.92,2.51,-23.86,-30.52,-6.48,-1.00
14442.00,-9.46,-2.26,-2.17,0.39,1.72,2.48,-23.86,-30.52,-6.48,-1.00
14454.00,-9.46,-2.26,-2.17,0.39,1.72,2.48,-23.86,-30.52,-6.48,-1.00
14466.00,-9.81,-1.19,-0.51,0.40,1.79,2.34,-23.86,-30.52,-6.48,-1.00
14478.00,-9.97,-0.84,-1.01,0.34,2.08,2.04,-25.74,-30.52,-5.46,-1.00
14492.00,-9.97,-0.84,-1.01,0.34,2.08,2.04,-25.74,-30.52,-5.46,-1.00
14504.00,-12.00,-1.31,-2.28,0.22,2.10,1.60,-25.74,-30.52,-5.46,-1.00
14516.00,-12.00,-1.31,-2.28,0.22,2.10,1.60,-25.74,-30.52,-5.46,-1.00
14530.00,-9.02,-2.35,-1.39,-0.02,1.86,0.98,-25.74,-30.52,-5.46,-1.00
14542.00,-6.88,-6.05,-2.60,-0.18,1.78,0.93,-25.74,-30.52,-5.46,-1.00
14554.00,-6.88,-6.05,-2.60,-0.18,1.78,0.93,-25.74,-30.52,-5.46,-1.00
14566.00,-6.64,-4.78,-5.38,-0.27,1.61,1.48,-25.74,-30.52,-5.46,-1.00
14580.00,-5.85,-5.97,-5.73,0.00,1.18,1.90,-25.74,-30.52,-5.46,-1.00
14592.00,-5.85,-5.97,-5.73,0.00,1.18,1.90,-25.74,-30.52,-5.46,-1.00
14604.00,-13.55,-4.43,-2.40,0.45,0.91,2.66,-22.73,-31.83,-6.14,-1.00
14616.00,-11.21,-2.03,6.08,0.53,1.28,2.64,-22.73,-31.83,-6.14,-1.00
14631.00,-11.21,-2.03,6.08,0.53,1.28,2.64,-22.73,-31.83,-6.14,-1.00
14642.00,-10.39,-1.69,3.55,0.27,2.39,2.41,-22.73,-31.83,-6.14,-1.00
14654.00,-10.39,-1.69,3.55,0.27,2.39,2.41,-22.73,-31.83,-6.14,-1.00
14668.00,-14.14,0.91,-3.61,0.01,3.00,2.35,-22.73,-31.83,-6.14,-1.00
14680.00,-9.26,-2.59,-1.96,-0.07,2.56,1.44,-22.73,-31.83,-6.14,-1.00
14692.00,-9.26,-2.59,-1.96,-0.07,2.56,1.44,-22.73,-31.83,-6.14,-1.00
14704.00,-6.58,-5.78,-3.92,-0.13,2.23,1.38,-22.73,-31.83,-6.14,-1.00
14718.00,-7.06,-4.78,-5.15,0.00,1.89,1.90,-22.54,-31.66,-9.03,-1.00
14730.00,-7.06,-4.78,-5.15,0.00,1.89,1.90,-22.54,-31.66,-9.03,-1.00
14742.00,-6.93,-4.85,-4.04,0.22,1.50,2.15,-22.54,-31.66,-9.03,-1.00
14754.00,-6.93,-4.85,-4.04,0.22,1.50,2.15,-22.54,-31.66,-9.03,-1.00
14768.00,-6.74,-5.30,-3.58,0.34,1.39,2.41,-22.54,-31.66,-9.03,-1.00
14780.00,-7.81,-3.75,-3.71,0.43,1.31,2.73,-22.54,-31.66,-9.03,-1.00
14792.00,-7.81,-3.75,-3.71,0.43,1.31,2.73,-22.54,-31.66,-9.03,-1.00
14806.00,-9.22,-2.61,-2.81,0.50,1.13,2.80,-22.54,-31.66,-9.03,-1.00
14818.00,-8.47,-3.89,-2.13,0.53,1.01,2.77,-22.54,-31.66,-9.03,-1.00
14830.00,-8.47,-3.89,-2.13,0.53,1.01,2.77,-22.54,-31.66,-9.03,-1.00
14842.00,-15.79,-3.25,-2.09,0.55,0.96,3.08,-23.48,-32.15,-5.46,-1.00
14856.00,-10.37,-2.36,1.55,0.41,1.01,2.90,-23.48,-32.15,-5.46,-1.00
14868.00,-10.37,-2.36,1.55,0.41,1.01,2.90,-23.48,-32.15,-5.46,-1.00
14880.00,-10.18,-2.81,3.90,0.23,1.56,2.86,-23.48,-32.15,-5.46,-1.00
14892.00,-10.18,-2.81,3.90,0.23,1.56,2.86,-23.48,-32.15,-5.46,-1.00
14907.00,-9.92,-1.28,1.39,0.04,2.65,2.97,-23.48,-32.15,-5.46,-1.00
14918.00,-18.81,9.69,-4.93,-0.07,3.14,2.38,-23.48,-32.15,-5.46,-1.00
14930.00,-18.81,9.69,-4.93,-0.07,3.14,2.38,-23.48,-32.15,-5.46,-1.00
14942.00,-10.77,-1.74,6.10,-0.39,2.79,0.15,-23.48,-32.15,-5.46,-1.00
14956.00,-9.83,-0.52,2.31,-0.93,3.80,-0.36,-23.48,-32.15,-5.46,-1.00
14968.00,-9.83,-0.52,2.31,-0.93,3.80,-0.36,-23.48,-32.15,-5.46,-1.00
14980.00,-5.91,-3.64,-2.17,-1.28,4.29,-0.78,-21.79,-32.32,-9.37,-1.00
14994.00,-5.91,-3.64,-2.17,-1.28,4.29,-0.78,-21.79,-32.32,-9.37,-1.00
15006.00,-4.67,-5.23,-5.93,-1.26,4.29,-0.80,-21.79,-32.32,-9.37,-1.00
15018.00,-3.67,-6.46,-8.92,-1.02,4.01,-0.26,-21.79,-32.32,-9.37,-1.00
15030.00,-3.67,-6.46,-8.92,-1.02,4.01,-0.26,-21.79,-32.32,-9.37,-1.00
15044.00,-3.70,-6.38,-9.43,-0.62,3.45,0.51,-21.79,-32.32,-9.37,-1.00
15057.00,-5.07,-5.37,-8.22,-0.29,2.79,1.16,-21.79,-32.32,-9.37,-1.00
15068.00,-5.07,-5.37,-8.22,-0.29,2.79,1.16,-21.79,-32.32,-9.37,-1.00
15082.00,-6.22,-5.55,-5.94,-0.08,2.20,1.47,-21.79,-32.32,-9.37,-1.00
15094.00,-6.22,-5.55,-5.94,-0.08,2.20,1.47,-21.79,-32.32,-9.37,-1.00
15106.00,-7.20,-5.75,-3.59,0.02,2.00,1.65,-10.32,-34.12,-17.36,-1.00
15118.00,-7.71,-5.08,-3.36,-0.03,2.21,1.80,-10.32,-34.12,-17.36,-1.00
15132.00,-7.71,-5.08,-3.36,-0.03,2.21,1.80,-10.32,-34.12,-17.36,-1.00
15144.00,-7.89,-4.30,-4.20,-0.11,2.48,1.76,-10.32,-34.12,-17.36,-1.00
15156.00,-6.68,-4.63,-5.47,-0.17,2.58,1.55,-10.32,-34.12,-17.36,-1.00
15168.00,-6.68,-4.63,-5.47,-0.17,2.58,1.55,-10.32,-34.12,-17.36,-1.00
15182.00,-5.40,-5.64,-6.52,-0.19,2.51,1.45,-10.32,-34.12,-17.36,-1.00
15272.00,-4.94,-4.39,-9.41,1.00,1.78,3.06,-5.05,-35.43,-18.72,-1.00
15360.00,-6.45,-6.37,-3.73,2.60,0.68,2.60,-11.26,-36.90,-11.75,-1.00
15374.00,-6.45,-6.37,-3.73,2.60,0.68,2.60,-11.26,-36.90,-11.75,-1.00
15385.00,-7.37,-4.24,-3.34,3.01,0.93,2.86,-11.26,-36.90,-11.75,-1.00
15397.00,-8.86,-4.08,-3.33,3.30,1.08,2.71,-11.26,-36.90,-11.75,-1.00
15409.00,-8.86,-4.08,-3.33,3.30,1.08,2.71,-11.26,-36.90,-11.75,-1.00
15423.00,-7.93,-6.02,-2.23,2.83,1.12,2.30,-11.26,-36.90,-11.75,-1.00
15435.00,-7.37,-7.76,-0.56,1.94,1.19,2.33,-11.26,-36.90,-11.75,-1.00
15447.00,-7.37,-7.76,-0.56,1.94,1.19,2.33,-11.26,-36.90,-11.75,-1.00
15459.00,-7.91,-5.56,-2.44,0.25,1.20,2.63,-11.82,-38.38,-0.36,-1.00
15473.00,-7.91,-5.56,-2.44,0.25,1.20,2.63,-11.82,-38.38,-0.36,-1.00
15485.00,-8.22,-4.77,-2.69,-0.17,1.16,2.64,-11.82,-38.38,-0.36,-1.00
15497.00,-8.36,-6.17,0.06,-0.54,1.14,2.52,-11.82,-38.38,-0.36,-1.00
15511.00,-8.36,-6.17,0.06,-0.54,1.14,2.52,-11.82,-38.38,-0.36,-1.00
15523.00,-8.50,-6.21,0.21,-1.62,1.41,2.67,-11.82,-38.38,-0.36,-1.00
15535.00,-8.77,-4.92,-2.15,-1.80,1.77,2.89,-11.82,-38.38,-0.36,-1.00
15547.00,-8.77,-4.92,-2.15,-1.80,1.77,2.89,-11.82,-38.38,-0.36,-1.00
15562.00,-8.46,-4.29,-3.79,-1.49,1.84,2.87,-11.82,-38.38,-0.36,-1.00
15573.00,-8.46,-4.29,-3.79,-1.49,1.84,2.87,-11.82,-38.38,-0.36,-1.00
15585.00,-7.52,-5.08,-3.65,-1.12,1.72,2.83,-11.82,-38.38,-0.36,-1.00
15597.00,-7.65,-4.58,-3.42,-0.79,1.66,2.98,-15.96,-34.77,-5.80,-1.00
15611.00,-7.65,-4.58,-3.42,-0.79,1.66,2.98,-15.96,-34.77,-5.80,-1.00
15623.00,-8.32,-3.51,-4.84,-0.35,1.56,2.97,-15.96,-34.77,-5.80,-1.00
15635.00,-8.36,-3.79,-3.56,-0.04,1.28,2.75,-15.96,-34.77,-5.80,-1.00
15649.00,-8.36,-3.79,-3.56,-0.04,1.28,2.75,-15.96,-34.77,-5.80,-1.00
15661.00,-8.82,-4.10,-2.07,0.07,1.24,2.58,-15.96,-34.77,-5.80,-1.00
15674.00,-8.82,-4.10,-2.07,0.07,1.24,2.58,-15.96,-34.77,-5.80,-1.00
15685.00,-9.13,-3.03,-3.10,0.08,1.44,2.47,-15.96,-34.77,-5.80,-1.00
15699.00,-8.50,-3.83,-3.13,0.18,1.52,2.29,-15.96,-34.77,-5.80,-1.00
15711.00,-8.50,-3.83,-3.13,0.18,1.52,2.29,-15.96,-34.77,-5.80,-1.00
15723.00,-8.63,-4.70,-2.37,0.29,1.64,2.36,-20.10,-34.77,-7.16,-1.00
15735.00,-9.60,-2.43,-2.49,0.28,1.79,2.59,-20.10,-34.77,-7.16,-1.00
15749.00,-9.60,-2.43,-2.49,0.28,1.79,2.59,-20.10,-34.77,-7.16,-1.00
15761.00,-9.66,-2.74,-2.18,0.31,1.82,2.40,-20.10,-34.77,-7.16,-1.00
15773.00,-9.66,-2.74,-2.18,0.31,1.82,2.40,-20.10,-34.77,-7.16,-1.00
15785.00,-8.35,-4.59,-2.12,0.23,1.78,2.27,-20.10,-34.77,-7.16,-1.00
15799.00,-8.55,-4.20,-2.93,0.15,1.83,2.41,-20.10,-34.77,-7.16,-1.00
15811.00,-8.55,-4.20,-2.93,0.15,1.83,2.41,-20.10,-34.77,-7.16,-1.00
15823.00,-8.80,-3.68,-3.52,0.13,1.83,2.41,-20.10,-34.77,-7.16,-1.00
15838.00,-8.33,-3.76,-3.96,0.16,1.74,2.26,-21.41,-33.96,-9.37,-1.00
15849.00,-8.33,-3.76,-3.96,0.16,1.74,2.26,-21.41,-33.96,-9.37,-1.00
15861.00,-8.16,-4.51,-3.24,0.25,1.68,2.23,-21.41,-33.96,-9.37,-1.00
15873.00,-8.16,-4.51,-3.24,0.25,1.68,2.23,-21.41,-33.96,-9.37,-1.00
15887.00,-8.97,-3.13,-3.57,0.33,1.73,2.32,-21.41,-33.96,-9.37,-1.00
15899.00,-8.59,-3.21,-3.63,0.37,1.66,2.15,-21.41,-33.96,-9.37,-1.00
15911.00,-8.59,-3.21,-3.63,0.37,1.66,2.15,-21.41,-33.96,-9.37,-1.00
15923.00,-8.13,-4.01,-3.53,0.41,1.56,2.01,-21.41,-33.96,-9.37,-1.00
15937.00,-8.76,-4.58,-2.47,0.40,1.46,2.15,-21.41,-33.96,-9.37,-1.00
15949.00,-8.76,-4.58,-2.47,0.40,1.46,2.15,-21.41,-33.96,-9.37,-1.00
15961.00,-9.02,-3.60,-2.38,0.32,1.49,2.29,-20.10,-34.12,-5.12,-1.00
15975.00,-9.04,-3.81,-2.19,0.28,1.54,2.25,-20.10,-34.12,-5.12,-1.00
15987.00,-9.04,-3.81,-2.19,0.28,1.54,2.25,-20.10,-34.12,-5.12,-1.00
15999.00,-8.62,-3.95,-2.99,0.31,1.69,2.24,-20.10,-34.12,-5.12,-1.00
16011.00,-8.62,-3.95,-2.99,0.31,1.69,2.24,-20.10,-34.12,-5.12,-1.00
16025.00,-8.85,-4.09,-2.95,0.39,1.71,2.32,-20.10,-34.12,-5.12,-1.00
16037.00,-9.19,-3.33,-2.64,0.37,1.69,2.37,-20.10,-34.12,-5.12,-1.00
16049.00,-9.19,-3.33,-2.64,0.37,1.69,2.37,-20.10,-34.12,-5.12,-1.00
16061.00,-8.94,-3.63,-2.35,0.32,1.69,2.29,-20.10,-34.12,-5.12,-1.00
16075.00,-9.13,-3.73,-2.14,0.29,1.73,2.28,-19.53,-32.65,-5.97,-1.00
16087.00,-9.13,-3.73,-2.14,0.29,1.73,2.28,-19.53,-32.65,-5.97,-1.00
16099.00,-8.74,-3.84,-2.55,0.27,1.78,2.35,-19.53,-32.65,-5.97,-1.00
16114.00,-8.74,-3.84,-2.55,0.27,1.78,2.35,-19.53,-32.65,-5.97,-1.00
16125.00,-8.68,-3.85,-2.73,0.18,1.68,2.43,-19.53,-32.65,-5.97,-1.00
16137.00,-8.61,-3.38,-3.24,0.10,1.52,2.47,-19.53,-32.65,-5.97,-1.00
16149.00,-8.61,-3.38,-3.24,0.10,1.52,2.47,-19.53,-32.65,-5.97,-1.00
16163.00,-8.45,-3.56,-3.31,0.14,1.32,2.45,-19.53,-32.65,-5.97,-1.00
16175.00,-8.67,-3.35,-3.46,0.18,1.21,2.39,-19.53,-32.65,-5.97,-1.00
16187.00,-8.67,-3.35,-3.46,0.18,1.21,2.39,-19.53,-32.65,-5.97,-1.00
16199.00,-9.32,-3.34,-2.64,0.15,1.19,2.25,-22.35,-34.45,-6.14,-1.00
16213.00,-9.32,-3.34,-2.64,0.15,1.19,2.25,-22.35,-34.45,-6.14,-1.00
16225.00,-9.43,-2.96,-1.57,0.21,1.37,2.11,-22.35,-34.45,-6.14,-1.00
16237.00,-8.87,-3.74,-1.91,0.24,1.62,1.95,-22.35,-34.45,-6.14,-1.00
16249.00,-8.87,-3.74,-1.91,0.24,1.62,1.95,-22.35,-34.45,-6.14,-1.00
16264.00,-9.01,-4.01,-2.57,0.28,1.79,2.04,-22.35,-34.45,-6.14,-1.00
16275.00,-9.11,-4.11,-2.32,0.33,1.87,2.24,-22.35,-34.45,-6.14,-1.00
16287.00,-9.11,-4.11,-2.32,0.33,1.87,2.24,-22.35,-34.45,-6.14,-1.00
16301.00,-9.41,-3.32,-1.68,0.30,1.97,2.43,-22.35,-34.45,-6.14,-1.00
16313.00,-9.41,-3.32,-1.68,0.30,1.97,2.43,-22.35,-34.45,-6.14,-1.00
16325.00,-9.44,-2.76,-1.95,0.15,2.03,2.57,-22.35,-34.45,-6.14,-1.00
16337.00,-9.20,-3.54,-2.14,0.06,1.99,2.55,-21.41,-31.34,-4.61,-1.00
16351.00,-9.20,-3.54,-2.14,0.06,1.99,2.55,-21.41,-31.34,-4.61,-1.00
16363.00,-9.10,-2.51,-2.97,-0.00,1.89,2.48,-21.41,-31.34,-4.61,-1.00
16375.00,-8.98,-2.68,-4.04,-0.03,1.73,2.25,-21.41,-31.34,-4.61,-1.00
16387.00,-8.98,-2.68,-4.04,-0.03,1.73,2.25,-21.41,-31.34,-4.61,-1.00
16401.00,-8.73,-3.35,-2.83,-0.02,1.43,1.97,-21.41,-31.34,-4.61,-1.00
16414.00,-8.72,-3.09,-2.76,0.03,1.43,1.86,-21.41,-31.34,-4.61,-1.00
16426.00,-8.72,-3.09,-2.76,0.03,1.43,1.86,-21.41,-31.34,-4.61,-1.00
16440.00,-8.73,-4.59,-2.52,0.11,1.51,1.84,-21.41,-31.34,-4.61,-1.00
16452.00,-8.73,-4.59,-2.52,0.11,1.51,1.84,-21.41,-31.34,-4.61,-1.00
16464.00,-9.13,-3.26,-2.39,0.18,1.66,2.14,-21.41,-32.65,-6.65,-1.00
16476.00,-9.32,-2.82,-2.56,0.18,1.75,2.25,-21.41,-32.65,-6.65,-1.00
16490.00,-9.32,-2.82,-2.56,0.18,1.75,2.25,-21.41,-32.65,-6.65,-1.00
16502.00,-9.22,-4.08,-1.29,0.13,1.88,2.43,-21.41,-32.65,-6.65,-1.00
16514.00,-9.41,-2.57,-1.95,0.06,2.08,2.67,-21.41,-32.65,-6.65,-1.00
16526.00,-9.41,-2.57,-1.95,0.06,2.08,2.67,-21.41,-32.65,-6.65,-1.00
16541.00,-9.09,-2.58,-3.37,0.03,2.06,2.54,-21.41,-32.65,-6.65,-1.00
16552.00,-9.09,-2.58,-3.37,0.03,2.06,2.54,-21.41,-32.65,-6.65,-1.00
16564.00,-8.76,-2.77,-4.62,0.00,1.85,2.31,-21.41,-32.65,-6.65,-1.00
16576.00,-8.89,-1.77,-4.26,-0.00,1.47,2.05,-22.54,-31.01,-7.33,-1.00
16590.00,-8.89,-1.77,-4.26,-0.00,1.47,2.05,-22.54,-31.01,-7.33,-1.00
16602.00,-8.86,-4.11,-1.97,0.07,1.27,1.83,-22.54,-31.01,-7.33,-1.00
16614.00,-8.99,-2.40,-3.03,0.07,1.37,1.82,-22.54,-31.01,-7.33,-1.00
16628.00,-8.99,-2.40,-3.03,0.07,1.37,1.82,-22.54,-31.01,-7.33,-1.00
16640.00,-8.86,-5.12,-1.67,0.22,1.43,1.83,-22.54,-31.01,-7.33,-1.00
16652.00,-8.86,-5.12,-1.67,0.22,1.43,1.83,-22.54,-31.01,-7.33,-1.00
16664.00,-9.06,-3.91,-1.44,0.19,1.66,2.20,-22.54,-31.01,-7.33,-1.00
16678.00,-9.14,-2.32,-3.73,0.16,1.83,2.31,-22.54,-31.01,-7.33,-1.00
16690.00,-9.14,-2.32,-3.73,0.16,1.83,2.31,-22.54,-31.01,-7.33,-1.00
16702.00,-8.95,-5.12,-2.40,0.24,1.76,2.26,-22.73,-32.81,-5.80,-1.00
16714.00,-8.97,-4.12,-0.96,0.18,1.86,2.62,-22.73,-32.81,-5.80,-1.00
16729.00,-8.97,-4.12,-0.96,0.18,1.86,2.62,-22.73,-32.81,-5.80,-1.00
16740.00,-9.18,-3.14,-2.58,0.19,2.03,2.73,-22.73,-32.81,-5.80,-1.00
16752.00,-9.18,-3.14,-2.58,0.19,2.03,2.73,-22.73,-32.81,-5.80,-1.00
16766.00,-9.26,-1.46,-3.34,0.10,1.93,2.55,-22.73,-32.81,-5.80,-1.00
16778.00,-8.89,-1.92,-5.29,0.01,1.71,2.17,-22.73,-32.81,-5.80,-1.00
16790.00,-8.89,-1.92,-5.29,0.01,1.71,2.17,-22.73,-32.81,-5.80,-1.00
16802.00,-8.69,-3.64,-3.44,0.08,1.29,1.82,-22.73,-32.81,-5.80,-1.00
16816.00,-9.11,-2.40,-3.58,0.15,1.20,1.65,-22.73,-31.83,-6.14,-1.00
16828.00,-9.11,-2.40,-3.58,0.15,1.20,1.65,-22.73,-31.83,-6.14,-1.00
16840.00,-8.81,-3.86,-2.99,0.33,1.14,1.47,-22.73,-31.83,-6.14,-1.00
16852.00,-8.81,-3.86,-2.99,0.33,1.14,1.47,-22.73,-31.83,-6.14,-1.00
16866.00,-9.29,-4.57,-0.69,0.45,1.26,1.74,-22.73,-31.83,-6.14,-1.00
16878.00,-9.46,-3.40,0.06,0.19,1.56,2.10,-22.73,-31.83,-6.14,-1.00
16890.00,-9.46,-3.40,0.06,0.19,1.56,2.10,-22.73,-31.83,-6.14,-1.00
16904.00,-9.32,-2.85,-2.91,-0.04,1.82,2.18,-22.73,-31.83,-6.14,-1.00
16916.00,-9.43,-1.54,-3.14,-0.05,1.57,2.03,-22.73,-31.83,-6.14,-1.00
16928.00,-9.43,-1.54,-3.14,-0.05,1.57,2.03,-22.73,-31.83,-6.14,-1.00
16940.00,-10.39,-4.13,-0.49,0.06,1.46,1.93,-22.73,-31.83,-6.14,-1.00
16954.00,-10.79,-1.46,-2.13,0.03,1.98,1.94,-21.22,-32.48,-5.46,-1.00
16966.00,-10.79,-1.46,-2.13,0.03,1.98,1.94,-21.22,-32.48,-5.46,-1.00
16978.00,-7.56,-4.88,-2.25,-0.01,2.05,1.63,-21.22,-32.48,-5.46,-1.00
16990.00,-7.56,-4.88,-2.25,-0.01,2.05,1.63,-21.22,-32.48,-5.46,-1.00
17005.00,-6.26,-5.25,-5.01,0.03,2.02,1.87,-21.22,-32.48,-5.46,-1.00
17016.00,-6.17,-6.16,-5.24,0.26,1.79,2.28,-21.22,-32.48,-5.46,-1.00
17028.00,-6.17,-6.16,-5.24,0.26,1.79,2.28,-21.22,-32.48,-5.46,-1.00
17042.00,-7.63,-4.28,-4.11,0.50,1.50,2.82,-21.22,-32.48,-5.46,-1.00
17054.00,-11.21,-3.11,-1.83,0.61,1.26,3.10,-21.22,-32.48,-5.46,-1.00
17066.00,-11.21,-3.11,-1.83,0.61,1.26,3.10,-21.22,-32.48,-5.46,-1.00
17078.00,-10.59,-1.24,1.32,0.40,1.32,2.79,-22.92,-31.99,-6.31,-1.00
17092.00,-10.59,-1.24,1.32,0.40,1.32,2.79,-22.92,-31.99,-6.31,-1.00
17104.00,-9.59,-3.56,0.08,0.19,1.65,2.45,-22.92,-31.99,-6.31,-1.00
17116.00,-9.38,-2.15,-3.06,0.02,1.79,2.41,-22.92,-31.99,-6.31,-1.00
17128.00,-9.38,-2.15,-3.06,0.02,1.79,2.41,-22.92,-31.99,-6.31,-1.00
17142.00,-8.87,-2.23,-4.04,-0.02,1.51,2.11,-22.92,-31.99,-6.31,-1.00
17154.00,-8.83,-3.45,-2.94,0.05,1.29,1.91,-22.92,-31.99,-6.31,-1.00
17166.00,-8.83,-3.45,-2.94,0.05,1.29,1.91,-22.92,-31.99,-6.31,-1.00
17178.00,-8.98,-2.91,-2.22,0.16,1.32,1.86,-22.92,-31.99,-6.31,-1.00
17192.00,-8.98,-2.91,-2.22,0.16,1.32,1.86,-22.92,-31.99,-6.31,-1.00
17204.00,-9.05,-3.79,-1.60,0.28,1.47,1.81,-23.67,-31.34,-5.97,-1.00
17216.00,-9.11,-4.45,-1.89,0.31,1.71,1.98,-23.67,-31.34,-5.97,-1.00
17230.00,-9.11,-4.45,-1.89,0.31,1.71,1.98,-23.67,-31.34,-5.97,-1.00
17242.00,-9.39,-3.49,-2.00,0.33,1.88,2.22,-23.67,-31.34,-5.97,-1.00
17254.00,-9.35,-2.86,-1.59,0.31,1.96,2.38,-23.67,-31.34,-5.97,-1.00
17266.00,-9.35,-2.86,-1.59,0.31,1.96,2.38,-23.67,-31.34,-5.97,-1.00
17280.00,-9.36,-3.76,-1.13,0.30,1.99,2.45,-23.67,-31.34,-5.97,-1.00
17292.00,-9.36,-3.76,-1.13,0.30,1.99,2.45,-23.67,-31.34,-5.97,-1.00
17304.00,-9.37,-2.41,-1.74,0.14,2.02,2.64,-23.67,-31.34,-5.97,-1.00
17316.00,-9.18,-4.55,-1.50,0.04,1.93,2.49,-23.11,-31.50,-5.80,-1.00
17331.00,-9.18,-4.55,-1.50,0.04,1.93,2.49,-23.11,-31.50,-5.80,-1.00
17342.00,-9.68,-0.32,-3.96,-0.06,1.81,2.43,-23.11,-31.50,-5.80,-1.00
17354.00,-10.43,-1.93,-2.90,0.02,1.38,1.92,-23.11,-31.50,-5.80,-1.00
17368.00,-10.43,-1.93,-2.90,0.02,1.38,1.92,-23.11,-31.50,-5.80,-1.00
17380.00,-8.45,-3.51,-2.42,-0.03,1.36,1.53,-23.11,-31.50,-5.80,-1.00
17392.00,-8.45,-3.51,-2.42,-0.03,1.36,1.53,-23.11,-31.50,-5.80,-1.00
17404.00,-7.88,-4.85,-2.19,-0.04,1.44,1.59,-23.11,-31.50,-5.80,-1.00
17418.00,-7.35,-4.47,-3.75,0.06,1.52,1.84,-23.11,-31.50,-5.80,-1.00
17430.00,-7.35,-4.47,-3.75,0.06,1.52,1.84,-23.11,-31.50,-5.80,-1.00
17442.00,-7.25,-4.46,-4.33,0.25,1.39,2.08,-20.85,-31.83,-6.14,-1.00
17454.00,-12.30,-2.15,-1.90,0.42,1.24,2.37,-20.85,-31.83,-6.14,-1.00
17468.00,-12.30,-2.15,-1.90,0.42,1.24,2.37,-20.85,-31.83,-6.14,-1.00
17557.00,-9.44,-2.25,-2.82,0.03,1.77,2.65,-24.05,-31.99,-6.99,-1.00
17646.00,-6.93,-5.05,-3.49,-0.57,2.50,1.11,-24.05,-31.99,-6.99,-1.00
17660.00,-5.92,-5.05,-4.99,-0.39,1.95,1.68,-24.05,-31.99,-6.99,-1.00
17671.00,-5.92,-5.05,-4.99,-0.39,1.95,1.68,-24.05,-31.99,-6.99,-1.00
17683.00,-8.04,-4.14,-3.53,-0.11,1.50,2.20,-24.05,-31.99,-6.99,-1.00
17695.00,-8.72,-3.36,-5.58,0.14,1.88,2.32,-22.17,-33.30,-8.35,-1.00
17709.00,-8.72,-3.36,-5.58,0.14,1.88,2.32,-22.17,-33.30,-8.35,-1.00
17721.00,-6.92,-4.59,-7.73,0.45,2.27,2.16,-22.17,-33.30,-8.35,-1.00
17733.00,-7.41,-3.27,-5.86,0.68,1.91,2.33,-22.17,-33.30,-8.35,-1.00
17745.00,-7.41,-3.27,-5.86,0.68,1.91,2.33,-22.17,-33.30,-8.35,-1.00
17759.00,-9.80,-3.23,-1.38,0.81,1.44,2.41,-22.17,-33.30,-8.35,-1.00
17771.00,-9.80,-3.23,-1.38,0.81,1.44,2.41,-22.17,-33.30,-8.35,-1.00
17783.00,-10.35,-2.99,0.79,0.71,1.54,2.35,-22.17,-33.30,-8.35,-1.00
17795.00,-10.23,-2.70,-0.22,0.44,1.80,2.23,-22.17,-33.30,-8.35,-1.00
17810.00,-10.23,-2.70,-0.22,0.44,1.80,2.23,-22.17,-33.30,-8.35,-1.00
17821.00,-9.39,-3.29,-1.79,0.22,1.94,2.09,-21.22,-33.79,-6.14,-1.00
17833.00,-8.25,-4.14,-3.73,0.22,1.99,2.08,-21.22,-33.79,-6.14,-1.00
17847.00,-8.25,-4.14,-3.73,0.22,1.99,2.08,-21.22,-33.79,-6.14,-1.00
17859.00,-8.46,-3.56,-4.00,0.35,1.88,2.22,-21.22,-33.79,-6.14,-1.00
17871.00,-8.46,-3.56,-4.00,0.35,1.88,2.22,-21.22,-33.79,-6.14,-1.00
17883.00,-9.07,-3.31,-2.74,0.41,1.71,2.29,-21.22,-33.79,-6.14,-1.00
17897.00,-9.12,-3.33,-2.37,0.40,1.69,2.25,-21.22,-33.79,-6.14,-1.00
17909.00,-9.12,-3.33,-2.37,0.40,1.69,2.25,-21.22,-33.79,-6.14,-1.00
17921.00,-8.35,-4.23,-2.27,0.42,1.77,2.28,-21.22,-33.79,-6.14,-1.00
17933.00,-8.06,-4.21,-2.62,0.41,1.83,2.57,-22.54,-31.01,-7.33,-1.00
17947.00,-8.06,-4.21,-2.62,0.41,1.83,2.57,-22.54,-31.01,-7.33,-1.00
17959.00,-12.19,-2.15,-1.58,0.30,1.75,2.86,-22.54,-31.01,-7.33,-1.00
17971.00,-12.19,-2.15,-1.58,0.30,1.75,2.86,-22.54,-31.01,-7.33,-1.00
17985.00,-9.82,-2.50,-0.81,0.12,1.75,2.59,-22.54,-31.01,-7.33,-1.00
17997.00,-9.23,-2.01,-2.63,0.02,1.78,2.37,-22.54,-31.01,-7.33,-1.00
18009.00,-9.23,-2.01,-2.63,0.02,1.78,2.37,-22.54,-31.01,-7.33,-1.00
18021.00,-8.77,-2.39,-4.30,-0.01,1.63,2.08,-22.54,-31.01,-7.33,-1.00
18035.00,-8.66,-3.65,-3.22,0.04,1.43,1.86,-22.54,-31.01,-7.33,-1.00
18047.00,-8.66,-3.65,-3.22,0.04,1.43,1.86,-22.54,-31.01,-7.33,-1.00
18059.00,-8.85,-2.56,-3.28,0.09,1.46,1.83,-22.35,-31.17,-7.16,-1.00
18071.00,-8.85,-2.56,-3.28,0.09,1.46,1.83,-22.35,-31.17,-7.16,-1.00
18086.00,-8.93,-4.28,-2.36,0.23,1.44,1.71,-22.35,-31.17,-7.16,-1.00
18097.00,-9.13,-3.29,-2.28,0.24,1.57,1.97,-22.35,-31.17,-7.16,-1.00
18109.00,-9.13,-3.29,-2.28,0.24,1.57,1.97,-22.35,-31.17,-7.16,-1.00
18123.00,-9.22,-3.53,-1.89,0.20,1.69,2.17,-22.35,-31.17,-7.16,-1.00
18135.00,-9.20,-3.22,-2.80,0.13,1.76,2.23,-22.35,-31.17,-7.16,-1.00
18147.00,-9.20,-3.22,-2.80,0.13,1.76,2.23,-22.35,-31.17,-7.16,-1.00
18159.00,-9.16,-4.03,-1.86,0.10,1.75,2.34,-22.35,-31.17,-7.16,-1.00
18173.00,-9.17,-3.19,-1.91,0.10,1.87,2.58,-21.98,-31.50,-4.78,-1.00
18185.00,-9.17,-3.19,-1.91,0.10,1.87,2.58,-21.98,-31.50,-4.78,-1.00
18197.00,-9.28,-2.32,-2.49,0.08,1.94,2.64,-21.98,-31.50,-4.78,-1.00
18209.00,-9.28,-2.32,-2.49,0.08,1.94,2.64,-21.98,-31.50,-4.78,-1.00
18223.00,-9.15,-2.47,-2.86,0.05,1.85,2.51,-21.98,-31.50,-4.78,-1.00
18235.00,-9.09,-2.55,-3.26,0.08,1.70,2.32,-21.98,-31.50,-4.78,-1.00
18247.00,-9.09,-2.55,-3.26,0.08,1.70,2.32,-21.98,-31.50,-4.78,-1.00
18259.00,-9.07,-2.55,-3.33,0.12,1.56,2.14,-21.98,-31.50,-4.78,-1.00
18273.00,-9.05,-2.90,-2.37,0.19,1.42,1.94,-21.98,-31.50,-4.78,-1.00
18285.00,-9.05,-2.90,-2.37,0.19,1.42,1.94,-21.98,-31.50,-4.78,-1.00
18297.00,-9.07,-2.78,-2.40,0.24,1.46,1.88,-21.98,-31.50,-4.78,-1.00
18311.00,-9.07,-2.78,-2.40,0.24,1.46,1.88,-21.98,-31.50,-4.78,-1.00
18323.00,-8.89,-4.00,-2.48,0.24,1.50,1.82,-22.17,-31.34,-7.33,-1.00
18335.00,-9.10,-3.75,-2.09,0.21,1.56,1.99,-22.17,-31.34,-7.33,-1.00
18347.00,-9.10,-3.75,-2.09,0.21,1.56,1.99,-22.17,-31.34,-7.33,-1.00
18362.00,-9.21,-3.53,-1.56,0.16,1.68,2.21,-22.17,-31.34,-7.33,-1.00
18373.00,-9.35,-2.54,-2.68,0.14,1.81,2.28,-22.17,-31.34,-7.33,-1.00
18385.00,-9.35,-2.54,-2.68,0.14,1.81,2.28,-22.17,-31.34,-7.33,-1.00
18397.00,-9.25,-4.20,-2.03,0.16,1.83,2.33,-22.17,-31.34,-7.33,-1.00
18411.00,-9.25,-2.76,-1.89,0.13,1.93,2.61,-22.17,-31.34,-7.33,-1.00
18423.00,-9.25,-2.76,-1.89,0.13,1.93,2.61,-22.17,-31.34,-7.33,-1.00
18435.00,-9.31,-2.33,-2.73,0.20,1.95,2.53,-23.29,-30.68,-8.69,-1.00
18449.00,-9.31,-2.33,-2.73,0.20,1.95,2.53,-23.29,-30.68,-8.69,-1.00
18461.00,-9.32,-1.60,-3.45,0.22,1.76,2.27,-23.29,-30.68,-8.69,-1.00
18473.00,-9.01,-2.47,-3.51,0.23,1.47,1.90,-23.29,-30.68,-8.69,-1.00
18485.00,-9.01,-2.47,-3.51,0.23,1.47,1.90,-23.29,-30.68,-8.69,-1.00
18500.00,-8.84,-3.39,-2.22,0.25,1.34,1.70,-23.29,-30.68,-8.69,-1.00
18512.00,-8.49,-3.64,-3.34,0.20,1.39,1.60,-23.29,-30.68,-8.69,-1.00
18524.00,-8.49,-3.64,-3.34,0.20,1.39,1.60,-23.29,-30.68,-8.69,-1.00
18536.00,-9.21,-5.39,-1.66,0.27,1.33,1.74,-23.29,-30.68,-8.69,-1.00
18550.00,-9.21,-5.39,-1.66,0.27,1.33,1.74,-23.29,-30.68,-8.69,-1.00
18562.00,-9.49,-3.36,-0.50,0.22,1.55,2.26,-22.54,-31.66,-6.99,-1.00
18574.00,-9.42,-4.00,-0.64,0.15,1.86,2.49,-22.54,-31.66,-6.99,-1.00
18588.00,-9.42,-4.00,-0.64,0.15,1.86,2.49,-22.54,-31.66,-6.99,-1.00
18600.00,-9.23,-2.46,-2.21,0.12,2.17,2.72,-22.54,-31.66,-6.99,-1.00
18612.00,-8.99,-2.61,-3.46,0.16,2.17,2.61,-22.54,-31.66,-6.99,-1.00
18624.00,-8.99,-2.61,-3.46,0.16,2.17,2.61,-22.54,-31.66,-6.99,-1.00
18639.00,-8.89,-3.13,-4.06,0.21,1.90,2.33,-22.54,-31.66,-6.99,-1.00
18650.00,-8.89,-3.13,-4.06,0.21,1.90,2.33,-22.54,-31.66,-6.99,-1.00
18662.00,-9.11,-2.54,-2.97,0.19,1.58,2.10,-22.54,-31.66,-6.99,-1.00
18674.00,-9.20,-1.80,-2.81,0.13,1.42,1.85,-20.66,-31.01,-9.03,-1.00
18688.00,-9.20,-1.80,-2.81,0.13,1.42,1.85,-20.66,-31.01,-9.03,-1.00
18700.00,-8.90,-2.97,-2.10,0.03,1.23,1.53,-20.66,-31.01,-9.03,-1.00
18712.00,-8.90,-5.46,-1.14,0.02,1.30,1.64,-20.66,-31.01,-9.03,-1.00
18724.00,-8.90,-5.46,-1.14,0.02,1.30,1.64,-20.66,-31.01,-9.03,-1.00
18738.00,-9.21,-3.23,-2.03,0.06,1.67,2.19,-20.66,-31.01,-9.03,-1.00
18750.00,-9.21,-3.23,-2.03,0.06,1.67,2.19,-20.66,-31.01,-9.03,-1.00
18762.00,-9.14,-4.06,-2.02,0.13,1.83,2.37,-20.66,-31.01,-9.03,-1.00
18776.00,-8.93,-4.72,-1.44,0.16,1.87,2.58,-20.66,-31.01,-9.03,-1.00
18788.00,-8.93,-4.72,-1.44,0.16,1.87,2.58,-20.66,-31.01,-9.03,-1.00
18800.00,-9.32,-2.34,-2.39,0.11,1.93,2.72,-22.92,-32.32,-8.01,-1.00
18812.00,-9.34,-1.87,-3.21,0.12,1.86,2.60,-22.92,-32.32,-8.01,-1.00
18827.00,-9.34,-1.87,-3.21,0.12,1.86,2.60,-22.92,-32.32,-8.01,-1.00
18838.00,-9.32,-2.27,-3.67,0.18,1.63,2.37,-22.92,-32.32,-8.01,-1.00
18850.00,-9.32,-2.27,-3.67,0.18,1.63,2.37,-22.92,-32.32,-8.01,-1.00
18862.00,-9.07,-2.17,-2.96,0.24,1.25,2.06,-22.92,-32.32,-8.01,-1.00
18876.00,-8.97,-3.01,-2.25,0.20,1.12,1.83,-22.92,-32.32,-8.01,-1.00
18888.00,-8.97,-3.01,-2.25,0.20,1.12,1.83,-22.92,-32.32,-8.01,-1.00
18900.00,-8.96,-2.18,-2.90,0.17,1.27,1.78,-22.92,-32.32,-8.01,-1.00
18914.00,-8.91,-5.15,-2.11,0.32,1.32,1.69,-22.54,-31.34,-6.31,-1.00
18926.00,-8.91,-5.15,-2.11,0.32,1.32,1.69,-22.54,-31.34,-6.31,-1.00
18938.00,-9.31,-3.26,-1.07,0.42,1.53,2.03,-22.54,-31.34,-6.31,-1.00
18950.00,-9.31,-3.26,-1.07,0.42,1.53,2.03,-22.54,-31.34,-6.31,-1.00
18964.00,-9.40,-3.63,-1.04,0.44,1.82,2.18,-22.54,-31.34,-6.31,-1.00
18976.00,-9.33,-4.04,-0.86,0.31,1.95,2.35,-22.54,-31.34,-6.31,-1.00
18988.00,-9.33,-4.04,-0.86,0.31,1.95,2.35,-22.54,-31.34,-6.31,-1.00
19000.00,-9.31,-3.47,-1.97,0.10,1.99,2.51,-22.54,-31.34,-6.31,-1.00
19014.00,-9.41,-2.29,-4.21,-0.02,1.85,2.62,-22.54,-31.34,-6.31,-1.00
19026.00,-9.41,-2.29,-4.21,-0.02,1.85,2.62,-22.54,-31.34,-6.31,-1.00
19038.00,-10.12,-0.62,-1.92,0.09,1.50,2.53,-22.54,-31.34,-6.31,-1.00
19050.00,-10.12,-0.62,-1.92,0.09,1.50,2.53,-22.54,-31.34,-6.31,-1.00
19064.00,-13.01,-0.86,2.05,0.04,1.38,2.04,-24.99,-31.50,-5.80,-1.00
19076.00,-9.42,-3.17,2.26,-0.31,1.86,1.41,-24.99,-31.50,-5.80,-1.00
19088.00,-9.42,-3.17,2.26,-0.31,1.86,1.41,-24.99,-31.50,-5.80,-1.00
19103.00,-7.75,-3.91,-3.37,-0.50,2.21,1.45,-24.99,-31.50,-5.80,-1.00
19114.00,-6.67,-4.58,-5.21,-0.35,1.85,1.78,-24.99,-31.50,-5.80,-1.00
19126.00,-6.67,-4.58,-5.21,-0.35,1.85,1.78,-24.99,-31.50,-5.80,-1.00
19138.00,-8.63,-3.54,-3.55,-0.07,1.67,2.06,-24.99,-31.50,-5.80,-1.00
19152.00,-7.44,-4.12,-6.66,0.15,2.15,1.96,-24.99,-31.50,-5.80,-1.00
19164.00,-7.44,-4.12,-6.66,0.15,2.15,1.96,-24.99,-31.50,-5.80,-1.00
19176.00,-6.89,-4.08,-6.44,0.56,2.11,2.05,-21.60,-31.83,-8.86,-1.00
19188.00,-6.89,-4.08,-6.44,0.56,2.11,2.05,-21.60,-31.83,-8.86,-1.00
19202.00,-9.50,-3.78,-1.92,0.76,1.61,2.30,-21.60,-31.83,-8.86,-1.00
19214.00,-10.60,-2.59,0.31,0.57,1.54,2.43,-21.60,-31.83,-8.86,-1.00
19226.00,-10.60,-2.59,0.31,0.57,1.54,2.43,-21.60,-31.83,-8.86,-1.00
19240.00,-10.12,-2.66,-0.38,0.37,1.75,2.33,-21.60,-31.83,-8.86,-1.00
19252.00,-8.79,-4.08,-1.64,0.19,1.83,2.32,-21.60,-31.83,-8.86,-1.00
19264.00,-8.79,-4.08,-1.64,0.19,1.83,2.32,-21.60,-31.83,-8.86,-1.00
19276.00,-8.69,-3.21,-3.70,0.12,1.71,2.56,-21.60,-31.83,-8.86,-1.00
19290.00,-11.07,-2.81,-2.35,0.22,1.42,2.59,-21.98,-31.50,-8.18,-1.00
19302.00,-11.07,-2.81,-2.35,0.22,1.42,2.59,-21.98,-31.50,-8.18,-1.00
19314.00,-9.37,-2.29,-1.61,0.21,1.39,2.33,-21.98,-31.50,-8.18,-1.00
19326.00,-9.37,-2.29,-1.61,0.21,1.39,2.33,-21.98,-31.50,-8.18,-1.00
19340.00,-9.09,-3.19,-1.86,0.10,1.45,2.07,-21.98,-31.50,-8.18,-1.00
19352.00,-8.99,-3.03,-2.57,0.11,1.62,1.98,-21.98,-31.50,-8.18,-1.00
19364.00,-8.99,-3.03,-2.57,0.11,1.62,1.98,-21.98,-31.50,-8.18,-1.00
19378.00,-8.91,-3.52,-2.67,0.15,1.71,1.86,-21.98,-31.50,-8.18,-1.00
19390.00,-9.11,-3.62,-2.50,0.21,1.73,1.86,-21.98,-31.50,-8.18,-1.00
19402.00,-9.11,-3.62,-2.50,0.21,1.73,1.86,-21.98,-31.50,-8.18,-1.00
19414.00,-9.45,-3.57,-1.50,0.25,1.83,2.09,-22.17,-32.32,-6.99,-1.00
19429.00,-9.45,-3.57,-1.50,0.25,1.83,2.09,-22.17,-32.32,-6.99,-1.00
19440.00,-9.50,-3.11,-0.96,0.17,1.98,2.31,-22.17,-32.32,-6.99,-1.00
19452.00,-9.36,-3.77,-2.13,0.13,2.14,2.48,-22.17,-32.32,-6.99,-1.00
19464.00,-9.36,-3.77,-2.13,0.13,2.14,2.48,-22.17,-32.32,-6.99,-1.00
19478.00,-9.29,-2.49,-2.93,0.09,2.08,2.65,-22.17,-32.32,-6.99,-1.00
19490.00,-9.32,-2.13,-3.17,0.04,1.91,2.54,-22.17,-32.32,-6.99,-1.00
19502.00,-9.32,-2.13,-3.17,0.04,1.91,2.54,-22.17,-32.32,-6.99,-1.00
19516.00,-8.95,-1.84,-4.21,0.00,1.66,2.27,-22.17,-32.32,-6.99,-1.00
19528.00,-8.95,-1.84,-4.21,0.00,1.66,2.27,-22.17,-32.32,-6.99,-1.00
19540.00,-8.84,-3.31,-3.16,0.04,1.35,1.93,-22.54,-30.68,-9.37,-1.00
19552.00,-8.70,-2.69,-3.72,0.16,1.31,1.86,-22.54,-30.68,-9.37,-1.00
19566.00,-8.70,-2.69,-3.72,0.16,1.31,1.86,-22.54,-30.68,-9.37,-1.00
19578.00,-9.18,-4.02,-1.40,0.35,1.32,1.92,-22.54,-30.68,-9.37,-1.00
19590.00,-9.50,-2.90,-0.50,0.29,1.55,2.20,-22.54,-30.68,-9.37,-1.00
19602.00,-9.50,-2.90,-0.50,0.29,1.55,2.20,-22.54,-30.68,-9.37,-1.00
19616.00,-9.40,-4.21,-1.52,0.20,1.78,2.27,-22.54,-30.68,-9.37,-1.00
19628.00,-9.40,-4.21,-1.52,0.20,1.78,2.27,-22.54,-30.68,-9.37,-1.00
19640.00,-9.46,-3.75,-1.38,0.10,1.87,2.57,-22.54,-30.68,-9.37,-1.00
19652.00,-9.17,-3.05,-1.57,0.22,1.97,2.90,-22.54,-30.68,-9.37,-1.00
19666.00,-9.17,-3.05,-1.57,0.22,1.97,2.90,-22.54,-30.68,-9.37,-1.00
19678.00,-9.10,-2.41,-2.16,0.47,2.14,3.04,-23.86,-30.52,-8.18,-1.00
19690.00,-8.85,-1.50,-4.62,0.38,2.25,2.90,-23.86,-30.52,-8.18,-1.00
19705.00,-8.85,-1.50,-4.62,0.38,2.25,2.90,-23.86,-30.52,-8.18,-1.00
19716.00,-8.99,-1.79,-4.11,0.32,2.07,2.58,-23.86,-30.52,-8.18,-1.00
19728.00,-8.99,-1.79,-4.11,0.32,2.07,2.58,-23.86,-30.52,-8.18,-1.00
19740.00,-9.09,-0.95,-4.79,0.23,1.87,2.21,-23.86,-30.52,-8.18,-1.00
19754.00,-9.12,-2.40,-2.27,0.20,1.54,1.76,-23.86,-30.52,-8.18,-1.00
19841.00,-9.92,-2.57,-2.10,-0.03,1.80,1.91,-24.42,-31.66,-9.37,-1.00
19931.00,-7.98,-4.69,-2.55,0.43,1.56,2.32,-21.79,-31.99,-9.03,-1.00
20018.00,-9.29,-1.59,-4.02,-0.04,1.95,2.39,-21.79,-31.99,-9.03,-1.00
20033.00,-8.57,-2.45,-4.78,-0.04,1.62,2.07,-23.86,-30.19,-9.88,-1.00
20044.00,-8.57,-2.45,-4.78,-0.04,1.62,2.07,-23.86,-30.19,-9.88,-1.00
20056.00,-8.86,-3.29,-3.17,0.06,1.36,1.86,-23.86,-30.19,-9.88,-1.00
20070.00,-8.90,-2.92,-2.36,0.12,1.33,1.78,-23.86,-30.19,-9.88,-1.00
20082.00,-8.90,-2.92,-2.36,0.12,1.33,1.78,-23.86,-30.19,-9.88,-1.00
20094.00,-9.01,-3.60,-2.62,0.21,1.42,1.69,-23.86,-30.19,-9.88,-1.00
20106.00,-9.01,-3.60,-2.62,0.21,1.42,1.69,-23.86,-30.19,-9.88,-1.00
20120.00,-9.18,-3.81,-1.48,0.32,1.56,1.91,-23.86,-30.19,-9.88,-1.00
20132.00,-9.57,-3.01,-0.87,0.26,1.77,2.20,-23.86,-30.19,-9.88,-1.00
20144.00,-9.57,-3.01,-0.87,0.26,1.77,2.20,-23.86,-30.19,-9.88,-1.00
20156.00,-9.29,-4.01,-1.44,0.11,1.91,2.26,-22.92,-30.35,-9.03,-1.00
20170.00,-9.19,-2.78,-3.09,0.03,1.88,2.35,-22.92,-30.35,-9.03,-1.00
20182.00,-9.19,-2.78,-3.09,0.03,1.88,2.35,-22.92,-30.35,-9.03,-1.00
20194.00,-9.14,-2.48,-3.57,0.02,1.67,2.26,-22.92,-30.35,-9.03,-1.00
20209.00,-9.14,-2.48,-3.57,0.02,1.67,2.26,-22.92,-30.35,-9.03,-1.00
20220.00,-9.03,-2.85,-2.64,0.04,1.45,2.06,-22.92,-30.35,-9.03,-1.00
20232.00,-8.98,-3.18,-2.49,0.08,1.41,1.96,-22.92,-30.35,-9.03,-1.00
20244.00,-8.98,-3.18,-2.49,0.08,1.41,1.96,-22.92,-30.35,-9.03,-1.00
20258.00,-9.04,-2.87,-3.34,0.20,1.52,2.07,-22.92,-30.35,-9.03,-1.00
20270.00,-9.43,-3.29,-1.37,0.34,1.58,2.20,-22.92,-30.35,-9.03,-1.00
20282.00,-9.43,-3.29,-1.37,0.34,1.58,2.20,-22.92,-30.35,-9.03,-1.00
20294.00,-9.23,-4.35,-0.23,0.34,1.82,2.40,-22.17,-31.66,-8.69,-1.00
20308.00,-9.23,-4.35,-0.23,0.34,1.82,2.40,-22.17,-31.66,-8.69,-1.00
20320.00,-9.36,-2.40,-2.98,0.20,2.00,2.58,-22.17,-31.66,-8.69,-1.00
20332.00,-9.28,-2.14,-3.55,0.29,1.83,2.51,-22.17,-31.66,-8.69,-1.00
20344.00,-9.28,-2.14,-3.55,0.29,1.83,2.51,-22.17,-31.66,-8.69,-1.00
20358.00,-9.35,-2.37,-3.04,0.40,1.54,2.41,-22.17,-31.66,-8.69,-1.00
20370.00,-9.11,-2.89,-2.32,0.44,1.24,2.25,-22.17,-31.66,-8.69,-1.00
20382.00,-9.11,-2.89,-2.32,0.44,1.24,2.25,-22.17,-31.66,-8.69,-1.00
20396.00,-9.17,-2.80,-1.91,0.32,1.20,2.12,-22.17,-31.66,-8.69,-1.00
20408.00,-9.17,-2.80,-1.91,0.32,1.20,2.12,-22.17,-31.66,-8.69,-1.00
20420.00,-9.17,-2.97,-2.16,0.19,1.24,1.99,-24.23,-30.84,-6.82,-1.00
20432.00,-8.95,-2.73,-2.78,0.14,1.25,1.88,-24.23,-30.84,-6.82,-1.00
20446.00,-8.95,-2.73,-2.78,0.14,1.25,1.88,-24.23,-30.84,-6.82,-1.00
20459.00,-9.00,-3.71,-2.28,0.16,1.26,1.75,-24.23,-30.84,-6.82,-1.00
20471.00,-9.29,-4.15,-0.64,0.23,1.41,1.86,-24.23,-30.84,-6.82,-1.00
20483.00,-9.29,-4.15,-0.64,0.23,1.41,1.86,-24.23,-30.84,-6.82,-1.00
20498.00,-9.44,-3.75,-0.59,0.20,1.77,2.10,-24.23,-30.84,-6.82,-1.00
20510.00,-9.36,-3.28,-1.42,0.16,2.03,2.27,-24.23,-30.84,-6.82,-1.00
20522.00,-9.36,-3.28,-1.42,0.16,2.03,2.27,-24.23,-30.84,-6.82,-1.00
20536.00,-9.30,-4.02,-1.08,0.17,2.11,2.44,-23.11,-30.19,-6.48,-1.00
20548.00,-9.30,-4.02,-1.08,0.17,2.11,2.44,-23.11,-30.19,-6.48,-1.00
20560.00,-9.40,-2.75,-1.89,0.17,2.15,2.64,-23.11,-30.19,-6.48,-1.00
20572.00,-9.52,-1.86,-3.27,0.16,2.04,2.57,-23.11,-30.19,-6.48,-1.00
20586.00,-9.52,-1.86,-3.27,0.16,2.04,2.57,-23.11,-30.19,-6.48,-1.00
20598.00,-9.24,-1.78,-3.97,0.25,1.76,2.44,-23.11,-30.19,-6.48,-1.00
20611.00,-9.13,-2.24,-3.09,0.32,1.41,2.16,-23.11,-30.19,-6.48,-1.00
20622.00,-9.13,-2.24,-3.09,0.32,1.41,2.16,-23.11,-30.19,-6.48,-1.00
20636.00,-9.03,-3.19,-1.84,0.33,1.22,1.87,-23.11,-30.19,-6.48,-1.00
20648.00,-9.03,-3.19,-1.84,0.33,1.22,1.87,-23.11,-30.19,-6.48,-1.00
20660.00,-8.96,-3.23,-2.62,0.34,1.30,1.82,-23.11,-29.86,-7.16,-1.00
20674.00,-9.18,-4.54,-1.32,0.37,1.38,1.89,-23.11,-29.86,-7.16,-1.00
20686.00,-9.18,-4.54,-1.32,0.37,1.38,1.89,-23.11,-29.86,-7.16,-1.00
20698.00,-9.53,-3.02,-0.51,0.25,1.60,2.19,-23.11,-29.86,-7.16,-1.00
20710.00,-9.40,-4.14,-0.60,0.11,1.78,2.27,-23.11,-29.86,-7.16,-1.00
20724.00,-9.40,-4.14,-0.60,0.11,1.78,2.27,-23.11,-29.86,-7.16,-1.00
20736.00,-9.28,-4.28,-1.05,0.06,1.90,2.47,-23.11,-29.86,-7.16,-1.00
20748.00,-9.28,-4.28,-1.05,0.06,1.90,2.47,-23.11,-29.86,-7.16,-1.00
20760.00,-9.63,-1.14,-3.00,0.09,1.90,2.60,-23.11,-29.86,-7.16,-1.00
20775.00,-9.54,-1.66,-3.28,0.21,1.71,2.37,-24.99,-30.19,-7.50,-1.00
20786.00,-9.54,-1.66,-3.28,0.21,1.71,2.37,-24.99,-30.19,-7.50,-1.00
20798.00,-9.19,-2.34,-2.23,0.25,1.43,2.09,-24.99,-30.19,-7.50,-1.00
20810.00,-9.04,-3.17,-2.07,0.22,1.33,1.85,-24.99,-30.19,-7.50,-1.00
20824.00,-9.04,-3.17,-2.07,0.22,1.33,1.85,-24.99,-30.19,-7.50,-1.00
20836.00,-8.91,-2.93,-2.08,0.24,1.36,1.72,-24.99,-30.19,-7.50,-1.00
20848.00,-8.82,-3.25,-3.05,0.26,1.36,1.53,-24.99,-30.19,-7.50,-1.00
20862.00,-8.82,-3.25,-3.05,0.26,1.36,1.53,-24.99,-30.19,-7.50,-1.00
20874.00,-9.19,-5.26,-1.10,0.40,1.26,1.60,-24.99,-30.19,-7.50,-1.00
20886.00,-9.19,-5.26,-1.10,0.40,1.26,1.60,-24.99,-30.19,-7.50,-1.00
20898.00,-9.74,-3.28,0.16,0.31,1.44,2.14,-22.92,-31.99,-4.61,-1.00
20912.00,-9.63,-4.13,0.29,0.14,1.69,2.35,-22.92,-31.99,-4.61,-1.00
20924.00,-9.63,-4.13,0.29,0.14,1.69,2.35,-22.92,-31.99,-4.61,-1.00
20936.00,-9.62,-3.52,0.20,0.06,1.95,2.66,-22.92,-31.99,-4.61,-1.00
20948.00,-9.25,-2.36,-1.24,0.03,2.18,2.85,-22.92,-31.99,-4.61,-1.00
20962.00,-9.25,-2.36,-1.24,0.03,2.18,2.85,-22.92,-31.99,-4.61,-1.00
20974.00,-9.06,-1.77,-4.15,0.07,2.19,2.67,-22.92,-31.99,-4.61,-1.00
20986.00,-9.06,-1.77,-4.15,0.07,2.19,2.67,-22.92,-31.99,-4.61,-1.00
20998.00,-9.10,-2.31,-4.28,0.21,1.78,2.27,-22.92,-31.99,-4.61,-1.00
21012.00,-9.34,-2.56,-2.39,0.30,1.34,1.97,-22.92,-31.99,-4.61,-1.00
21024.00,-9.34,-2.56,-2.39,0.30,1.34,1.97,-22.92,-31.99,-4.61,-1.00
21036.00,-9.46,-2.68,0.37,0.28,1.17,1.74,-22.92,-30.02,-5.63,-1.00
21051.00,-9.38,-3.86,0.38,0.03,1.37,1.56,-22.92,-30.02,-5.63,-1.00
21062.00,-9.38,-3.86,0.38,0.03,1.37,1.56,-22.92,-30.02,-5.63,-1.00
21074.00,-9.27,-4.52,-2.19,-0.13,1.61,1.68,-22.92,-30.02,-5.63,-1.00
21086.00,-9.27,-4.52,-2.19,-0.13,1.61,1.68,-22.92,-30.02,-5.63,-1.00
21100.00,-9.29,-3.42,-1.80,-0.08,1.65,2.14,-22.92,-30.02,-5.63,-1.00
21112.00,-9.29,-3.93,-2.49,0.02,1.69,2.38,-22.92,-30.02,-5.63,-1.00
21124.00,-9.29,-3.93,-2.49,0.02,1.69,2.38,-22.92,-30.02,-5.63,-1.00
21136.00,-9.42,-3.41,-0.20,0.15,1.66,2.57,-22.92,-30.02,-5.63,-1.00
21150.00,-9.56,-2.56,-0.23,0.16,1.87,2.65,-24.05,-30.68,-6.31,-1.00
21162.00,-9.56,-2.56,-0.23,0.16,1.87,2.65,-24.05,-30.68,-6.31,-1.00
21174.00,-9.49,-2.21,-2.31,0.09,1.96,2.50,-24.05,-30.68,-6.31,-1.00
21188.00,-9.36,-1.79,-3.34,0.12,1.71,2.29,-24.05,-30.68,-6.31,-1.00
21200.00,-9.36,-1.79,-3.34,0.12,1.71,2.29,-24.05,-30.68,-6.31,-1.00
21212.00,-9.19,-2.82,-2.44,0.23,1.28,2.06,-24.05,-30.68,-6.31,-1.00
21224.00,-9.19,-2.82,-2.44,0.23,1.28,2.06,-24.05,-30.68,-6.31,-1.00
21238.00,-9.17,-3.72,-0.68,0.32,1.10,2.00,-24.05,-30.68,-6.31,-1.00
21250.00,-8.62,-3.77,-1.64,0.32,1.27,2.05,-24.05,-30.68,-6.31,-1.00
21262.00,-8.62,-3.77,-1.64,0.32,1.27,2.05,-24.05,-30.68,-6.31,-1.00
21274.00,-9.35,-3.07,-1.69,0.31,1.34,2.11,-24.05,-30.35,-6.31,-1.00
21288.00,-9.33,-2.58,-1.43,0.29,1.41,2.05,-24.05,-30.35,-6.31,-1.00
21300.00,-9.33,-2.58,-1.43,0.29,1.41,2.05,-24.05,-30.35,-6.31,-1.00
21312.00,-9.31,-2.82,-0.40,0.29,1.49,1.91,-24.05,-30.35,-6.31,-1.00
21326.00,-9.31,-2.82,-0.40,0.29,1.49,1.91,-24.05,-30.35,-6.31,-1.00
21338.00,-9.51,-3.42,0.21,0.20,1.77,1.95,-24.05,-30.35,-6.31,-1.00
21350.00,-9.65,-3.92,0.32,0.11,2.10,2.08,-24.05,-30.35,-6.31,-1.00
21362.00,-9.65,-3.92,0.32,0.11,2.10,2.08,-24.05,-30.35,-6.31,-1.00
21377.00,-9.59,-3.36,0.25,-0.07,2.32,2.33,-24.05,-30.35,-6.31,-1.00
21388.00,-9.19,-4.70,-1.03,-0.20,2.40,2.53,-22.92,-31.66,-5.63,-1.00
21400.00,-9.19,-4.70,-1.03,-0.20,2.40,2.53,-22.92,-31.66,-5.63,-1.00
21412.00,-9.21,-2.43,-2.98,-0.17,2.23,2.74,-22.92,-31.66,-5.63,-1.00
21426.00,-9.21,-2.43,-2.98,-0.17,2.23,2.74,-22.92,-31.66,-5.63,-1.00
21438.00,-9.09,-2.38,-3.90,0.03,1.80,2.60,-22.92,-31.66,-5.63,-1.00
21450.00,-9.25,-0.85,-3.74,0.35,1.33,2.28,-22.92,-31.66,-5.63,-1.00
21462.00,-9.25,-0.85,-3.74,0.35,1.33,2.28,-22.92,-31.66,-5.63,-1.00
21476.00,-9.48,-3.14,0.26,0.49,1.04,1.87,-22.92,-31.66,-5.63,-1.00
21488.00,-9.51,-2.13,0.29,0.34,1.35,1.74,-22.92,-31.66,-5.63,-1.00
21500.00,-9.51,-2.13,0.29,0.34,1.35,1.74,-22.92,-31.66,-5.63,-1.00
21514.00,-9.16,-2.96,-1.08,0.19,1.67,1.49,-22.73,-31.83,-6.14,-1.00
21526.00,-9.16,-2.96,-1.08,0.19,1.67,1.49,-22.73,-31.83,-6.14,-1.00
21538.00,-8.59,-3.43,-3.01,0.20,1.69,1.35,-22.73,-31.83,-6.14,-1.00
21550.00,-9.21,-5.35,-1.15,0.37,1.55,1.56,-22.73,-31.83,-6.14,-1.00
21564.00,-9.21,-5.35,-1.15,0.37,1.55,1.56,-22.73,-31.83,-6.14,-1.00
21576.00,-9.60,-3.31,-0.21,0.27,1.65,2.11,-22.73,-31.83,-6.14,-1.00
21588.00,-9.42,-4.22,-0.94,0.15,1.76,2.23,-22.73,-31.83,-6.14,-1.00
21600.00,-9.42,-4.22,-0.94,0.15,1.76,2.23,-22.73,-31.83,-6.14,-1.00
21614.00,-9.35,-4.06,-1.61,0.11,1.79,2.55,-22.73,-31.83,-6.14,-1.00
21626.00,-9.35,-4.06,-1.61,0.11,1.79,2.55,-22.73,-31.83,-6.14,-1.00
21638.00,-9.20,-3.49,-0.96,0.10,1.77,2.94,-22.73,-31.83,-6.14,-1.00
21653.00,-9.41,-1.93,-1.27,0.11,1.75,3.04,-23.29,-30.35,-8.35,-1.00
21664.00,-9.41,-1.93,-1.27,0.11,1.75,3.04,-23.29,-30.35,-8.35,-1.00
21676.00,-9.49,-1.91,-1.63,0.18,1.64,2.80,-23.29,-30.35,-8.35,-1.00
21688.00,-9.48,-1.88,-1.30,0.24,1.45,2.53,-23.29,-30.35,-8.35,-1.00
21702.00,-9.48,-1.88,-1.30,0.24,1.45,2.53,-23.29,-30.35,-8.35,-1.00
21714.00,-9.32,-2.12,-2.51,0.30,1.34,2.22,-23.29,-30.35,-8.35,-1.00
21726.00,-9.32,-2.12,-2.51,0.30,1.34,2.22,-23.29,-30.35,-8.35,-1.00
21738.00,-9.39,-2.75,-0.81,0.43,1.19,1.99,-23.29,-30.35,-8.35,-1.00
21752.00,-9.51,-2.69,-0.13,0.49,1.28,1.83,-23.29,-30.35,-8.35,-1.00
21764.00,-9.51,-2.69,-0.13,0.49,1.28,1.83,-23.29,-30.35,-8.35,-1.00
21776.00,-9.34,-3.29,-0.61,0.48,1.49,1.73,-24.80,-31.66,-4.95,-1.00
21788.00,-9.32,-4.93,-0.23,0.52,1.75,1.95,-24.80,-31.66,-4.95,-1.00
21803.00,-9.32,-4.93,-0.23,0.52,1.75,1.95,-24.80,-31.66,-4.95,-1.00
21814.00,-9.63,-2.26,-1.04,0.41,1.89,2.26,-24.80,-31.66,-4.95,-1.00
21826.00,-9.63,-2.26,-1.04,0.41,1.89,2.26,-24.80,-31.66,-4.95,-1.00
21841.00,-9.56,-4.13,0.81,0.25,1.83,2.28,-24.80,-31.66,-4.95,-1.00
21852.00,-9.81,-3.34,0.38,-0.08,1.92,2.54,-24.80,-31.66,-4.95,-1.00
21864.00,-9.81,-3.34,0.38,-0.08,1.92,2.54,-24.80,-31.66,-4.95,-1.00
21876.00,-9.69,-0.77,-3.17,-0.33,1.85,2.69,-24.80,-31.66,-4.95,-1.00
21890.00,-14.25,1.05,-1.67,-0.19,1.37,2.30,-23.86,-30.52,-6.14,-1.00
21902.00,-14.25,1.05,-1.67,-0.19,1.37,2.30,-23.86,-30.52,-6.14,-1.00
21914.00,-10.65,-0.19,5.61,-0.13,1.36,1.29,-23.86,-30.52,-6.14,-1.00
21926.00,-10.65,-0.19,5.61,-0.13,1.36,1.29,-23.86,-30.52,-6.14,-1.00
21940.00,-10.10,-2.27,3.89,-0.45,2.34,0.84,-23.86,-30.52,-6.14,-1.00
21952.00,-7.47,-4.83,-2.04,-0.76,3.07,0.72,-23.86,-30.52,-6.14,-1.00
21964.00,-7.47,-4.83,-2.04,-0.76,3.07,0.72,-23.86,-30.52,-6.14,-1.00
21978.00,-7.05,-4.76,-5.72,-0.63,3.05,0.95,-23.86,-30.52,-6.14,-1.00
21990.00,-7.43,-4.36,-5.32,-0.25,2.69,1.21,-23.86,-30.52,-6.14,-1.00
22002.00,-7.43,-4.36,-5.32,-0.25,2.69,1.21,-23.86,-30.52,-6.14,-1.00
22014.00,-7.97,-4.38,-2.22,0.04,2.34,1.39,-19.34,-32.48,-8.86,-1.00
22028.00,-8.25,-4.83,-0.84,0.06,2.33,1.59,-19.34,-32.48,-8.86,-1.00
22040.00,-8.25,-4.83,-0.84,0.06,2.33,1.59,-19.34,-32.48,-8.86,-1.00
22052.00,-8.42,-4.59,-1.55,-0.00,2.48,1.75,-19.34,-32.48,-8.86,-1.00
22064.00,-8.42,-4.59,-1.55,-0.00,2.48,1.75,-19.34,-32.48,-8.86,-1.00
22078.00,-8.90,-4.40,-2.37,-0.07,2.56,1.80,-19.34,-32.48,-8.86,-1.00
22168.00,-7.93,-4.02,-4.66,-0.05,2.70,2.04,-16.52,-33.30,-11.41,-1.00
22255.00,-7.30,-5.49,-3.79,0.31,2.41,2.41,-12.57,-33.14,-14.64,-1.00
22270.00,-8.00,-4.51,-3.59,0.37,2.56,2.69,-12.57,-33.14,-14.64,-1.00
22281.00,-8.00,-4.51,-3.59,0.37,2.56,2.69,-12.57,-33.14,-14.64,-1.00
22293.00,-8.82,-2.96,-4.59,0.36,2.76,2.68,-12.57,-33.14,-14.64,-1.00
22305.00,-8.82,-2.96,-4.59,0.36,2.76,2.68,-12.57,-33.14,-14.64,-1.00
22319.00,-7.60,-2.96,-6.55,0.32,2.57,2.41,-12.57,-33.14,-14.64,-1.00
22331.00,-7.05,-4.92,-6.02,0.59,2.24,2.27,-12.57,-33.14,-14.64,-1.00
22343.00,-7.05,-4.92,-6.02,0.59,2.24,2.27,-12.57,-33.14,-14.64,-1.00
22355.00,-6.65,-5.37,-5.58,0.90,2.15,2.51,-12.57,-33.14,-14.64,-1.00
22369.00,-7.48,-3.90,-5.42,0.93,1.90,2.83,-12.57,-33.14,-14.64,-1.00
22381.00,-7.48,-3.90,-5.42,0.93,1.90,2.83,-12.57,-33.14,-14.64,-1.00
22393.00,-8.14,-2.72,-7.19,0.75,1.36,2.81,-13.89,-34.28,-14.47,-1.00
22407.00,-8.02,-3.41,-4.71,0.92,0.75,2.52,-13.89,-34.28,-14.47,-1.00
22419.00,-8.02,-3.41,-4.71,0.92,0.75,2.52,-13.89,-34.28,-14.47,-1.00
22431.00,-8.24,-4.81,-2.28,1.05,0.61,2.39,-13.89,-34.28,-14.47,-1.00
22443.00,-8.24,-4.81,-2.28,1.05,0.61,2.39,-13.89,-34.28,-14.47,-1.00
22458.00,-9.17,-4.04,-2.58,0.75,0.75,2.49,-13.89,-34.28,-14.47,-1.00
22469.00,-8.85,-3.17,-2.78,0.48,0.79,2.36,-13.89,-34.28,-14.47,-1.00
22481.00,-8.85,-3.17,-2.78,0.48,0.79,2.36,-13.89,-34.28,-14.47,-1.00
22493.00,-8.17,-4.34,-3.25,0.39,0.75,2.19,-13.89,-34.28,-14.47,-1.00
22507.00,-8.37,-4.31,-2.61,0.37,0.69,2.27,-17.28,-34.61,-9.71,-1.00
22519.00,-8.37,-4.31,-2.61,0.37,0.69,2.27,-17.28,-34.61,-9.71,-1.00
22531.00,-8.80,-4.13,-2.14,0.37,0.83,2.37,-17.28,-34.61,-9.71,-1.00
22545.00,-8.80,-4.13,-2.14,0.37,0.83,2.37,-17.28,-34.61,-9.71,-1.00
22557.00,-9.43,-3.21,-2.21,0.28,1.00,2.33,-17.28,-34.61,-9.71,-1.00
22570.00,-9.19,-3.85,-1.71,0.25,1.17,2.08,-17.28,-34.61,-9.71,-1.00
22581.00,-9.19,-3.85,-1.71,0.25,1.17,2.08,-17.28,-34.61,-9.71,-1.00
22595.00,-8.22,-5.30,-1.79,0.17,1.37,1.99,-17.28,-34.61,-9.71,-1.00
22607.00,-7.94,-5.15,-2.78,0.07,1.50,2.22,-17.28,-34.61,-9.71,-1.00
22619.00,-7.94,-5.15,-2.78,0.07,1.50,2.22,-17.28,-34.61,-9.71,-1.00
22631.00,-8.49,-4.03,-3.12,0.10,1.48,2.38,-18.03,-33.30,-9.03,-1.00
22645.00,-8.49,-4.03,-3.12,0.10,1.48,2.38,-18.03,-33.30,-9.03,-1.00
22657.00,-8.74,-4.34,-2.54,0.20,1.49,2.32,-18.03,-33.30,-9.03,-1.00
22669.00,-8.67,-4.28,-2.40,0.23,1.59,2.33,-18.03,-33.30,-9.03,-1.00
22683.00,-8.67,-4.28,-2.40,0.23,1.59,2.33,-18.03,-33.30,-9.03,-1.00
22695.00,-8.64,-4.15,-1.96,0.21,1.67,2.40,-18.03,-33.30,-9.03,-1.00
22707.00,-9.25,-3.48,-2.53,0.13,1.72,2.43,-18.03,-33.30,-9.03,-1.00
22719.00,-9.25,-3.48,-2.53,0.13,1.72,2.43,-18.03,-33.30,-9.03,-1.00
22733.00,-9.23,-3.29,-2.50,0.13,1.69,2.28,-18.03,-33.30,-9.03,-1.00
22745.00,-9.23,-3.29,-2.50,0.13,1.69,2.28,-18.03,-33.30,-9.03,-1.00
22757.00,-8.87,-4.37,-1.74,0.12,1.69,2.14,-18.59,-33.79,-7.84,-1.00
22769.00,-8.30,-4.33,-2.76,-0.01,1.76,2.21,-18.59,-33.79,-7.84,-1.00
22783.00,-8.30,-4.33,-2.76,-0.01,1.76,2.21,-18.59,-33.79,-7.84,-1.00
22795.00,-8.59,-3.90,-3.05,0.03,1.71,2.30,-18.59,-33.79,-7.84,-1.00
22807.00,-8.75,-4.03,-2.08,0.08,1.59,2.36,-18.59,-33.79,-7.84,-1.00
22819.00,-8.75,-4.03,-2.08,0.08,1.59,2.36,-18.59,-33.79,-7.84,-1.00
22833.00,-9.35,-3.61,-1.86,0.07,1.67,2.41,-18.59,-33.79,-7.84,-1.00
22845.00,-9.35,-3.61,-1.86,0.07,1.67,2.41,-18.59,-33.79,-7.84,-1.00
22857.00,-8.95,-3.68,-2.45,0.05,1.84,2.36,-18.59,-33.79,-7.84,-1.00
22871.00,-8.79,-3.54,-2.88,0.06,1.85,2.36,-19.16,-33.30,-9.71,-1.00
22883.00,-8.79,-3.54,-2.88,0.06,1.85,2.36,-19.16,-33.30,-9.71,-1.00
22895.00,-8.84,-3.69,-2.50,0.05,1.69,2.33,-19.16,-33.30,-9.71,-1.00
22907.00,-8.88,-4.06,-2.30,0.08,1.71,2.32,-19.16,-33.30,-9.71,-1.00
22921.00,-8.88,-4.06,-2.30,0.08,1.71,2.32,-19.16,-33.30,-9.71,-1.00
22933.00,-9.08,-3.32,-2.61,0.12,1.90,2.36,-19.16,-33.30,-9.71,-1.00
22945.00,-9.08,-3.32,-2.61,0.12,1.90,2.36,-19.16,-33.30,-9.71,-1.00
22957.00,-8.76,-3.20,-3.08,0.14,1.96,2.29,-19.16,-33.30,-9.71,-1.00
22971.00,-8.56,-3.64,-3.19,0.17,1.82,2.24,-19.16,-33.30,-9.71,-1.00
22983.00,-8.56,-3.64,-3.19,0.17,1.82,2.24,-19.16,-33.30,-9.71,-1.00
22995.00,-8.73,-3.63,-3.16,0.21,1.73,2.27,-19.16,-33.30,-9.71,-1.00
23010.00,-9.19,-3.32,-2.82,0.28,1.72,2.32,-19.72,-33.14,-9.88,-1.00
23021.00,-9.19,-3.32,-2.82,0.28,1.72,2.32,-19.72,-33.14,-9.88,-1.00
23033.00,-9.28,-3.09,-2.34,0.31,1.74,2.25,-19.72,-33.14,-9.88,-1.00
23045.00,-8.71,-4.00,-2.44,0.24,1.72,2.14,-19.72,-33.14,-9.88,-1.00
23059.00,-8.71,-4.00,-2.44,0.24,1.72,2.14,-19.72,-33.14,-9.88,-1.00
23071.00,-8.39,-4.06,-3.28,0.22,1.73,2.22,-19.72,-33.14,-9.88,-1.00
23083.00,-8.39,-4.06,-3.28,0.22,1.73,2.22,-19.72,-33.14,-9.88,-1.00
23095.00,-9.03,-2.89,-3.42,0.25,1.63,2.29,-19.72,-33.14,-9.88,-1.00
23109.00,-8.94,-3.53,-2.82,0.31,1.51,2.14,-19.72,-33.14,-9.88,-1.00
23121.00,-8.94,-3.53,-2.82,0.31,1.51,2.14,-19.72,-33.14,-9.88,-1.00
23133.00,-8.36,-4.01,-2.51,0.33,1.54,2.13,-20.85,-32.48,-10.56,-1.00
23147.00,-9.16,-3.29,-2.55,0.32,1.58,2.22,-20.85,-32.48,-10.56,-1.00
23159.00,-9.16,-3.29,-2.55,0.32,1.58,2.22,-20.85,-32.48,-10.56,-1.00
23171.00,-9.42,-3.26,-2.05,0.28,1.51,2.11,-20.85,-32.48,-10.56,-1.00
23183.00,-9.42,-3.26,-2.05,0.28,1.51,2.11,-20.85,-32.48,-10.56,-1.00
23197.00,-9.00,-3.78,-2.07,0.21,1.50,2.05,-20.85,-32.48,-10.56,-1.00
23209.00,-8.75,-3.77,-2.49,0.20,1.55,2.12,-20.85,-32.48,-10.56,-1.00
23221.00,-8.75,-3.77,-2.49,0.20,1.55,2.12,-20.85,-32.48,-10.56,-1.00
23233.00,-9.31,-3.18,-2.60,0.16,1.52,2.18,-20.85,-32.48,-10.56,-1.00
23247.00,-8.92,-3.61,-2.27,0.20,1.49,2.09,-20.28,-31.66,-10.05,-1.00
23259.00,-8.92,-3.61,-2.27,0.20,1.49,2.09,-20.28,-31.66,-10.05,-1.00
23271.00,-9.14,-3.82,-2.01,0.13,1.50,2.06,-20.28,-31.66,-10.05,-1.00
23286.00,-8.77,-3.54,-2.70,0.07,1.53,2.05,-20.28,-31.66,-10.05,-1.00
23297.00,-8.77,-3.54,-2.70,0.07,1.53,2.05,-20.28,-31.66,-10.05,-1.00
23310.00,-8.51,-4.44,-2.39,0.10,1.53,2.04,-20.28,-31.66,-10.05,-1.00
23322.00,-8.51,-4.44,-2.39,0.10,1.53,2.04,-20.28,-31.66,-10.05,-1.00
23336.00,-8.61,-3.69,-3.22,0.15,1.58,2.16,-20.28,-31.66,-10.05,-1.00
23348.00,-8.67,-3.81,-2.66,0.28,1.55,2.23,-20.28,-31.66,-10.05,-1.00
23360.00,-8.67,-3.81,-2.66,0.28,1.55,2.23,-20.28,-31.66,-10.05,-1.00
23372.00,-8.76,-3.85,-2.47,0.34,1.50,2.28,-20.10,-31.17,-7.50,-1.00
23386.00,-7.96,-4.80,-2.21,0.36,1.49,2.43,-20.10,-31.17,-7.50,-1.00
23398.00,-7.96,-4.80,-2.21,0.36,1.49,2.43,-20.10,-31.17,-7.50,-1.00
23410.00,-12.84,-3.35,-0.96,0.32,1.47,2.81,-20.10,-31.17,-7.50,-1.00
23424.00,-12.84,-3.35,-0.96,0.32,1.47,2.81,-20.10,-31.17,-7.50,-1.00
23436.00,-10.04,-2.15,0.45,0.16,1.51,2.60,-20.10,-31.17,-7.50,-1.00
23448.00,-9.49,-2.51,-0.85,0.05,1.60,2.31,-20.10,-31.17,-7.50,-1.00
23460.00,-9.49,-2.51,-0.85,0.05,1.60,2.31,-20.10,-31.17,-7.50,-1.00
23475.00,-9.03,-2.81,-3.17,-0.02,1.58,2.14,-20.10,-31.17,-7.50,-1.00
23486.00,-8.81,-3.50,-2.94,0.09,1.43,1.95,-21.41,-31.34,-7.33,-1.00
23498.00,-8.81,-3.50,-2.94,0.09,1.43,1.95,-21.41,-31.34,-7.33,-1.00
23510.00,-8.69,-3.32,-2.10,0.14,1.43,1.87,-21.41,-31.34,-7.33,-1.00
23524.00,-8.69,-3.32,-2.10,0.14,1.43,1.87,-21.41,-31.34,-7.33,-1.00
23536.00,-9.00,-3.50,-1.98,0.07,1.49,1.69,-21.41,-31.34,-7.33,-1.00
23548.00,-9.13,-4.32,-2.15,0.11,1.55,1.61,-21.41,-31.34,-7.33,-1.00
23560.00,-9.13,-4.32,-2.15,0.11,1.55,1.61,-21.41,-31.34,-7.33,-1.00
23574.00,-9.30,-3.69,-2.18,0.19,1.63,1.81,-21.41,-31.34,-7.33,-1.00
23586.00,-9.30,-3.90,-1.67,0.20,1.68,1.99,-21.41,-31.34,-7.33,-1.00
23598.00,-9.30,-3.90,-1.67,0.20,1.68,1.99,-21.41,-31.34,-7.33,-1.00
23612.00,-9.43,-4.51,-1.06,0.16,1.76,2.16,-19.34,-32.15,-8.18,-1.00
23624.00,-9.43,-4.51,-1.06,0.16,1.76,2.16,-19.34,-32.15,-8.18,-1.00
23636.00,-9.28,-4.75,-0.94,0.02,1.95,2.53,-19.34,-32.15,-8.18,-1.00
23648.00,-9.04,-3.63,-1.88,-0.01,2.19,2.95,-19.34,-32.15,-8.18,-1.00
23662.00,-9.04,-3.63,-1.88,-0.01,2.19,2.95,-19.34,-32.15,-8.18,-1.00
23750.00,-9.17,-1.76,-4.63,0.03,1.63,2.26,-24.05,-30.68,-9.03,-1.00
23839.00,-9.59,-3.87,-0.50,0.51,1.56,1.85,-24.05,-30.68,-9.03,-1.00
23926.00,-7.92,-4.20,-3.75,-0.05,1.66,1.80,-22.17,-31.66,-9.37,-1.00
23940.00,-7.92,-4.20,-3.75,-0.05,1.66,1.80,-22.17,-31.66,-9.37,-1.00
23952.00,-8.34,-3.64,-3.46,0.03,1.46,1.93,-22.17,-31.66,-9.37,-1.00
23964.00,-8.43,-3.96,-2.58,0.14,1.34,1.98,-22.17,-31.66,-9.37,-1.00
23978.00,-8.43,-3.96,-2.58,0.14,1.34,1.98,-22.17,-31.66,-9.37,-1.00
23990.00,-8.98,-3.27,-2.36,0.19,1.36,2.04,-20.47,-33.46,-9.88,-1.00
24002.00,-8.98,-3.27,-2.36,0.19,1.36,2.04,-20.47,-33.46,-9.88,-1.00
24014.00,-8.29,-4.06,-1.91,0.22,1.39,2.00,-20.47,-33.46,-9.88,-1.00
24028.00,-8.27,-4.53,-2.86,0.30,1.50,2.14,-20.47,-33.46,-9.88,-1.00
24040.00,-8.27,-4.53,-2.86,0.30,1.50,2.14,-20.47,-33.46,-9.88,-1.00
24052.00,-10.51,-2.78,-1.85,0.36,1.59,2.43,-20.47,-33.46,-9.88,-1.00
24064.00,-9.66,-3.36,-0.41,0.25,1.79,2.43,-20.47,-33.46,-9.88,-1.00
24078.00,-9.66,-3.36,-0.41,0.25,1.79,2.43,-20.47,-33.46,-9.88,-1.00
24090.00,-9.50,-3.06,-1.42,0.11,1.98,2.45,-20.47,-33.46,-9.88,-1.00
24102.00,-9.50,-3.06,-1.42,0.11,1.98,2.45,-20.47,-33.46,-9.88,-1.00
24116.00,-9.24,-3.19,-2.21,0.04,2.06,2.60,-21.60,-31.17,-9.54,-1.00
24128.00,-9.17,-3.39,-1.93,0.02,1.91,2.64,-21.60,-31.17,-9.54,-1.00
24140.00,-9.17,-3.39,-1.93,0.02,1.91,2.64,-21.60,-31.17,-9.54,-1.00
24152.00,-9.13,-2.83,-3.53,0.07,1.73,2.49,-21.60,-31.17,-9.54,-1.00
24166.00,-9.18,-1.87,-2.93,0.10,1.45,2.29,-21.60,-31.17,-9.54,-1.00
24178.00,-9.18,-1.87,-2.93,0.10,1.45,2.29,-21.60,-31.17,-9.54,-1.00
24190.00,-9.06,-2.86,-2.37,0.13,1.31,1.96,-21.60,-31.17,-9.54,-1.00
24202.00,-9.06,-2.86,-2.37,0.13,1.31,1.96,-21.60,-31.17,-9.54,-1.00
24217.00,-8.97,-4.16,-1.77,0.21,1.32,1.78,-21.60,-31.17,-9.54,-1.00
24229.00,-8.94,-2.15,-3.01,0.25,1.47,1.78,-21.41,-31.66,-9.03,-1.00
24241.00,-8.94,-2.15,-3.01,0.25,1.47,1.78,-21.41,-31.66,-9.03,-1.00
24253.00,-8.85,-4.19,-1.23,0.35,1.50,1.76,-21.41,-31.66,-9.03,-1.00
24267.00,-9.24,-3.53,-0.87,0.30,1.72,2.02,-21.41,-31.66,-9.03,-1.00
24279.00,-9.24,-3.53,-0.87,0.30,1.72,2.02,-21.41,-31.66,-9.03,-1.00
24291.00,-9.26,-4.28,-1.06,0.23,1.92,2.16,-21.41,-31.66,-9.03,-1.00
24305.00,-9.35,-2.67,-2.31,0.10,1.96,2.31,-21.41,-31.66,-9.03,-1.00
24317.00,-9.35,-2.67,-2.31,0.10,1.96,2.31,-21.41,-31.66,-9.03,-1.00
24329.00,-9.13,-4.47,-2.09,0.10,1.85,2.34,-21.41,-31.66,-9.03,-1.00
24341.00,-9.13,-4.47,-2.09,0.10,1.85,2.34,-21.41,-31.66,-9.03,-1.00
24355.00,-9.38,-2.35,-2.39,0.08,1.79,2.54,-21.41,-31.66,-9.03,-1.00
24367.00,-9.33,-3.10,-2.35,0.13,1.73,2.45,-22.17,-31.34,-8.35,-1.00
24379.00,-9.33,-3.10,-2.35,0.13,1.73,2.45,-22.17,-31.34,-8.35,-1.00
24391.00,-9.28,-1.76,-1.97,0.16,1.64,2.38,-22.17,-31.34,-8.35,-1.00
24406.00,-8.82,-2.98,-3.71,0.25,1.57,2.12,-22.17,-31.34,-8.35,-1.00
24417.00,-8.82,-2.98,-3.71,0.25,1.57,2.12,-22.17,-31.34,-8.35,-1.00
24429.00,-8.72,-3.78,-2.78,0.28,1.36,1.93,-22.17,-31.34,-8.35,-1.00
24443.00,-8.72,-3.78,-2.78,0.28,1.36,1.93,-22.17,-31.34,-8.35,-1.00
24455.00,-9.02,-3.31,-2.40,0.34,1.40,1.91,-22.17,-31.34,-8.35,-1.00
24467.00,-9.12,-4.13,-0.43,0.35,1.52,1.96,-22.17,-31.34,-8.35,-1.00
24479.00,-9.12,-4.13,-0.43,0.35,1.52,1.96,-22.17,-31.34,-8.35,-1.00
24493.00,-9.45,-3.17,-1.45,0.24,1.79,2.13,-21.22,-32.15,-7.84,-1.00
24505.00,-9.27,-3.60,-1.62,0.13,1.81,2.16,-21.22,-32.15,-7.84,-1.00
24517.00,-9.27,-3.60,-1.62,0.13,1.81,2.16,-21.22,-32.15,-7.84,-1.00
24529.00,-9.26,-3.20,-2.24,0.10,1.75,2.23,-21.22,-32.15,-7.84,-1.00
24543.00,-9.16,-3.37,-2.50,0.14,1.65,2.22,-21.22,-32.15,-7.84,-1.00
24555.00,-9.16,-3.37,-2.50,0.14,1.65,2.22,-21.22,-32.15,-7.84,-1.00
24567.00,-9.03,-2.89,-1.60,0.17,1.46,2.11,-21.22,-32.15,-7.84,-1.00
24581.00,-9.03,-2.89,-1.60,0.17,1.46,2.11,-21.22,-32.15,-7.84,-1.00
24668.00,-9.34,-4.07,-1.29,0.25,1.72,2.38,-21.22,-30.19,-8.52,-1.00
24757.00,-9.41,-1.50,-4.47,0.11,1.81,2.17,-23.11,-31.50,-8.86,-1.00
24845.00,-7.87,-4.22,-3.34,0.27,1.40,1.96,-21.04,-30.68,-9.03,-1.00
24859.00,-7.87,-4.22,-3.34,0.27,1.40,1.96,-21.04,-30.68,-9.03,-1.00
24871.00,-8.45,-4.08,-2.18,0.41,1.29,2.14,-21.04,-30.68,-9.03,-1.00
24883.00,-11.14,-2.33,-0.44,0.46,1.35,2.35,-21.04,-30.68,-9.03,-1.00
24895.00,-11.14,-2.33,-0.44,0.46,1.35,2.35,-21.04,-30.68,-9.03,-1.00
24909.00,-9.75,-3.56,0.42,0.36,1.65,2.29,-21.04,-30.68,-9.03,-1.00
24921.00,-9.75,-3.56,0.42,0.36,1.65,2.29,-21.04,-30.68,-9.03,-1.00
24933.00,-9.49,-4.19,-0.38,0.16,1.96,2.36,-21.04,-30.68,-9.03,-1.00
24945.00,-9.35,-3.35,-1.93,-0.01,2.10,2.61,-21.04,-30.68,-9.03,-1.00
24959.00,-9.35,-3.35,-1.93,-0.01,2.10,2.61,-21.04,-30.68,-9.03,-1.00
24971.00,-9.23,-3.61,-1.47,-0.03,2.00,2.75,-23.48,-30.19,-9.20,-1.00
24983.00,-9.31,-2.30,-2.93,-0.03,1.84,2.71,-23.48,-30.19,-9.20,-1.00
24997.00,-9.31,-2.30,-2.93,-0.03,1.84,2.71,-23.48,-30.19,-9.20,-1.00
25009.00,-9.08,-1.71,-4.03,0.14,1.56,2.51,-23.48,-30.19,-9.20,-1.00
25021.00,-9.08,-1.71,-4.03,0.14,1.56,2.51,-23.48,-30.19,-9.20,-1.00
25033.00,-9.06,-2.13,-3.31,0.39,1.17,2.18,-23.48,-30.19,-9.20,-1.00
25047.00,-9.13,-3.25,-1.34,0.49,0.95,1.90,-23.48,-30.19,-9.20,-1.00
25059.00,-9.13,-3.25,-1.34,0.49,0.95,1.90,-23.48,-30.19,-9.20,-1.00
25071.00,-9.34,-2.66,-0.85,0.39,1.15,1.83,-23.48,-30.19,-9.20,-1.00
25083.00,-9.32,-3.70,-0.86,0.37,1.42,1.76,-23.48,-30.19,-9.20,-1.00
25097.00,-9.32,-3.70,-0.86,0.37,1.42,1.76,-23.48,-30.19,-9.20,-1.00
25109.00,-9.24,-4.14,-0.47,0.36,1.71,1.90,-23.29,-30.35,-8.01,-1.00
25121.00,-9.24,-4.14,-0.47,0.36,1.71,1.90,-23.29,-30.35,-8.01,-1.00
25136.00,-9.43,-3.38,-1.64,0.36,1.95,2.09,-23.29,-30.35,-8.01,-1.00
25147.00,-9.29,-4.45,-0.23,0.33,1.89,2.21,-23.29,-30.35,-8.01,-1.00
25159.00,-9.29,-4.45,-0.23,0.33,1.89,2.21,-23.29,-30.35,-8.01,-1.00
25171.00,-9.31,-3.69,-1.02,0.16,1.94,2.44,-23.29,-30.35,-8.01,-1.00
25185.00,-9.60,-3.17,-0.10,0.04,1.88,2.55,-23.29,-30.35,-8.01,-1.00
25197.00,-9.60,-3.17,-0.10,0.04,1.88,2.55,-23.29,-30.35,-8.01,-1.00
25209.00,-9.28,-2.61,-2.73,-0.07,1.87,2.59,-23.29,-30.35,-8.01,-1.00
25221.00,-9.28,-2.61,-2.73,-0.07,1.87,2.59,-23.29,-30.35,-8.01,-1.00
25235.00,-9.31,-1.71,-3.92,0.07,1.61,2.47,-23.11,-30.52,-7.84,-1.00
25247.00,-9.56,-2.29,-1.09,0.31,1.30,2.15,-23.11,-30.52,-7.84,-1.00
25259.00,-9.56,-2.29,-1.09,0.31,1.30,2.15,-23.11,-30.52,-7.84,-1.00
25273.00,-11.95,-1.96,1.01,0.35,1.43,1.91,-23.11,-30.52,-7.84,-1.00
25285.00,-8.63,-3.78,0.45,0.08,1.83,1.57,-23.11,-30.52,-7.84,-1.00
25297.00,-8.63,-3.78,0.45,0.08,1.83,1.57,-23.11,-30.52,-7.84,-1.00
25309.00,-7.79,-4.68,-2.69,-0.06,2.02,1.72,-23.11,-30.52,-7.84,-1.00
25323.00,-7.26,-4.83,-4.77,0.07,1.83,2.08,-23.11,-30.52,-7.84,-1.00
25335.00,-7.26,-4.83,-4.77,0.07,1.83,2.08,-23.11,-30.52,-7.84,-1.00
25347.00,-8.23,-3.87,-3.51,0.33,1.46,2.44,-21.79,-30.35,-7.33,-1.00
