time,ax,ay,az,gx,gy,gz,mx,my,mz,pressure
1.00,-0.17,6.22,-7.78,-0.25,-0.03,-0.02,-14.97,39.35,-12.49,-1.00
13.00,-0.18,6.19,-7.79,-0.25,-0.03,-0.01,-14.97,39.35,-12.49,-1.00
25.00,-0.20,6.20,-7.78,-0.25,-0.03,-0.02,-14.97,39.35,-12.49,-1.00
87.00,-0.21,6.24,-7.78,-0.25,-0.03,-0.02,-12.32,39.35,-12.81,-1.00
99.00,-0.21,6.24,-7.78,-0.25,-0.03,-0.02,-12.32,39.35,-12.81,-1.00
111.00,-0.18,6.23,-7.76,-0.25,-0.03,-0.02,-12.32,39.35,-12.81,-1.00
123.00,-0.18,6.23,-7.76,-0.25,-0.03,-0.02,-12.32,39.35,-12.81,-1.00
137.00,-0.18,6.23,-7.76,-0.25,-0.03,-0.02,-12.32,39.35,-12.81,-1.00
149.00,-0.19,6.22,-7.76,-0.25,-0.03,-0.02,-12.32,39.35,-12.81,-1.00
161.00,-0.19,6.22,-7.76,-0.25,-0.03,-0.02,-12.32,39.35,-12.81,-1.00
173.00,-0.20,6.21,-7.77,-0.25,-0.03,-0.02,-13.46,37.25,-12.81,-1.00
187.00,-0.22,6.21,-7.77,-0.25,-0.03,-0.02,-13.46,37.25,-12.81,-1.00
199.00,-0.22,6.21,-7.77,-0.25,-0.03,-0.02,-13.46,37.25,-12.81,-1.00
211.00,-0.19,6.20,-7.79,-0.25,-0.03,-0.02,-13.46,37.25,-12.81,-1.00
223.00,-0.19,6.20,-7.79,-0.25,-0.03,-0.02,-13.46,37.25,-12.81,-1.00
238.00,-0.17,6.20,-7.78,-0.25,-0.03,-0.02,-13.46,37.25,-12.81,-1.00
249.00,-0.17,6.20,-7.79,-0.25,-0.03,-0.02,-13.46,37.25,-12.81,-1.00
261.00,-0.17,6.20,-7.79,-0.25,-0.03,-0.02,-13.46,37.25,-12.81,-1.00
275.00,-0.19,6.22,-7.79,-0.25,-0.03,-0.02,-13.46,37.25,-12.81,-1.00
287.00,-0.20,6.21,-7.78,-0.25,-0.03,-0.02,-14.22,38.65,-12.17,-1.00
299.00,-0.20,6.21,-7.78,-0.25,-0.03,-0.02,-14.22,38.65,-12.17,-1.00
311.00,-0.21,6.21,-7.80,-0.25,-0.03,-0.02,-14.22,38.65,-12.17,-1.00
325.00,-0.21,6.22,-7.79,-0.25,-0.03,-0.02,-14.22,38.65,-12.17,-1.00
337.00,-0.21,6.22,-7.79,-0.25,-0.03,-0.02,-14.22,38.65,-12.17,-1.00
349.00,-0.20,6.22,-7.78,-0.25,-0.03,-0.02,-14.22,38.65,-12.17,-1.00
361.00,-0.20,6.22,-7.78,-0.25,-0.03,-0.02,-14.22,38.65,-12.17,-1.00
375.00,-0.21,6.23,-7.76,-0.25,-0.03,-0.02,-14.22,38.65,-12.17,-1.00
387.00,-0.20,6.22,-7.77,-0.25,-0.03,-0.02,-14.22,38.65,-12.17,-1.00
399.00,-0.20,6.22,-7.77,-0.25,-0.03,-0.02,-14.22,38.65,-12.17,-1.00
413.00,-0.20,6.22,-7.79,-0.25,-0.03,-0.02,-12.32,39.00,-13.44,-1.00
425.00,-0.19,6.20,-7.78,-0.25,-0.03,-0.02,-12.32,39.00,-13.44,-1.00
437.00,-0.19,6.20,-7.78,-0.25,-0.03,-0.02,-12.32,39.00,-13.44,-1.00
449.00,-0.19,6.20,-7.78,-0.25,-0.03,-0.02,-12.32,39.00,-13.44,-1.00
463.00,-0.19,6.20,-7.78,-0.25,-0.03,-0.02,-12.32,39.00,-13.44,-1.00
475.00,-0.17,6.19,-7.78,-0.25,-0.03,-0.02,-12.32,39.00,-13.44,-1.00
487.00,-0.19,6.20,-7.78,-0.25,-0.03,-0.02,-12.32,39.00,-13.44,-1.00
499.00,-0.19,6.20,-7.78,-0.25,-0.03,-0.02,-12.32,39.00,-13.44,-1.00
514.00,-0.20,6.21,-7.79,-0.25,-0.03,-0.02,-12.32,39.00,-13.44,-1.00
525.00,-0.20,6.22,-7.76,-0.25,-0.03,-0.02,-13.27,38.47,-12.97,-1.00
537.00,-0.20,6.22,-7.76,-0.25,-0.03,-0.02,-13.27,38.47,-12.97,-1.00
549.00,-0.21,6.22,-7.79,-0.25,-0.03,-0.02,-13.27,38.47,-12.97,-1.00
563.00,-0.22,6.21,-7.79,-0.25,-0.03,-0.02,-13.27,38.47,-12.97,-1.00
575.00,-0.22,6.21,-7.79,-0.25,-0.03,-0.02,-13.27,38.47,-12.97,-1.00
587.00,-0.19,6.22,-7.75,-0.25,-0.03,-0.02,-13.27,38.47,-12.97,-1.00
601.00,-0.19,6.22,-7.75,-0.25,-0.03,-0.02,-13.27,38.47,-12.97,-1.00
613.00,-0.19,6.21,-7.79,-0.25,-0.03,-0.02,-13.27,38.47,-12.97,-1.00
625.00,-0.18,6.23,-7.79,-0.25,-0.03,-0.02,-13.27,38.47,-12.97,-1.00
637.00,-0.18,6.23,-7.79,-0.25,-0.03,-0.02,-13.27,38.47,-12.97,-1.00
651.00,-0.18,6.18,-7.77,-0.25,-0.03,-0.02,-13.27,38.47,-12.97,-1.00
663.00,-0.17,6.21,-7.82,-0.25,-0.03,-0.02,-13.46,38.47,-12.97,-1.00
675.00,-0.17,6.21,-7.82,-0.25,-0.03,-0.02,-13.46,38.30,-11.54,-1.00
688.00,-0.18,6.21,-7.79,-0.25,-0.03,-0.02,-13.46,38.30,-11.54,-1.00
701.00,-0.18,6.21,-7.79,-0.25,-0.03,-0.02,-13.46,38.30,-11.54,-1.00
713.00,-0.19,6.20,-7.78,-0.25,-0.03,-0.02,-13.46,38.30,-11.54,-1.00
725.00,-0.21,6.21,-7.78,-0.25,-0.03,-0.02,-13.46,38.30,-11.54,-1.00
739.00,-0.21,6.21,-7.78,-0.25,-0.03,-0.02,-13.46,38.30,-11.54,-1.00
751.00,-0.21,6.21,-7.78,-0.25,-0.03,-0.02,-13.46,38.30,-11.54,-1.00
763.00,-0.21,6.22,-7.77,-0.25,-0.03,-0.02,-13.46,38.30,-11.54,-1.00
775.00,-0.21,6.22,-7.77,-0.25,-0.03,-0.02,-13.46,38.30,-11.54,-1.00
789.00,-0.19,6.22,-7.81,-0.25,-0.03,-0.02,-12.70,36.90,-11.86,-1.00
801.00,-0.19,6.22,-7.81,-0.25,-0.03,-0.02,-12.70,36.90,-11.86,-1.00
813.00,-0.20,6.20,-7.79,-0.25,-0.03,-0.02,-12.70,36.90,-11.86,-1.00
825.00,-0.20,6.21,-7.82,-0.25,-0.04,-0.02,-12.70,36.90,-11.86,-1.00
840.00,-0.20,6.21,-7.82,-0.25,-0.04,-0.02,-12.70,36.90,-11.86,-1.00
852.00,-0.19,6.21,-7.80,-0.25,-0.04,-0.02,-12.70,36.90,-11.86,-1.00
864.00,-0.19,6.20,-7.82,-0.25,-0.03,-0.02,-12.70,36.90,-11.86,-1.00
876.00,-0.19,6.20,-7.82,-0.25,-0.03,-0.02,-12.70,36.90,-11.86,-1.00
890.00,-0.27,6.17,-7.78,-0.25,-0.03,-0.02,-12.70,36.90,-11.86,-1.00
902.00,-0.27,6.17,-7.78,-0.25,-0.03,-0.02,-12.70,36.90,-11.86,-1.00
914.00,-0.27,6.21,-7.82,-0.25,-0.03,-0.02,-13.08,38.30,-12.17,-1.00
928.00,-0.20,6.23,-7.77,-0.25,-0.03,-0.02,-13.08,38.30,-12.17,-1.00
940.00,-0.20,6.23,-7.77,-0.25,-0.03,-0.02,-13.08,38.30,-12.17,-1.00
952.00,-0.13,6.24,-7.76,-0.25,-0.03,-0.01,-13.08,38.30,-12.17,-1.00
964.00,-0.09,6.23,-7.77,-0.25,-0.03,-0.01,-13.08,38.30,-12.17,-1.00
978.00,-0.09,6.23,-7.77,-0.25,-0.03,-0.01,-13.08,38.30,-12.17,-1.00
990.00,-0.09,6.19,-7.72,-0.25,-0.03,-0.02,-13.08,38.30,-12.17,-1.00
1002.00,-0.09,6.19,-7.72,-0.25,-0.03,-0.02,-13.08,38.30,-12.17,-1.00
1014.00,-0.13,6.20,-7.79,-0.25,-0.04,-0.02,-13.08,38.30,-12.17,-1.00
1028.00,-0.22,6.20,-7.86,-0.25,-0.04,-0.02,-14.41,37.77,-12.33,-1.00
1040.00,-0.22,6.20,-7.86,-0.25,-0.04,-0.02,-14.41,37.77,-12.33,-1.00
1052.00,-0.27,6.14,-7.82,-0.25,-0.04,-0.02,-14.41,37.77,-12.33,-1.00
1066.00,-0.33,6.16,-7.84,-0.25,-0.03,-0.02,-14.41,37.77,-12.33,-1.00
1078.00,-0.33,6.16,-7.84,-0.25,-0.03,-0.02,-14.41,37.77,-12.33,-1.00
1090.00,-0.30,6.18,-7.84,-0.25,-0.03,-0.02,-14.41,37.77,-12.33,-1.00
1102.00,-0.30,6.18,-7.84,-0.25,-0.03,-0.02,-14.41,37.77,-12.33,-1.00
1117.00,-0.27,6.18,-7.78,-0.25,-0.03,-0.02,-14.41,37.77,-12.33,-1.00
1128.00,-0.21,6.26,-7.79,-0.26,-0.03,-0.01,-14.41,37.77,-12.33,-1.00
1140.00,-0.21,6.26,-7.79,-0.26,-0.03,-0.01,-14.41,37.77,-12.33,-1.00
1152.00,-0.14,6.26,-7.75,-0.26,-0.03,-0.01,-12.70,37.95,-13.44,-1.00
1166.00,-0.09,6.25,-7.71,-0.25,-0.03,-0.01,-12.70,37.95,-13.44,-1.00
1178.00,-0.09,6.25,-7.71,-0.25,-0.03,-0.01,-12.70,37.95,-13.44,-1.00
1190.00,-0.10,6.26,-7.76,-0.25,-0.03,-0.02,-12.70,37.95,-13.44,-1.00
1204.00,-0.14,6.22,-7.77,-0.25,-0.03,-0.02,-12.70,37.95,-13.44,-1.00
1216.00,-0.14,6.22,-7.77,-0.25,-0.03,-0.02,-12.70,37.95,-13.44,-1.00
1228.00,-0.19,6.17,-7.76,-0.25,-0.03,-0.02,-12.70,37.95,-13.44,-1.00
1240.00,-0.19,6.17,-7.76,-0.25,-0.03,-0.02,-12.70,37.95,-13.44,-1.00
1255.00,-0.25,6.16,-7.84,-0.25,-0.03,-0.02,-12.70,37.95,-13.44,-1.00
1266.00,-0.26,6.16,-7.84,-0.25,-0.04,-0.02,-12.70,37.95,-13.44,-1.00
1278.00,-0.26,6.16,-7.84,-0.25,-0.04,-0.02,-12.70,37.95,-13.44,-1.00
1290.00,-0.25,6.16,-7.88,-0.25,-0.03,-0.02,-12.14,39.52,-12.97,-1.00
1304.00,-0.21,6.17,-7.81,-0.25,-0.03,-0.01,-12.14,39.52,-12.97,-1.00
1316.00,-0.21,6.17,-7.81,-0.25,-0.03,-0.01,-12.14,39.52,-12.97,-1.00
1328.00,-0.19,6.21,-7.73,-0.25,-0.03,-0.01,-12.14,39.52,-12.97,-1.00
1342.00,-0.16,6.24,-7.74,-0.25,-0.03,-0.01,-12.14,39.52,-12.97,-1.00
1431.00,-0.23,6.22,-7.80,-0.25,-0.03,-0.02,-12.89,38.12,-13.28,-1.00
1518.00,-0.20,6.17,-7.82,-0.25,-0.03,-0.01,-12.89,38.12,-13.28,-1.00
1607.00,-0.22,6.23,-7.77,-0.25,-0.03,-0.02,-13.65,38.47,-12.33,-1.00
1620.00,-0.22,6.23,-7.77,-0.25,-0.03,-0.02,-13.65,38.47,-12.33,-1.00
1632.00,-0.24,6.21,-7.77,-0.25,-0.03,-0.02,-13.65,38.47,-12.33,-1.00
1644.00,-0.27,6.21,-7.80,-0.25,-0.03,-0.02,-13.27,38.47,-12.33,-1.00
1656.00,-0.27,6.21,-7.80,-0.25,-0.03,-0.02,-13.27,38.47,-12.33,-1.00
1670.00,-0.25,6.21,-7.82,-0.25,-0.03,-0.02,-13.27,38.47,-12.33,-1.00
1683.00,-0.23,6.14,-7.76,-0.25,-0.03,-0.01,-13.27,38.47,-12.33,-1.00
1695.00,-0.23,6.14,-7.76,-0.25,-0.03,-0.01,-13.27,38.47,-12.33,-1.00
1709.00,-0.17,6.22,-7.84,-0.25,-0.03,-0.02,-13.27,38.47,-12.33,-1.00
1721.00,-0.17,6.22,-7.84,-0.25,-0.03,-0.02,-13.27,38.47,-12.33,-1.00
1733.00,-0.14,6.17,-7.75,-0.25,-0.03,-0.02,-13.27,38.47,-12.33,-1.00
1745.00,-0.14,6.20,-7.78,-0.25,-0.03,-0.02,-13.27,38.47,-12.33,-1.00
1759.00,-0.14,6.20,-7.78,-0.25,-0.03,-0.02,-13.27,38.47,-12.33,-1.00
1771.00,-0.17,6.22,-7.80,-0.25,-0.03,-0.02,-14.59,40.04,-12.17,-1.00
1783.00,-0.21,6.18,-7.78,-0.25,-0.03,-0.02,-14.59,40.04,-12.17,-1.00
1795.00,-0.21,6.18,-7.78,-0.25,-0.03,-0.02,-14.59,40.04,-12.17,-1.00
1809.00,-1.27,6.40,-7.65,-0.26,0.00,-0.08,-14.59,40.04,-12.17,-1.00
1821.00,-1.27,6.40,-7.65,-0.26,0.00,-0.08,-14.59,40.04,-12.17,-1.00
1833.00,-0.18,6.23,-7.76,-0.27,0.66,-0.87,-14.59,40.04,-12.17,-1.00
1848.00,-0.06,6.12,-7.79,-0.26,0.81,-1.06,-14.59,40.04,-12.17,-1.00
1859.00,-0.06,6.12,-7.79,-0.26,0.81,-1.06,-14.59,40.04,-12.17,-1.00
1871.00,-0.59,6.13,-7.89,-0.26,0.56,-0.76,-14.59,40.04,-12.17,-1.00
1883.00,0.08,6.25,-7.82,-0.26,0.59,-0.79,-15.16,37.42,-13.28,-1.00
1897.00,0.08,6.25,-7.82,-0.26,0.59,-0.79,-15.16,37.42,-13.28,-1.00
1909.00,0.33,6.28,-7.69,-0.27,0.47,-0.65,-15.16,37.42,-13.28,-1.00
1921.00,0.33,6.28,-7.69,-0.27,0.47,-0.65,-15.16,37.42,-13.28,-1.00
1933.00,0.62,6.54,-8.11,-0.25,0.18,-0.29,-15.16,37.42,-13.28,-1.00
1947.00,0.10,6.88,-11.10,-0.52,-0.71,0.49,-15.16,37.42,-13.28,-1.00
1959.00,0.10,6.88,-11.10,-0.52,-0.71,0.49,-15.16,37.42,-13.28,-1.00
1971.00,-0.03,8.47,-9.40,0.11,-0.16,0.53,-15.16,37.42,-13.28,-1.00
1985.00,-0.52,9.83,-12.99,2.67,-0.06,0.33,-15.16,37.42,-13.28,-1.00
1997.00,-0.52,9.83,-12.99,2.67,-0.06,0.33,-15.16,37.42,-13.28,-1.00
2009.00,-2.10,5.98,-9.30,7.73,0.18,0.29,-15.16,37.42,-13.28,-1.00
2021.00,-2.10,5.98,-9.30,7.73,0.18,0.29,-15.16,37.42,-13.28,-1.00
2035.00,-2.43,5.41,-12.39,11.20,0.86,0.28,-14.41,30.08,-22.47,-1.00
2047.00,0.25,-0.47,-3.84,16.03,1.76,0.56,-14.41,30.08,-22.47,-1.00
2059.00,0.25,-0.47,-3.84,16.03,1.76,0.56,-14.41,30.08,-22.47,-1.00
2071.00,2.62,-7.44,-7.13,11.58,2.41,0.61,-14.41,30.08,-22.47,-1.00
2085.00,2.60,-11.75,-11.42,6.99,2.57,0.88,-14.41,30.08,-22.47,-1.00
2097.00,2.60,-11.75,-11.42,6.99,2.57,0.88,-14.41,30.08,-22.47,-1.00
2109.00,3.51,-14.28,-14.42,5.95,2.40,1.69,-14.41,30.08,-22.47,-1.00
2121.00,3.51,-14.28,-14.42,5.95,2.40,1.69,-14.41,30.08,-22.47,-1.00
2135.00,6.13,-7.76,-21.90,5.82,0.60,1.92,-14.41,30.08,-22.47,-1.00
2147.00,4.07,-2.27,-19.57,6.00,-2.54,1.57,-3.05,-28.27,-35.14,-1.00
2159.00,4.07,-2.27,-19.57,6.00,-2.54,1.57,-3.05,-28.27,-35.14,-1.00
2174.00,3.81,-1.86,-11.22,6.73,-4.84,1.39,-3.05,-28.27,-35.14,-1.00
2185.00,-0.92,-3.41,-8.79,7.00,-6.44,1.98,-3.05,-28.27,-35.14,-1.00
2197.00,-0.92,-3.41,-8.79,7.00,-6.44,1.98,-3.05,-28.27,-35.14,-1.00
2209.00,4.25,-4.92,-3.39,7.82,-7.40,3.50,-3.05,-28.27,-35.14,-1.00
2223.00,4.24,-5.92,-1.82,5.00,-7.88,3.88,-3.05,-28.27,-35.14,-1.00
2235.00,4.24,-5.92,-1.82,5.00,-7.88,3.88,-3.05,-28.27,-35.14,-1.00
2247.00,3.95,-4.25,-5.34,3.06,-8.49,3.16,-3.05,-28.27,-35.14,-1.00
2259.00,3.95,-4.25,-5.34,3.06,-8.49,3.16,-3.05,-28.27,-35.14,-1.00
2273.00,8.21,-4.76,-0.30,5.39,-8.81,3.43,-32.57,-35.96,11.42,-1.00
2285.00,9.66,-8.20,13.98,4.68,-9.23,4.72,-32.57,-35.96,11.42,-1.00
2297.00,9.66,-8.20,13.98,4.68,-9.23,4.72,-32.57,-35.96,11.42,-1.00
2309.00,5.71,-4.64,7.24,3.63,-7.19,6.70,-32.57,-35.96,11.42,-1.00
2323.00,6.29,-2.40,4.57,-1.83,-7.21,6.51,-32.57,-35.96,11.42,-1.00
2335.00,6.29,-2.40,4.57,-1.83,-7.21,6.51,-32.57,-35.96,11.42,-1.00
2347.00,2.90,2.04,12.85,0.74,-6.91,5.79,-32.57,-35.96,11.42,-1.00
2361.00,-6.19,13.11,15.99,7.44,-3.73,5.59,-32.57,-35.96,11.42,-1.00
2373.00,-6.19,13.11,15.99,7.44,-3.73,5.59,-32.57,-35.96,11.42,-1.00
2385.00,-4.13,3.50,6.00,6.15,-0.62,2.39,-25.19,4.05,40.41,-1.00
2397.00,-4.13,3.50,6.00,6.15,-0.62,2.39,-25.19,4.05,40.41,-1.00
2411.00,-5.68,-3.92,6.45,2.61,-0.82,0.14,-25.19,4.05,40.41,-1.00
2423.00,-6.39,-9.99,13.75,0.27,-1.23,0.13,-25.19,4.05,40.41,-1.00
2435.00,-6.39,-9.99,13.75,0.27,-1.23,0.13,-25.19,4.05,40.41,-1.00
2447.00,-8.79,-5.84,7.80,-0.60,-0.55,1.49,-25.19,4.05,40.41,-1.00
2461.00,-5.10,-1.64,7.82,0.35,-0.45,2.20,-25.19,4.05,40.41,-1.00
2473.00,-5.10,-1.64,7.82,0.35,-0.45,2.20,-25.19,4.05,40.41,-1.00
2485.00,-3.78,1.91,9.55,1.46,-0.37,1.85,-25.19,4.05,40.41,-1.00
2497.00,-3.78,1.91,9.55,1.46,-0.37,1.85,-25.19,4.05,40.41,-1.00
2511.00,-5.34,0.57,7.72,2.54,-0.09,0.96,-21.78,14.18,41.04,-1.00
2523.00,-5.53,1.21,8.34,4.90,0.04,0.88,-21.78,14.18,41.04,-1.00
2535.00,-5.53,1.21,8.34,4.90,0.04,0.88,-21.78,14.18,41.04,-1.00
2547.00,-6.93,2.86,11.76,5.64,0.22,0.62,-21.78,14.18,41.04,-1.00
2561.00,-5.18,4.40,6.89,4.87,0.55,-0.10,-21.78,14.18,41.04,-1.00
2573.00,-5.18,4.40,6.89,4.87,0.55,-0.10,-21.78,14.18,41.04,-1.00
2585.00,-5.60,4.21,8.96,7.13,0.78,-0.25,-21.78,14.18,41.04,-1.00
2597.00,-5.60,4.21,8.96,7.13,0.78,-0.25,-21.78,14.18,41.04,-1.00
2612.00,-6.51,3.37,9.51,7.14,0.78,-0.48,-21.78,14.18,41.04,-1.00
2623.00,-6.54,1.88,9.75,4.79,0.32,-0.77,-26.89,33.58,16.18,-1.00
2635.00,-6.54,1.88,9.75,4.79,0.32,-0.77,-26.89,33.58,16.18,-1.00
2647.00,-7.65,1.33,9.74,0.51,-0.23,-0.88,-26.89,33.58,16.18,-1.00
2661.00,-7.97,1.83,9.97,-3.69,-0.33,-0.87,-26.89,33.58,16.18,-1.00
2673.00,-7.97,1.83,9.97,-3.69,-0.33,-0.87,-26.89,33.58,16.18,-1.00
2685.00,-6.31,3.83,10.28,-7.42,-0.22,-1.24,-26.89,33.58,16.18,-1.00
2699.00,-6.31,3.83,10.28,-7.42,-0.22,-1.24,-26.89,33.58,16.18,-1.00
2711.00,-6.79,5.20,12.50,-12.46,-0.10,-2.05,-26.89,33.58,16.18,-1.00
2723.00,-2.34,7.76,4.75,-14.90,0.64,-2.72,-26.89,33.58,16.18,-1.00
2735.00,-2.34,7.76,4.75,-14.90,0.64,-2.72,-26.89,33.58,16.18,-1.00
2749.00,-5.61,-0.98,7.99,-8.26,1.61,-2.55,-26.89,33.58,16.18,-1.00
2761.00,-5.44,-7.64,6.00,-5.45,2.18,-2.28,-32.38,1.95,38.19,-1.00
2773.00,-5.44,-7.64,6.00,-5.45,2.18,-2.28,-32.38,1.95,38.19,-1.00
2785.00,-5.26,-8.19,1.99,-4.69,1.78,-0.96,-32.38,1.95,38.19,-1.00
2799.00,-5.26,-8.19,1.99,-4.69,1.78,-0.96,-32.38,1.95,38.19,-1.00
2811.00,-6.65,-4.88,6.65,-5.43,0.62,0.06,-32.38,1.95,38.19,-1.00
2823.00,-5.36,-5.10,4.48,-6.18,0.57,0.16,-32.38,1.95,38.19,-1.00
2835.00,-5.36,-5.10,4.48,-6.18,0.57,0.16,-32.38,1.95,38.19,-1.00
2849.00,-4.87,-5.76,0.78,-4.64,0.66,0.41,-32.38,1.95,38.19,-1.00
2861.00,-7.20,-6.29,3.51,-2.71,0.32,0.59,-32.38,1.95,38.19,-1.00
2873.00,-7.20,-6.29,3.51,-2.71,0.32,0.59,-32.38,1.95,38.19,-1.00
2885.00,-6.94,-6.53,3.45,-1.84,0.48,0.46,-34.08,-16.39,34.87,-1.00
2899.00,-6.94,-6.53,3.45,-1.84,0.48,0.46,-34.08,-16.39,34.87,-1.00
2911.00,-6.35,-7.02,1.97,-1.35,0.60,0.39,-34.08,-16.39,34.87,-1.00
2923.00,-7.10,-6.71,2.05,-0.89,0.39,0.52,-34.08,-16.39,34.87,-1.00
2938.00,-7.10,-6.71,2.05,-0.89,0.39,0.52,-34.08,-16.39,34.87,-1.00
2949.00,-6.87,-6.66,2.36,-0.74,0.17,0.51,-34.08,-16.39,34.87,-1.00
2961.00,-6.80,-6.10,2.27,-0.70,0.13,0.45,-34.08,-16.39,34.87,-1.00
2973.00,-6.80,-6.10,2.27,-0.70,0.13,0.45,-34.08,-16.39,34.87,-1.00
2987.00,-6.73,-6.41,2.41,-0.64,0.11,0.35,-34.08,-16.39,34.87,-1.00
2999.00,-6.73,-6.41,2.41,-0.64,0.11,0.35,-34.08,-16.39,34.87,-1.00
3011.00,-6.78,-6.39,1.86,-0.45,0.14,0.35,-36.73,-15.34,32.01,-1.00
3023.00,-7.11,-6.51,1.85,-0.27,0.12,0.33,-36.73,-15.34,32.01,-1.00
3037.00,-7.11,-6.51,1.85,-0.27,0.12,0.33,-36.73,-15.34,32.01,-1.00
3049.00,-6.72,-6.52,2.30,-0.20,0.10,0.33,-36.73,-15.34,32.01,-1.00
3061.00,-7.07,-6.29,2.28,-0.21,0.10,0.41,-36.73,-15.34,32.01,-1.00
3073.00,-7.07,-6.29,2.28,-0.21,0.10,0.41,-36.73,-15.34,32.01,-1.00
3087.00,-7.24,-6.07,2.51,-0.25,0.06,0.43,-36.73,-15.34,32.01,-1.00
3099.00,-7.24,-6.07,2.51,-0.25,0.06,0.43,-36.73,-15.34,32.01,-1.00
3111.00,-7.65,-6.06,2.27,-0.28,0.07,0.40,-36.73,-15.34,32.01,-1.00
3125.00,-7.72,-6.12,1.86,-0.29,0.05,0.34,-37.11,-11.85,31.70,-1.00
3137.00,-7.72,-6.12,1.86,-0.29,0.05,0.34,-37.11,-11.85,31.70,-1.00
3149.00,-7.83,-6.06,2.27,-0.37,-0.04,0.22,-37.11,-11.85,31.70,-1.00
3161.00,-7.61,-6.09,2.15,-0.46,-0.11,0.12,-37.11,-11.85,31.70,-1.00
3175.00,-7.61,-6.09,2.15,-0.46,-0.11,0.12,-37.11,-11.85,31.70,-1.00
3187.00,-7.55,-6.27,2.48,-0.49,-0.17,0.09,-37.11,-11.85,31.70,-1.00
3199.00,-7.55,-6.27,2.48,-0.49,-0.17,0.09,-37.11,-11.85,31.70,-1.00
3211.00,-7.54,-6.08,2.42,-0.37,-0.12,0.08,-37.11,-11.85,31.70,-1.00
3225.00,-7.64,-5.97,2.28,-0.31,-0.02,0.06,-37.11,-11.85,31.70,-1.00
3237.00,-7.64,-5.97,2.28,-0.31,-0.02,0.06,-37.11,-11.85,31.70,-1.00
3249.00,-7.62,-6.24,1.91,-0.26,0.09,0.03,-37.87,-14.30,32.33,-1.00
3261.00,-8.34,-6.49,3.85,-0.14,0.18,0.01,-37.87,-14.30,32.33,-1.00
3275.00,-8.34,-6.49,3.85,-0.14,0.18,0.01,-37.87,-14.30,32.33,-1.00
3287.00,-7.97,-5.78,1.76,-0.11,0.65,0.03,-37.87,-14.30,32.33,-1.00
3299.00,-7.97,-5.78,1.76,-0.11,0.65,0.03,-37.87,-14.30,32.33,-1.00
3313.00,-7.60,-5.74,1.66,-0.05,0.86,0.05,-37.87,-14.30,32.33,-1.00
3325.00,-7.04,-5.78,0.65,-0.06,0.90,0.03,-37.87,-14.30,32.33,-1.00
3337.00,-7.04,-5.78,0.65,-0.06,0.90,0.03,-37.87,-14.30,32.33,-1.00
3349.00,-7.10,-5.95,1.04,-0.10,0.63,0.02,-37.87,-14.30,32.33,-1.00
3364.00,-7.36,-5.97,1.63,-0.20,0.31,-0.00,-37.87,-14.30,32.33,-1.00
3375.00,-7.36,-5.97,1.63,-0.20,0.31,-0.00,-37.87,-14.30,32.33,-1.00
3387.00,-7.62,-5.95,1.66,-0.32,0.13,-0.03,-40.32,-12.02,28.37,-1.00
3399.00,-7.62,-5.95,1.66,-0.32,0.13,-0.03,-40.32,-12.02,28.37,-1.00
3413.00,-7.80,-5.09,1.66,-0.30,0.06,-0.06,-40.32,-12.02,28.37,-1.00
3425.00,-7.87,-4.82,1.01,-0.26,-0.01,-0.19,-40.32,-12.02,28.37,-1.00
3437.00,-7.87,-4.82,1.01,-0.26,-0.01,-0.19,-40.32,-12.02,28.37,-1.00
3449.00,-7.35,-6.10,0.26,-0.35,-0.27,-0.34,-40.32,-12.02,28.37,-1.00
3463.00,-8.48,-6.04,2.44,-0.49,-0.56,-0.41,-40.32,-12.02,28.37,-1.00
3475.00,-8.48,-6.04,2.44,-0.49,-0.56,-0.41,-40.32,-12.02,28.37,-1.00
3487.00,-7.45,-5.93,1.55,-0.61,-0.49,-0.56,-40.32,-12.02,28.37,-1.00
3501.00,-7.15,-6.56,1.59,-0.67,-0.54,-0.59,-37.87,-14.99,30.43,-1.00
3513.00,-7.15,-6.56,1.59,-0.67,-0.54,-0.59,-37.87,-14.99,30.43,-1.00
3525.00,-6.63,-7.27,1.69,-0.58,-0.48,-0.47,-37.87,-14.99,30.43,-1.00
3537.00,-6.63,-7.27,1.69,-0.58,-0.48,-0.47,-37.87,-14.99,30.43,-1.00
3552.00,-6.39,-7.36,1.26,-0.39,-0.32,-0.24,-37.87,-14.99,30.43,-1.00
3564.00,-6.86,-6.92,1.50,-0.19,-0.23,-0.02,-37.87,-14.99,30.43,-1.00
3576.00,-6.86,-6.92,1.50,-0.19,-0.23,-0.02,-37.87,-14.99,30.43,-1.00
3588.00,-7.21,-6.50,1.80,-0.06,-0.19,0.09,-37.87,-14.99,30.43,-1.00
3602.00,-7.21,-6.47,2.05,-0.02,-0.16,0.11,-37.87,-14.99,30.43,-1.00
3614.00,-7.21,-6.47,2.05,-0.02,-0.16,0.11,-37.87,-14.99,30.43,-1.00
3626.00,-6.86,-6.79,1.72,-0.01,-0.14,0.14,-37.87,-14.64,32.01,-1.00
3640.00,-6.67,-6.95,1.56,0.02,-0.17,0.24,-37.87,-14.64,32.01,-1.00
3652.00,-6.67,-6.95,1.56,0.02,-0.17,0.24,-37.87,-14.64,32.01,-1.00
3664.00,-8.35,-6.21,1.59,0.08,-0.19,0.37,-37.87,-14.64,32.01,-1.00
3676.00,-8.35,-6.21,1.59,0.08,-0.19,0.37,-37.87,-14.64,32.01,-1.00
3690.00,-8.14,-5.80,2.41,-0.01,-0.24,0.30,-37.87,-14.64,32.01,-1.00
3778.00,-7.80,-5.46,2.78,-0.22,-0.15,0.20,-36.35,-13.25,30.43,-1.00
3867.00,-7.09,-6.16,1.43,-0.70,-0.02,0.09,-39.00,-13.95,32.65,-1.00
3954.00,-8.50,-5.85,1.99,-0.40,0.10,-0.44,-39.00,-13.95,32.65,-1.00
3968.00,-6.91,-7.08,1.67,-0.39,0.10,-0.64,-39.00,-13.95,32.65,-1.00
3980.00,-6.12,-7.68,1.50,-0.36,0.03,-0.44,-38.43,-14.82,31.54,-1.00
3992.00,-6.12,-7.68,1.50,-0.36,0.03,-0.44,-38.43,-14.82,31.54,-1.00
4006.00,-6.40,-7.40,1.51,-0.33,-0.03,-0.13,-38.43,-14.82,31.54,-1.00
4018.00,-6.40,-7.40,1.51,-0.33,-0.03,-0.13,-38.43,-14.82,31.54,-1.00
4030.00,-6.46,-7.21,1.61,-0.28,-0.05,0.08,-38.43,-14.82,31.54,-1.00
4042.00,-7.11,-6.73,1.87,-0.24,-0.07,0.30,-38.43,-14.82,31.54,-1.00
4056.00,-7.11,-6.73,1.87,-0.24,-0.07,0.30,-38.43,-14.82,31.54,-1.00
4068.00,-8.00,-6.32,2.05,-0.29,-0.06,0.41,-38.43,-14.82,31.54,-1.00
4080.00,-7.80,-5.69,2.27,-0.30,0.00,0.32,-38.43,-14.82,31.54,-1.00
4092.00,-7.80,-5.69,2.27,-0.30,0.00,0.32,-38.43,-14.82,31.54,-1.00
4106.00,-7.83,-5.80,1.72,-0.27,0.12,0.18,-38.43,-14.82,31.54,-1.00
4118.00,-7.83,-5.80,1.72,-0.27,0.12,0.18,-38.43,-14.82,31.54,-1.00
4130.00,-7.87,-6.10,2.33,-0.21,0.19,0.09,-38.05,-13.77,31.54,-1.00
4142.00,-7.99,-6.47,2.21,-0.16,0.40,0.06,-38.05,-13.77,31.54,-1.00
4156.00,-7.99,-6.47,2.21,-0.16,0.40,0.06,-38.05,-13.77,31.54,-1.00
4168.00,-7.67,-5.76,1.84,-0.18,0.61,0.09,-38.05,-13.77,31.54,-1.00
4180.00,-7.45,-5.87,1.98,-0.19,0.70,0.06,-38.05,-13.77,31.54,-1.00
4194.00,-7.45,-5.87,1.98,-0.19,0.70,0.06,-38.05,-13.77,31.54,-1.00
4206.00,-7.45,-6.31,1.50,-0.21,0.65,0.02,-38.05,-13.77,31.54,-1.00
4218.00,-7.45,-6.31,1.50,-0.21,0.65,0.02,-38.05,-13.77,31.54,-1.00
4230.00,-7.36,-5.61,0.44,-0.23,0.54,0.05,-38.05,-13.77,31.54,-1.00
4245.00,-7.56,-6.13,1.02,-0.22,0.32,-0.00,-39.95,-13.42,28.37,-1.00
4256.00,-7.56,-6.13,1.02,-0.22,0.32,-0.00,-39.95,-13.42,28.37,-1.00
4268.00,-7.51,-5.93,0.65,-0.22,0.19,0.00,-39.95,-13.42,28.37,-1.00
4280.00,-7.62,-6.16,1.02,-0.23,0.01,-0.01,-39.95,-13.42,28.37,-1.00
4294.00,-7.62,-6.16,1.02,-0.23,0.01,-0.01,-39.95,-13.42,28.37,-1.00
4306.00,-7.59,-6.23,1.03,-0.22,-0.06,0.00,-39.95,-13.42,28.37,-1.00
4318.00,-7.59,-6.23,1.03,-0.22,-0.06,0.00,-39.95,-13.42,28.37,-1.00
4330.00,-7.34,-6.35,1.24,-0.30,-0.18,0.00,-39.95,-13.42,28.37,-1.00
4344.00,-7.51,-6.06,0.61,-0.37,-0.38,0.01,-39.95,-13.42,28.37,-1.00
4356.00,-7.51,-6.06,0.61,-0.37,-0.38,0.01,-39.95,-13.42,28.37,-1.00
4368.00,-7.64,-6.34,1.52,-0.37,-0.48,0.03,-39.76,-13.95,28.85,-1.00
4382.00,-7.95,-5.96,1.59,-0.41,-0.44,0.05,-39.76,-13.95,28.85,-1.00
4394.00,-7.95,-5.96,1.59,-0.41,-0.44,0.05,-39.76,-13.95,28.85,-1.00
4406.00,-7.80,-5.95,1.47,-0.41,-0.34,0.07,-39.76,-13.95,28.85,-1.00
4418.00,-7.80,-5.95,1.47,-0.41,-0.34,0.07,-39.76,-13.95,28.85,-1.00
4433.00,-7.87,-6.16,1.91,-0.42,-0.27,0.07,-39.76,-13.95,28.85,-1.00
4444.00,-7.83,-6.02,1.64,-0.44,-0.19,0.09,-39.76,-13.95,28.85,-1.00
4456.00,-7.83,-6.02,1.64,-0.44,-0.19,0.09,-39.76,-13.95,28.85,-1.00
4468.00,-7.77,-5.87,1.46,-0.46,-0.11,0.10,-39.76,-13.95,28.85,-1.00
4482.00,-7.86,-6.18,1.67,-0.45,-0.03,0.09,-39.38,-12.55,29.48,-1.00
4494.00,-7.86,-6.18,1.67,-0.45,-0.03,0.09,-39.38,-12.55,29.48,-1.00
4506.00,-7.86,-5.95,1.69,-0.44,0.06,0.12,-39.38,-12.55,29.48,-1.00
4520.00,-7.78,-6.29,1.77,-0.44,0.15,0.13,-39.38,-12.55,29.48,-1.00
4532.00,-7.78,-6.29,1.77,-0.44,0.15,0.13,-39.38,-12.55,29.48,-1.00
4544.00,-7.74,-6.20,0.91,-0.44,0.21,0.15,-39.38,-12.55,29.48,-1.00
4556.00,-7.74,-6.20,0.91,-0.44,0.21,0.15,-39.38,-12.55,29.48,-1.00
4570.00,-7.87,-6.12,1.33,-0.39,0.18,0.17,-39.38,-12.55,29.48,-1.00
4582.00,-7.72,-5.39,0.69,-0.28,0.28,0.18,-39.38,-12.55,29.48,-1.00
4594.00,-7.72,-5.39,0.69,-0.28,0.28,0.18,-39.38,-12.55,29.48,-1.00
4606.00,-8.05,-5.80,1.48,-0.25,0.25,0.10,-39.57,-12.72,29.64,-1.00
4620.00,-7.71,-5.68,0.36,-0.24,0.28,0.08,-39.57,-12.72,29.64,-1.00
4632.00,-7.71,-5.68,0.36,-0.24,0.28,0.08,-39.57,-12.72,29.64,-1.00
4644.00,-7.76,-5.68,0.68,-0.25,0.13,0.06,-39.57,-12.72,29.64,-1.00
4656.00,-7.76,-5.68,0.68,-0.25,0.13,0.06,-39.57,-12.72,29.64,-1.00
4670.00,-7.97,-5.40,1.04,-0.24,0.01,0.03,-39.57,-12.72,29.64,-1.00
4682.00,-8.05,-5.26,0.63,-0.21,-0.02,-0.06,-39.57,-12.72,29.64,-1.00
4694.00,-8.05,-5.26,0.63,-0.21,-0.02,-0.06,-39.57,-12.72,29.64,-1.00
4709.00,-8.84,-5.04,2.10,-0.22,-0.11,-0.21,-39.57,-12.72,29.64,-1.00
4720.00,-8.57,-5.36,0.82,-0.32,-0.03,-0.45,-39.57,-12.72,29.64,-1.00
4733.00,-8.57,-5.36,0.82,-0.32,-0.03,-0.45,-39.57,-12.72,29.64,-1.00
4745.00,-7.43,-6.33,0.79,-0.48,-0.16,-0.55,-39.57,-13.42,27.74,-1.00
4759.00,-7.11,-6.81,0.74,-0.52,-0.19,-0.38,-39.57,-13.42,27.74,-1.00
4771.00,-7.11,-6.81,0.74,-0.52,-0.19,-0.38,-39.57,-13.42,27.74,-1.00
4783.00,-6.47,-7.58,0.41,-0.38,-0.09,-0.18,-39.57,-13.42,27.74,-1.00
4795.00,-6.47,-7.58,0.41,-0.38,-0.09,-0.18,-39.57,-13.42,27.74,-1.00
4809.00,-6.61,-7.40,0.41,-0.18,-0.02,0.07,-39.57,-13.42,27.74,-1.00
4821.00,-7.42,-6.48,0.58,-0.04,-0.07,0.34,-39.57,-13.42,27.74,-1.00
4833.00,-7.42,-6.48,0.58,-0.04,-0.07,0.34,-39.57,-13.42,27.74,-1.00
4847.00,-7.95,-5.95,0.93,0.03,-0.13,0.45,-39.57,-13.42,27.74,-1.00
4859.00,-8.54,-5.22,1.66,-0.03,-0.16,0.37,-41.27,-12.90,28.21,-1.00
4871.00,-8.54,-5.22,1.66,-0.03,-0.16,0.37,-41.27,-12.90,28.21,-1.00
4883.00,-8.13,-5.45,1.00,-0.20,-0.13,0.21,-41.27,-12.90,28.21,-1.00
4898.00,-8.13,-5.45,1.00,-0.20,-0.13,0.21,-41.27,-12.90,28.21,-1.00
4909.00,-8.15,-5.58,1.53,-0.31,-0.15,0.14,-41.27,-12.90,28.21,-1.00
4921.00,-7.92,-5.49,1.39,-0.38,-0.14,0.09,-41.27,-12.90,28.21,-1.00
4933.00,-7.92,-5.49,1.39,-0.38,-0.14,0.09,-41.27,-12.90,28.21,-1.00
4947.00,-7.91,-5.37,1.60,-0.47,-0.16,0.03,-41.27,-12.90,28.21,-1.00
4959.00,-7.81,-5.63,1.49,-0.52,-0.13,-0.06,-41.27,-12.90,28.21,-1.00
4971.00,-7.81,-5.63,1.49,-0.52,-0.13,-0.06,-41.27,-12.90,28.21,-1.00
4985.00,-7.68,-6.15,1.10,-0.53,-0.09,-0.11,-40.51,-13.95,28.85,-1.00
4997.00,-7.68,-6.15,1.10,-0.53,-0.09,-0.11,-40.51,-13.95,28.85,-1.00
5009.00,-7.76,-6.12,0.98,-0.48,-0.09,-0.10,-40.51,-13.95,28.85,-1.00
5021.00,-7.90,-6.06,1.05,-0.33,-0.05,-0.09,-40.51,-13.95,28.85,-1.00
5035.00,-7.90,-6.06,1.05,-0.33,-0.05,-0.09,-40.51,-13.95,28.85,-1.00
5047.00,-7.72,-6.05,0.78,-0.19,-0.00,-0.07,-40.51,-13.95,28.85,-1.00
5059.00,-7.74,-6.22,0.74,-0.07,0.02,-0.07,-40.51,-13.95,28.85,-1.00
5071.00,-7.74,-6.22,0.74,-0.07,0.02,-0.07,-40.51,-13.95,28.85,-1.00
5085.00,-7.86,-6.00,0.96,0.02,0.07,-0.02,-40.51,-13.95,28.85,-1.00
5097.00,-7.86,-6.00,0.96,0.02,0.07,-0.02,-40.51,-13.95,28.85,-1.00
5109.00,-8.11,-5.96,1.50,0.01,0.07,0.01,-40.70,-15.17,29.01,-1.00
5121.00,-8.12,-5.66,1.11,-0.06,0.12,0.04,-40.70,-15.17,29.01,-1.00
5135.00,-8.12,-5.66,1.11,-0.06,0.12,0.04,-40.70,-15.17,29.01,-1.00
5147.00,-8.22,-5.83,1.56,-0.14,0.15,0.06,-40.70,-15.17,29.01,-1.00
5159.00,-7.75,-5.99,0.69,-0.35,0.22,0.09,-40.70,-15.17,29.01,-1.00
5174.00,-7.75,-5.99,0.69,-0.35,0.22,0.09,-40.70,-15.17,29.01,-1.00
5185.00,-7.88,-5.96,0.49,-0.47,0.13,0.15,-40.70,-15.17,29.01,-1.00
5197.00,-7.88,-5.96,0.49,-0.47,0.13,0.15,-40.70,-15.17,29.01,-1.00
5209.00,-8.03,-5.16,0.57,-0.48,-0.02,0.23,-40.70,-15.17,29.01,-1.00
5223.00,-8.11,-4.65,1.60,-0.57,-0.15,0.19,-42.41,-13.60,27.90,-1.00
5235.00,-8.11,-4.65,1.60,-0.57,-0.15,0.19,-42.41,-13.60,27.90,-1.00
5247.00,-7.91,-5.14,1.60,-0.65,-0.15,-0.02,-42.41,-13.60,27.90,-1.00
5259.00,-8.02,-4.52,2.13,-0.70,-0.04,-0.24,-42.41,-13.60,27.90,-1.00
5273.00,-8.02,-4.52,2.13,-0.70,-0.04,-0.24,-42.41,-13.60,27.90,-1.00
5285.00,-8.06,-4.92,1.76,-0.68,0.20,-0.53,-42.41,-13.60,27.90,-1.00
5297.00,-8.06,-4.92,1.76,-0.68,0.20,-0.53,-42.41,-13.60,27.90,-1.00
5311.00,-10.16,-5.46,2.38,-0.47,0.44,-0.78,-42.41,-13.60,27.90,-1.00
5323.00,-8.25,-6.01,1.12,-0.25,0.88,-1.11,-42.41,-13.60,27.90,-1.00
5335.00,-8.25,-6.01,1.12,-0.25,0.88,-1.11,-42.41,-13.60,27.90,-1.00
5347.00,-6.28,-8.89,-1.37,-0.05,1.10,-1.04,-41.46,-17.27,25.84,-1.00
5361.00,-6.19,-8.40,-3.82,0.26,0.75,-0.33,-41.46,-17.27,25.84,-1.00
5373.00,-6.19,-8.40,-3.82,0.26,0.75,-0.33,-41.46,-17.27,25.84,-1.00
5385.00,-5.96,-7.18,-2.12,0.51,0.04,0.37,-41.46,-17.27,25.84,-1.00
5397.00,-5.96,-7.18,-2.12,0.51,0.04,0.37,-41.46,-17.27,25.84,-1.00
5411.00,-8.04,-4.98,1.26,0.43,-0.47,0.66,-41.46,-17.27,25.84,-1.00
5423.00,-6.80,-7.17,-0.05,0.16,-0.50,0.22,-41.46,-17.27,25.84,-1.00
5435.00,-6.80,-7.17,-0.05,0.16,-0.50,0.22,-41.46,-17.27,25.84,-1.00
5447.00,-7.65,-5.58,1.41,0.12,-0.62,0.22,-41.46,-17.27,25.84,-1.00
5461.00,-6.98,-5.95,1.72,0.04,-0.62,-0.03,-41.46,-17.27,25.84,-1.00
5473.00,-6.98,-5.95,1.72,0.04,-0.62,-0.03,-41.46,-17.27,25.84,-1.00
5485.00,-7.48,-5.88,1.59,-0.02,-0.63,-0.10,-41.46,-14.82,27.74,-1.00
5500.00,-7.98,-6.41,2.16,-0.05,-0.65,-0.12,-41.46,-14.82,27.74,-1.00
5512.00,-7.98,-6.41,2.16,-0.05,-0.65,-0.12,-41.46,-14.82,27.74,-1.00
5524.00,-7.76,-6.14,1.87,-0.14,-0.56,-0.15,-41.46,-14.82,27.74,-1.00
5536.00,-7.76,-6.14,1.87,-0.14,-0.56,-0.15,-41.46,-14.82,27.74,-1.00
5550.00,-7.72,-6.34,1.61,-0.21,-0.46,-0.13,-41.46,-14.82,27.74,-1.00
5562.00,-7.43,-6.49,1.82,-0.24,-0.40,-0.07,-41.46,-14.82,27.74,-1.00
5574.00,-7.43,-6.49,1.82,-0.24,-0.40,-0.07,-41.46,-14.82,27.74,-1.00
5586.00,-7.06,-6.70,1.50,-0.26,-0.31,-0.01,-41.46,-14.82,27.74,-1.00
5600.00,-7.18,-6.65,1.31,-0.22,-0.26,0.10,-39.19,-16.22,28.69,-1.00
5612.00,-7.18,-6.65,1.31,-0.22,-0.26,0.10,-39.19,-16.22,28.69,-1.00
5624.00,-7.31,-6.55,1.53,-0.16,-0.24,0.20,-39.19,-16.22,28.69,-1.00
5638.00,-7.38,-6.51,1.52,-0.09,-0.17,0.29,-39.19,-16.22,28.69,-1.00
5650.00,-7.38,-6.51,1.52,-0.09,-0.17,0.29,-39.19,-16.22,28.69,-1.00
5662.00,-8.45,-5.93,1.97,0.02,-0.09,0.31,-39.19,-16.22,28.69,-1.00
5674.00,-8.45,-5.93,1.97,0.02,-0.09,0.31,-39.19,-16.22,28.69,-1.00
5688.00,-8.30,-5.51,1.60,-0.04,0.00,0.23,-39.19,-16.22,28.69,-1.00
5700.00,-8.16,-5.21,2.00,-0.09,0.05,0.14,-39.19,-16.22,28.69,-1.00
5712.00,-8.16,-5.21,2.00,-0.09,0.05,0.14,-39.19,-16.22,28.69,-1.00
5724.00,-7.99,-5.82,2.18,-0.20,0.11,0.07,-39.38,-12.90,30.11,-1.00
5738.00,-7.77,-5.89,1.98,-0.39,0.16,0.08,-39.38,-12.90,30.11,-1.00
5750.00,-7.77,-5.89,1.98,-0.39,0.16,0.08,-39.38,-12.90,30.11,-1.00
5763.00,-7.62,-6.13,1.42,-0.58,0.05,0.08,-39.38,-12.90,30.11,-1.00
5774.00,-7.62,-6.13,1.42,-0.58,0.05,0.08,-39.38,-12.90,30.11,-1.00
5788.00,-7.63,-5.35,1.31,-0.69,-0.14,0.09,-39.38,-12.90,30.11,-1.00
5800.00,-7.42,-5.91,1.09,-0.68,-0.27,0.03,-39.38,-12.90,30.11,-1.00
5812.00,-7.42,-5.91,1.09,-0.68,-0.27,0.03,-39.38,-12.90,30.11,-1.00
5826.00,-7.74,-5.99,1.90,-0.60,-0.38,0.00,-39.38,-12.90,30.11,-1.00
5838.00,-7.48,-5.95,1.01,-0.47,-0.35,-0.03,-39.00,-13.95,31.38,-1.00
5850.00,-7.48,-5.95,1.01,-0.47,-0.35,-0.03,-39.00,-13.95,31.38,-1.00
5862.00,-7.42,-6.00,1.35,-0.21,-0.31,-0.02,-39.00,-13.95,31.38,-1.00
5876.00,-7.42,-6.00,1.35,-0.21,-0.31,-0.02,-39.00,-13.95,31.38,-1.00
5888.00,-7.63,-6.04,1.59,0.00,-0.25,-0.02,-39.00,-13.95,31.38,-1.00
5900.00,-7.53,-5.58,1.87,0.14,-0.16,-0.03,-39.00,-13.95,31.38,-1.00
5912.00,-7.53,-5.58,1.87,0.14,-0.16,-0.03,-39.00,-13.95,31.38,-1.00
5926.00,-7.87,-6.05,2.36,0.24,-0.05,-0.09,-39.00,-13.95,31.38,-1.00
5938.00,-7.97,-5.56,2.33,0.13,0.05,-0.12,-39.00,-13.95,31.38,-1.00
5950.00,-7.97,-5.56,2.33,0.13,0.05,-0.12,-39.00,-13.95,31.38,-1.00
5964.00,-8.11,-4.70,2.43,-0.04,0.19,-0.18,-40.32,-13.07,31.54,-1.00
5976.00,-8.11,-4.70,2.43,-0.04,0.19,-0.18,-40.32,-13.07,31.54,-1.00
5988.00,-8.34,-5.38,2.51,-0.25,0.41,-0.33,-40.32,-13.07,31.54,-1.00
6000.00,-8.66,-5.32,0.97,-0.41,0.60,-0.35,-40.32,-13.07,31.54,-1.00
6014.00,-8.66,-5.32,0.97,-0.41,0.60,-0.35,-40.32,-13.07,31.54,-1.00
6026.00,-8.27,-5.44,0.01,-0.47,0.46,-0.40,-40.32,-13.07,31.54,-1.00
6038.00,-7.08,-6.60,1.36,-0.65,-0.02,-0.46,-40.32,-13.07,31.54,-1.00
6050.00,-7.08,-6.60,1.36,-0.65,-0.02,-0.46,-40.32,-13.07,31.54,-1.00
6065.00,-6.90,-6.84,1.44,-0.72,-0.25,-0.38,-40.32,-13.07,31.54,-1.00
6151.00,-7.14,-6.90,1.33,-0.32,-0.20,0.25,-39.00,-16.04,29.48,-1.00
6240.00,-7.87,-4.99,0.91,-0.22,0.75,0.23,-39.00,-14.99,29.48,-1.00
6327.00,-7.85,-5.60,0.89,-0.34,0.10,-0.12,-39.00,-14.99,29.48,-1.00
6342.00,-7.93,-5.98,0.97,-0.48,-0.08,-0.24,-41.65,-14.64,26.63,-1.00
6353.00,-7.93,-5.98,0.97,-0.48,-0.08,-0.24,-41.65,-14.64,26.63,-1.00
6365.00,-8.60,-5.10,0.78,-0.61,-0.29,-0.40,-41.65,-14.64,26.63,-1.00
6380.00,-7.22,-6.45,0.63,-0.64,-0.45,-0.59,-41.65,-14.64,26.63,-1.00
6391.00,-7.22,-6.45,0.63,-0.64,-0.45,-0.59,-41.65,-14.64,26.63,-1.00
6403.00,-6.90,-7.08,0.89,-0.50,-0.45,-0.45,-41.65,-14.64,26.63,-1.00
6415.00,-6.90,-7.08,0.89,-0.50,-0.45,-0.45,-41.65,-14.64,26.63,-1.00
6429.00,-6.68,-7.15,0.59,-0.34,-0.40,-0.22,-41.65,-14.64,26.63,-1.00
6441.00,-6.91,-6.99,0.88,-0.29,-0.45,0.00,-41.65,-14.64,26.63,-1.00
6453.00,-6.91,-6.99,0.88,-0.29,-0.45,0.00,-41.65,-14.64,26.63,-1.00
6465.00,-7.10,-6.95,1.32,-0.28,-0.47,0.20,-39.38,-17.44,29.80,-1.00
6480.00,-7.17,-7.02,1.20,-0.20,-0.31,0.37,-39.38,-17.44,29.80,-1.00
6491.00,-7.17,-7.02,1.20,-0.20,-0.31,0.37,-39.38,-17.44,29.80,-1.00
6503.00,-8.63,-5.71,1.97,-0.08,-0.16,0.42,-39.38,-17.44,29.80,-1.00
6517.00,-8.33,-5.53,0.80,-0.08,-0.01,0.28,-39.38,-17.44,29.80,-1.00
6529.00,-8.33,-5.53,0.80,-0.08,-0.01,0.28,-39.38,-17.44,29.80,-1.00
6541.00,-8.42,-5.54,1.88,-0.05,0.11,0.19,-39.38,-17.44,29.80,-1.00
6553.00,-8.42,-5.54,1.88,-0.05,0.11,0.19,-39.38,-17.44,29.80,-1.00
6567.00,-7.83,-5.33,1.96,-0.20,0.34,0.12,-39.38,-17.44,29.80,-1.00
6579.00,-7.87,-5.87,1.22,-0.55,0.24,0.02,-39.00,-14.64,29.16,-1.00
6591.00,-7.87,-5.87,1.22,-0.55,0.24,0.02,-39.00,-14.64,29.16,-1.00
6603.00,-7.28,-5.77,0.22,-0.75,-0.04,0.03,-39.00,-14.64,29.16,-1.00
6617.00,-7.09,-6.26,0.59,-0.77,-0.31,0.03,-39.00,-14.64,29.16,-1.00
6629.00,-7.09,-6.26,0.59,-0.77,-0.31,0.03,-39.00,-14.64,29.16,-1.00
6641.00,-7.39,-6.42,1.11,-0.70,-0.46,-0.00,-39.00,-14.64,29.16,-1.00
6656.00,-7.39,-6.42,1.11,-0.70,-0.46,-0.00,-39.00,-14.64,29.16,-1.00
6667.00,-7.91,-6.17,1.35,-0.54,-0.44,-0.02,-39.00,-14.64,29.16,-1.00
6679.00,-8.01,-5.51,0.94,-0.20,-0.18,-0.02,-39.00,-14.64,29.16,-1.00
6691.00,-8.01,-5.51,0.94,-0.20,-0.18,-0.02,-39.00,-14.64,29.16,-1.00
6705.00,-7.95,-5.49,0.79,-0.02,-0.06,-0.08,-41.27,-16.74,29.80,-1.00
6717.00,-9.06,-5.72,2.23,0.01,-0.02,-0.17,-41.27,-16.74,29.80,-1.00
6729.00,-9.06,-5.72,2.23,0.01,-0.02,-0.17,-41.27,-16.74,29.80,-1.00
6741.00,-8.70,-5.12,1.13,-0.09,0.27,-0.26,-41.27,-16.74,29.80,-1.00
6755.00,-8.70,-5.12,1.13,-0.09,0.27,-0.26,-41.27,-16.74,29.80,-1.00
6767.00,-7.67,-6.09,1.05,-0.34,0.19,-0.38,-41.27,-16.74,29.80,-1.00
6779.00,-7.39,-4.72,0.45,-0.42,0.17,-0.14,-41.27,-16.74,29.80,-1.00
6793.00,-7.39,-4.72,0.45,-0.42,0.17,-0.14,-41.27,-16.74,29.80,-1.00
6805.00,-7.35,-6.75,1.56,-0.50,-0.01,-0.18,-41.27,-16.74,29.80,-1.00
6817.00,-6.93,-6.58,0.87,-0.51,-0.11,-0.17,-41.27,-16.74,29.80,-1.00
6829.00,-6.93,-6.58,0.87,-0.51,-0.11,-0.17,-41.27,-16.74,29.80,-1.00
6843.00,-6.67,-7.10,0.71,-0.40,-0.13,-0.13,-39.00,-16.74,29.16,-1.00
6855.00,-6.67,-7.10,0.71,-0.40,-0.13,-0.13,-39.00,-16.74,29.16,-1.00
6867.00,-7.01,-6.78,0.87,-0.26,-0.11,-0.00,-39.00,-16.74,29.16,-1.00
6879.00,-7.53,-6.26,1.35,-0.18,-0.13,0.12,-39.00,-16.74,29.16,-1.00
6893.00,-7.53,-6.26,1.35,-0.18,-0.13,0.12,-39.00,-16.74,29.16,-1.00
6905.00,-7.75,-6.01,1.42,-0.20,-0.10,0.13,-39.00,-16.74,29.16,-1.00
6917.00,-7.49,-6.30,0.88,-0.24,-0.08,0.11,-39.00,-16.74,29.16,-1.00
6929.00,-7.49,-6.30,0.88,-0.24,-0.08,0.11,-39.00,-16.74,29.16,-1.00
6943.00,-7.31,-6.79,0.67,-0.24,-0.10,0.16,-39.00,-16.74,29.16,-1.00
6955.00,-8.10,-6.18,1.15,-0.20,-0.11,0.23,-39.00,-16.74,29.16,-1.00
6967.00,-8.10,-6.18,1.15,-0.20,-0.11,0.23,-39.76,-15.69,28.53,-1.00
6982.00,-8.27,-5.79,1.28,-0.19,-0.04,0.20,-39.76,-15.69,28.53,-1.00
6993.00,-8.27,-5.79,1.28,-0.19,-0.04,0.20,-39.76,-15.69,28.53,-1.00
7005.00,-8.45,-5.57,1.47,-0.19,0.06,0.16,-39.76,-15.69,28.53,-1.00
7017.00,-7.87,-5.58,1.15,-0.18,0.32,0.14,-39.76,-15.69,28.53,-1.00
7031.00,-7.87,-5.58,1.15,-0.18,0.32,0.14,-39.76,-15.69,28.53,-1.00
7043.00,-7.84,-5.83,1.43,-0.26,0.35,0.09,-39.76,-15.69,28.53,-1.00
7055.00,-7.75,-5.16,0.63,-0.37,0.29,0.01,-39.76,-15.69,28.53,-1.00
7067.00,-7.75,-5.16,0.63,-0.37,0.29,0.01,-39.76,-15.69,28.53,-1.00
7081.00,-8.18,-5.00,1.35,-0.49,0.14,-0.15,-41.08,-16.22,29.01,-1.00
7093.00,-8.18,-5.00,1.35,-0.49,0.14,-0.15,-41.08,-16.22,29.01,-1.00
7105.00,-9.11,-4.25,0.80,-0.63,0.04,-0.38,-41.08,-16.22,29.01,-1.00
7119.00,-7.55,-5.67,0.67,-0.78,-0.10,-0.77,-41.08,-16.22,29.01,-1.00
7131.00,-7.55,-5.67,0.67,-0.78,-0.10,-0.77,-41.08,-16.22,29.01,-1.00
7143.00,-5.75,-7.66,-0.53,-0.74,-0.37,-0.78,-41.08,-16.22,29.01,-1.00
7155.00,-5.03,-9.37,-0.68,-0.43,-0.66,-0.32,-41.08,-16.22,29.01,-1.00
7169.00,-5.03,-9.37,-0.68,-0.43,-0.66,-0.32,-41.08,-16.22,29.01,-1.00
7181.00,-5.68,-8.84,-0.49,-0.01,-0.63,0.42,-41.08,-16.22,29.01,-1.00
7193.00,-5.68,-8.84,-0.49,-0.01,-0.63,0.42,-41.08,-16.22,29.01,-1.00
7205.00,-10.91,-4.77,2.91,0.25,-0.54,0.84,-38.81,-16.92,30.27,-1.00
7219.00,-8.98,-3.45,2.87,-0.03,-0.28,0.43,-38.81,-16.92,30.27,-1.00
7231.00,-8.98,-3.45,2.87,-0.03,-0.28,0.43,-38.81,-16.92,30.27,-1.00
7243.00,-8.33,-5.59,2.00,-0.26,-0.01,0.05,-38.81,-16.92,30.27,-1.00
7258.00,-8.07,-6.27,1.38,-0.28,0.19,-0.10,-38.81,-16.92,30.27,-1.00
7269.00,-8.07,-6.27,1.38,-0.28,0.19,-0.10,-38.81,-16.92,30.27,-1.00
7281.00,-8.16,-5.95,1.19,-0.26,0.24,-0.22,-38.81,-16.92,30.27,-1.00
7293.00,-8.16,-5.95,1.19,-0.26,0.24,-0.22,-38.81,-16.92,30.27,-1.00
7307.00,-7.95,-6.15,1.62,-0.32,0.21,-0.31,-38.81,-16.92,30.27,-1.00
7319.00,-7.04,-6.58,0.61,-0.35,0.25,-0.26,-38.62,-17.09,31.06,-1.00
7331.00,-7.04,-6.58,0.61,-0.35,0.25,-0.26,-38.62,-17.09,31.06,-1.00
7343.00,-7.58,-5.78,1.45,-0.38,0.03,-0.06,-38.62,-17.09,31.06,-1.00
7357.00,-6.56,-6.80,0.81,-0.47,-0.05,-0.06,-38.62,-17.09,31.06,-1.00
7369.00,-6.56,-6.80,0.81,-0.47,-0.05,-0.06,-38.62,-17.09,31.06,-1.00
7381.00,-6.64,-7.03,0.49,-0.45,-0.07,0.03,-38.62,-17.09,31.06,-1.00
7393.00,-6.64,-7.03,0.49,-0.45,-0.07,0.03,-38.62,-17.09,31.06,-1.00
7408.00,-6.38,-7.29,0.40,-0.33,-0.07,0.14,-38.62,-17.09,31.06,-1.00
7419.00,-7.53,-6.38,1.04,-0.22,-0.11,0.34,-38.62,-17.09,31.06,-1.00
7431.00,-7.53,-6.38,1.04,-0.22,-0.11,0.34,-38.62,-17.09,31.06,-1.00
7446.00,-7.71,-5.98,1.15,-0.19,-0.11,0.36,-38.62,-17.09,31.06,-1.00
7457.00,-8.40,-5.72,1.28,-0.12,-0.04,0.23,-38.62,-17.09,31.06,-1.00
7469.00,-8.40,-5.72,1.28,-0.12,-0.04,0.23,-38.62,-17.09,31.06,-1.00
7481.00,-8.05,-5.89,0.74,-0.05,0.08,0.09,-38.62,-17.09,31.06,-1.00
7495.00,-7.97,-6.18,1.03,0.02,0.14,0.04,-38.62,-17.09,31.06,-1.00
7507.00,-7.97,-6.18,1.03,0.02,0.14,0.04,-38.62,-17.09,31.06,-1.00
7519.00,-8.01,-5.51,0.38,0.07,0.19,0.08,-38.62,-17.09,31.06,-1.00
7531.00,-8.01,-5.51,0.38,0.07,0.19,0.08,-38.62,-17.09,31.06,-1.00
7545.00,-8.16,-5.89,1.20,0.06,0.19,0.08,-38.62,-17.09,31.06,-1.00
7557.00,-8.41,-5.39,2.17,-0.13,0.18,0.09,-38.62,-17.09,31.06,-1.00
7569.00,-8.41,-5.39,2.17,-0.13,0.18,0.09,-38.62,-17.09,31.06,-1.00
7581.00,-7.96,-5.10,1.11,-0.49,0.21,0.06,-38.62,-14.64,30.43,-1.00
7596.00,-7.76,-5.63,-0.30,-0.70,0.09,0.01,-38.62,-14.64,30.43,-1.00
7607.00,-7.76,-5.63,-0.30,-0.70,0.09,0.01,-38.62,-14.64,30.43,-1.00
7619.00,-8.14,-4.86,0.36,-0.78,-0.17,-0.04,-38.62,-14.64,30.43,-1.00
7633.00,-8.14,-4.86,0.36,-0.78,-0.17,-0.04,-38.62,-14.64,30.43,-1.00
7645.00,-8.28,-5.14,1.35,-0.82,-0.33,-0.21,-38.62,-14.64,30.43,-1.00
7657.00,-7.32,-6.59,0.70,-0.72,-0.24,-0.47,-38.62,-14.64,30.43,-1.00
7669.00,-7.32,-6.59,0.70,-0.72,-0.24,-0.47,-38.62,-14.64,30.43,-1.00
7683.00,-6.39,-7.56,0.04,-0.52,-0.22,-0.44,-38.62,-14.64,30.43,-1.00
7695.00,-6.45,-7.48,0.26,-0.29,-0.32,-0.15,-39.00,-16.74,29.48,-1.00
7707.00,-6.45,-7.48,0.26,-0.29,-0.32,-0.15,-39.00,-16.74,29.48,-1.00
7719.00,-7.16,-6.99,0.79,-0.17,-0.39,0.13,-39.00,-16.74,29.48,-1.00
7733.00,-7.16,-6.99,0.79,-0.17,-0.39,0.13,-39.00,-16.74,29.48,-1.00
7820.00,-8.08,-5.63,1.25,-0.21,0.59,0.20,-38.81,-15.52,29.96,-1.00
7908.00,-8.07,-5.40,0.81,-0.45,0.16,-0.19,-38.81,-15.52,29.96,-1.00
7922.00,-8.84,-5.04,-0.06,-0.59,-0.03,-0.36,-38.81,-15.52,29.96,-1.00
7934.00,-7.47,-6.47,0.02,-0.70,-0.19,-0.50,-40.89,-17.09,27.90,-1.00
7946.00,-7.47,-6.47,0.02,-0.70,-0.19,-0.50,-40.89,-17.09,27.90,-1.00
7958.00,-6.73,-7.14,-0.77,-0.59,-0.31,-0.36,-40.89,-17.09,27.90,-1.00
7972.00,-6.73,-7.14,-0.77,-0.59,-0.31,-0.36,-40.89,-17.09,27.90,-1.00
7984.00,-6.78,-7.38,-0.23,-0.39,-0.46,-0.09,-40.89,-17.09,27.90,-1.00
7996.00,-6.84,-7.22,-0.08,-0.26,-0.49,0.17,-40.89,-17.09,27.90,-1.00
8011.00,-6.84,-7.22,-0.08,-0.26,-0.49,0.17,-40.89,-17.09,27.90,-1.00
8022.00,-7.69,-6.77,0.85,-0.13,-0.43,0.44,-40.89,-17.09,27.90,-1.00
8034.00,-8.40,-5.39,1.86,-0.13,-0.24,0.45,-40.89,-17.09,27.90,-1.00
8046.00,-8.40,-5.39,1.86,-0.13,-0.24,0.45,-40.89,-17.09,27.90,-1.00
8060.00,-8.22,-5.25,1.19,-0.21,-0.02,0.26,-39.95,-15.87,29.32,-1.00
8072.00,-8.22,-5.25,1.19,-0.21,-0.02,0.26,-39.95,-15.87,29.32,-1.00
8084.00,-7.92,-5.77,0.88,-0.15,0.16,0.09,-39.95,-15.87,29.32,-1.00
8096.00,-7.84,-5.91,0.47,-0.05,0.23,0.01,-39.95,-15.87,29.32,-1.00
8110.00,-7.84,-5.91,0.47,-0.05,0.23,0.01,-39.95,-15.87,29.32,-1.00
8122.00,-7.72,-6.12,0.16,0.00,0.18,-0.02,-39.95,-15.87,29.32,-1.00
8134.00,-7.91,-6.10,0.54,0.02,0.06,-0.01,-39.95,-15.87,29.32,-1.00
8146.00,-7.91,-6.10,0.54,0.02,0.06,-0.01,-39.95,-15.87,29.32,-1.00
8161.00,-7.94,-6.02,0.82,-0.09,-0.06,0.04,-39.95,-15.87,29.32,-1.00
8172.00,-7.94,-6.02,0.82,-0.09,-0.06,0.04,-39.95,-15.87,29.32,-1.00
8184.00,-7.96,-5.80,0.79,-0.20,-0.09,0.07,-39.95,-15.87,29.32,-1.00
8198.00,-7.95,-5.76,0.59,-0.28,-0.08,0.06,-40.32,-16.22,27.42,-1.00
8210.00,-7.95,-5.76,0.59,-0.28,-0.08,0.06,-40.32,-16.22,27.42,-1.00
8222.00,-7.88,-6.32,0.41,-0.33,-0.13,0.05,-40.32,-16.22,27.42,-1.00
8234.00,-8.00,-5.90,0.69,-0.34,-0.15,0.12,-40.32,-16.22,27.42,-1.00
8248.00,-8.00,-5.90,0.69,-0.34,-0.15,0.12,-40.32,-16.22,27.42,-1.00
8260.00,-8.31,-6.01,1.24,-0.37,-0.12,0.16,-40.32,-16.22,27.42,-1.00
8272.00,-8.31,-6.01,1.24,-0.37,-0.12,0.16,-40.32,-16.22,27.42,-1.00
8284.00,-8.42,-5.66,1.91,-0.47,0.04,0.24,-40.32,-16.22,27.42,-1.00
8298.00,-7.97,-5.90,0.78,-0.63,0.23,0.27,-40.32,-16.22,27.42,-1.00
8310.00,-7.97,-5.90,0.78,-0.63,0.23,0.27,-40.32,-16.22,27.42,-1.00
8322.00,-7.62,-5.78,-0.12,-0.65,0.24,0.27,-40.51,-14.64,28.21,-1.00
8334.00,-7.96,-5.67,0.51,-0.53,0.18,0.24,-40.51,-14.64,28.21,-1.00
8348.00,-7.96,-5.67,0.51,-0.53,0.18,0.24,-40.51,-14.64,28.21,-1.00
8360.00,-8.01,-4.96,0.46,-0.45,0.14,0.19,-40.51,-14.64,28.21,-1.00
8372.00,-8.01,-4.96,0.46,-0.45,0.14,0.19,-40.51,-14.64,28.21,-1.00
8386.00,-8.29,-4.64,0.96,-0.42,0.12,0.03,-40.51,-14.64,28.21,-1.00
8398.00,-8.49,-4.11,1.46,-0.40,0.22,-0.20,-40.51,-14.64,28.21,-1.00
8410.00,-8.49,-4.11,1.46,-0.40,0.22,-0.20,-40.51,-14.64,28.21,-1.00
8422.00,-9.40,-4.41,2.64,-0.39,0.44,-0.52,-40.51,-14.64,28.21,-1.00
8437.00,-10.69,-3.30,2.80,-0.49,0.87,-1.04,-40.51,-16.39,26.00,-1.00
8448.00,-10.69,-3.30,2.80,-0.49,0.87,-1.04,-40.51,-16.39,26.00,-1.00
8461.00,-8.24,-6.31,0.14,-0.56,1.28,-1.62,-40.51,-16.39,26.00,-1.00
8472.00,-8.24,-6.31,0.14,-0.56,1.28,-1.62,-40.51,-16.39,26.00,-1.00
8486.00,-5.76,-7.97,-3.76,-0.31,1.35,-1.40,-40.51,-16.39,26.00,-1.00
8498.00,-4.93,-9.79,-6.82,0.14,0.71,-0.31,-40.51,-16.39,26.00,-1.00
8510.00,-4.93,-9.79,-6.82,0.14,0.71,-0.31,-40.51,-16.39,26.00,-1.00
8524.00,-6.69,-5.39,-2.82,0.58,-0.49,0.85,-40.51,-16.39,26.00,-1.00
8536.00,-7.61,-5.11,-0.86,0.69,-0.94,0.74,-40.51,-16.39,26.00,-1.00
8548.00,-7.61,-5.11,-0.86,0.69,-0.94,0.74,-40.51,-16.39,26.00,-1.00
8560.00,-7.09,-5.59,-0.66,0.53,-1.00,0.35,-39.38,-16.04,25.68,-1.00
8574.00,-7.53,-4.86,0.00,0.46,-1.13,-0.09,-39.38,-16.04,25.68,-1.00
8663.00,-7.44,-6.02,2.11,0.20,-0.62,-0.18,-39.38,-16.04,25.68,-1.00
8752.00,-7.51,-6.25,1.86,-0.06,-0.22,-0.05,-36.92,-15.52,32.49,-1.00
8840.00,-7.17,-6.51,1.84,-0.12,-0.29,0.17,-36.92,-15.52,32.49,-1.00
8854.00,-8.04,-6.43,2.49,-0.13,-0.29,0.22,-36.92,-15.52,32.49,-1.00
8866.00,-8.04,-6.43,2.49,-0.13,-0.29,0.22,-36.92,-15.52,32.49,-1.00
8878.00,-7.84,-6.00,2.33,-0.17,-0.21,0.20,-36.92,-15.52,32.49,-1.00
8890.00,-7.84,-6.00,2.33,-0.17,-0.21,0.20,-36.92,-15.52,32.49,-1.00
8904.00,-7.73,-5.89,2.45,-0.22,-0.13,0.17,-36.92,-15.52,32.49,-1.00
8916.00,-7.64,-6.04,2.24,-0.34,-0.07,0.14,-36.92,-15.52,32.49,-1.00
8928.00,-7.64,-6.04,2.24,-0.34,-0.07,0.14,-36.92,-15.52,32.49,-1.00
8943.00,-7.82,-5.77,2.05,-0.31,0.03,0.13,-35.22,-15.34,33.92,-1.00
8954.00,-8.44,-5.78,3.18,-0.31,0.22,0.09,-35.22,-15.34,33.92,-1.00
8966.00,-8.44,-5.78,3.18,-0.31,0.22,0.09,-35.22,-15.34,33.92,-1.00
8978.00,-8.01,-5.45,1.85,-0.27,0.65,0.09,-35.22,-15.34,33.92,-1.00
8992.00,-8.01,-5.45,1.85,-0.27,0.65,0.09,-35.22,-15.34,33.92,-1.00
9004.00,-7.34,-5.93,0.87,-0.20,0.84,0.06,-35.22,-15.34,33.92,-1.00
9016.00,-7.09,-6.06,0.71,-0.23,0.61,0.05,-35.22,-15.34,33.92,-1.00
9028.00,-7.09,-6.06,0.71,-0.23,0.61,0.05,-35.22,-15.34,33.92,-1.00
9042.00,-7.19,-5.82,0.83,-0.23,0.28,0.04,-35.22,-15.34,33.92,-1.00
9054.00,-7.57,-6.31,1.86,-0.32,0.00,-0.00,-37.11,-12.90,31.06,-1.00
9066.00,-7.57,-6.31,1.86,-0.32,0.00,-0.00,-37.11,-12.90,31.06,-1.00
9080.00,-7.50,-5.95,0.79,-0.33,-0.05,0.02,-37.11,-12.90,31.06,-1.00
9092.00,-7.50,-5.95,0.79,-0.33,-0.05,0.02,-37.11,-12.90,31.06,-1.00
9104.00,-7.50,-5.95,1.00,-0.30,-0.22,-0.01,-37.11,-12.90,31.06,-1.00
9116.00,-7.56,-5.97,1.63,-0.19,-0.35,-0.02,-37.11,-12.90,31.06,-1.00
9130.00,-7.56,-5.97,1.63,-0.19,-0.35,-0.02,-37.11,-12.90,31.06,-1.00
9142.00,-7.76,-6.03,1.78,-0.15,-0.37,-0.01,-37.11,-12.90,31.06,-1.00
9154.00,-7.81,-6.08,1.75,-0.23,-0.30,0.03,-37.11,-12.90,31.06,-1.00
9166.00,-7.81,-6.08,1.75,-0.23,-0.30,0.03,-37.11,-12.90,31.06,-1.00
9180.00,-7.85,-5.96,2.10,-0.31,-0.23,0.06,-35.78,-14.12,32.49,-1.00
9192.00,-7.85,-5.96,2.10,-0.31,-0.23,0.06,-35.78,-14.12,32.49,-1.00
9204.00,-7.92,-6.00,2.15,-0.38,-0.18,0.08,-35.78,-14.12,32.49,-1.00
9216.00,-8.01,-5.69,2.14,-0.50,-0.13,0.14,-35.78,-14.12,32.49,-1.00
9230.00,-8.01,-5.69,2.14,-0.50,-0.13,0.14,-35.78,-14.12,32.49,-1.00
9243.00,-8.00,-5.62,2.34,-0.60,0.02,0.17,-35.78,-14.12,32.49,-1.00
9254.00,-7.52,-6.37,2.27,-0.68,0.17,0.17,-35.78,-14.12,32.49,-1.00
9268.00,-7.52,-6.37,2.27,-0.68,0.17,0.17,-35.78,-14.12,32.49,-1.00
9280.00,-7.34,-6.03,1.70,-0.53,0.35,0.12,-35.78,-14.12,32.49,-1.00
9292.00,-7.34,-6.03,1.70,-0.53,0.35,0.12,-35.78,-14.12,32.49,-1.00
9304.00,-7.40,-5.78,1.33,-0.37,0.36,0.03,-36.73,-14.30,31.06,-1.00
9318.00,-7.50,-5.73,0.68,-0.19,0.32,-0.07,-36.73,-14.30,31.06,-1.00
9330.00,-7.50,-5.73,0.68,-0.19,0.32,-0.07,-36.73,-14.30,31.06,-1.00
9342.00,-7.48,-6.12,0.84,-0.04,0.23,-0.14,-36.73,-14.30,31.06,-1.00
9354.00,-7.66,-6.02,1.06,-0.01,0.11,-0.19,-36.73,-14.30,31.06,-1.00
9369.00,-7.66,-6.02,1.06,-0.01,0.11,-0.19,-36.73,-14.30,31.06,-1.00
9380.00,-7.76,-5.34,1.39,-0.10,-0.05,-0.21,-36.73,-14.30,31.06,-1.00
9392.00,-7.76,-5.34,1.39,-0.10,-0.05,-0.21,-36.73,-14.30,31.06,-1.00
9407.00,-7.75,-5.82,1.95,-0.10,-0.13,-0.29,-36.73,-14.30,31.06,-1.00
9418.00,-8.07,-6.33,1.73,-0.14,-0.13,-0.32,-37.87,-16.04,31.06,-1.00
9430.00,-8.07,-6.33,1.73,-0.14,-0.13,-0.32,-37.87,-16.04,31.06,-1.00
9442.00,-8.23,-6.31,1.56,-0.21,-0.10,-0.27,-37.87,-16.04,31.06,-1.00
9456.00,-8.33,-6.04,1.36,-0.37,-0.16,-0.15,-37.87,-16.04,31.06,-1.00
9468.00,-8.33,-6.04,1.36,-0.37,-0.16,-0.15,-37.87,-16.04,31.06,-1.00
9480.00,-7.90,-6.18,1.95,-0.54,-0.22,-0.18,-37.87,-16.04,31.06,-1.00
9492.00,-7.02,-6.22,1.62,-0.62,-0.15,-0.17,-37.87,-16.04,31.06,-1.00
9506.00,-7.02,-6.22,1.62,-0.62,-0.15,-0.17,-37.87,-16.04,31.06,-1.00
9518.00,-6.99,-6.70,1.46,-0.57,-0.13,-0.09,-37.87,-16.04,31.06,-1.00
9530.00,-6.99,-6.70,1.46,-0.57,-0.13,-0.09,-37.87,-16.04,31.06,-1.00
9544.00,-7.02,-6.29,1.01,-0.49,-0.12,0.00,-37.87,-16.04,31.06,-1.00
9556.00,-6.55,-6.98,1.19,-0.41,-0.15,-0.00,-38.43,-16.57,32.49,-1.00
9568.00,-6.55,-6.98,1.19,-0.41,-0.15,-0.00,-38.43,-16.57,32.49,-1.00
9580.00,-7.05,-6.67,1.33,-0.36,-0.19,0.13,-38.43,-16.57,32.49,-1.00
9594.00,-7.31,-6.58,1.64,-0.34,-0.22,0.24,-38.43,-16.57,32.49,-1.00
9606.00,-7.31,-6.58,1.64,-0.34,-0.22,0.24,-38.43,-16.57,32.49,-1.00
9618.00,-8.43,-6.35,1.50,-0.31,-0.16,0.33,-38.43,-16.57,32.49,-1.00
9630.00,-8.43,-6.35,1.50,-0.31,-0.16,0.33,-38.43,-16.57,32.49,-1.00
9644.00,-8.15,-5.81,2.29,-0.29,-0.07,0.31,-38.43,-16.57,32.49,-1.00
9656.00,-8.57,-5.34,2.02,-0.35,0.12,0.23,-38.43,-16.57,32.49,-1.00
9668.00,-8.57,-5.34,2.02,-0.35,0.12,0.23,-38.43,-16.57,32.49,-1.00
9683.00,-8.35,-5.84,2.18,-0.32,0.47,0.17,-36.54,-16.22,31.22,-1.00
9694.00,-7.27,-5.80,-0.18,-0.24,0.72,0.15,-36.54,-16.22,31.22,-1.00
9706.00,-7.27,-5.80,-0.18,-0.24,0.72,0.15,-36.54,-16.22,31.22,-1.00
9718.00,-7.08,-6.42,-0.24,-0.19,0.39,0.10,-36.54,-16.22,31.22,-1.00
9732.00,-7.68,-6.14,1.53,-0.17,-0.01,0.14,-36.54,-16.22,31.22,-1.00
9744.00,-7.68,-6.14,1.53,-0.17,-0.01,0.14,-36.54,-16.22,31.22,-1.00
9756.00,-7.54,-5.70,0.54,-0.24,-0.13,0.15,-36.54,-16.22,31.22,-1.00
9768.00,-7.54,-5.70,0.54,-0.24,-0.13,0.15,-36.54,-16.22,31.22,-1.00
9782.00,-7.53,-5.02,-0.35,-0.36,-0.44,0.07,-36.54,-16.22,31.22,-1.00
9794.00,-8.04,-5.52,2.24,-0.33,-0.72,-0.01,-38.43,-15.17,30.91,-1.00
9806.00,-8.04,-5.52,2.24,-0.33,-0.72,-0.01,-38.43,-15.17,30.91,-1.00
9818.00,-8.16,-5.73,2.79,-0.35,-0.50,-0.10,-38.43,-15.17,30.91,-1.00
9833.00,-8.30,-5.91,2.40,-0.49,-0.26,-0.17,-38.43,-15.17,30.91,-1.00
9844.00,-8.30,-5.91,2.40,-0.49,-0.26,-0.17,-38.43,-15.17,30.91,-1.00
9856.00,-8.73,-5.95,2.57,-0.56,-0.03,-0.23,-38.43,-15.17,30.91,-1.00
9870.00,-8.73,-5.95,2.57,-0.56,-0.03,-0.23,-38.43,-15.17,30.91,-1.00
9882.00,-7.88,-5.88,1.14,-0.61,0.24,-0.35,-38.43,-15.17,30.91,-1.00
9894.00,-6.85,-6.85,0.58,-0.64,0.22,-0.34,-38.43,-15.17,30.91,-1.00
9906.00,-6.85,-6.85,0.58,-0.64,0.22,-0.34,-38.43,-15.17,30.91,-1.00
9920.00,-6.17,-7.36,0.25,-0.48,0.17,-0.13,-36.54,-17.61,31.54,-1.00
9932.00,-6.89,-7.17,0.66,-0.22,0.15,0.15,-36.54,-17.61,31.54,-1.00
9944.00,-6.89,-7.17,0.66,-0.22,0.15,0.15,-36.54,-17.61,31.54,-1.00
9956.00,-7.47,-6.43,0.93,-0.03,0.14,0.39,-36.54,-17.61,31.54,-1.00
9970.00,-7.47,-6.43,0.93,-0.03,0.14,0.39,-36.54,-17.61,31.54,-1.00
9982.00,-8.51,-5.57,1.41,0.03,0.10,0.42,-36.54,-17.61,31.54,-1.00
9994.00,-8.27,-5.46,1.40,-0.11,0.10,0.28,-36.54,-17.61,31.54,-1.00
10009.00,-8.27,-5.46,1.40,-0.11,0.10,0.28,-36.54,-17.61,31.54,-1.00
10020.00,-8.12,-5.37,1.56,-0.36,0.13,0.17,-36.54,-17.61,31.54,-1.00
10032.00,-7.69,-5.78,0.39,-0.58,0.07,0.12,-37.49,-14.30,31.38,-1.00
10044.00,-7.69,-5.78,0.39,-0.58,0.07,0.12,-37.49,-14.30,31.38,-1.00
10059.00,-7.76,-5.34,0.99,-0.57,-0.13,0.11,-37.49,-14.30,31.38,-1.00
10071.00,-7.76,-5.34,0.99,-0.57,-0.13,0.11,-37.49,-14.30,31.38,-1.00
10083.00,-7.64,-5.47,1.25,-0.59,-0.27,-0.00,-37.49,-14.30,31.38,-1.00
10095.00,-7.20,-6.25,0.36,-0.52,-0.33,-0.11,-37.49,-14.30,31.38,-1.00
10109.00,-7.20,-6.25,0.36,-0.52,-0.33,-0.11,-37.49,-14.30,31.38,-1.00
10121.00,-7.53,-6.29,0.60,-0.28,-0.44,-0.08,-37.49,-14.30,31.38,-1.00
10133.00,-7.95,-5.88,1.36,0.03,-0.39,-0.05,-37.49,-14.30,31.38,-1.00
10147.00,-7.95,-5.88,1.36,0.03,-0.39,-0.05,-37.49,-14.30,31.38,-1.00
10159.00,-8.34,-5.76,2.23,0.22,-0.24,-0.11,-36.35,-13.60,32.65,-1.00
10171.00,-8.34,-5.76,2.23,0.22,-0.24,-0.11,-36.35,-13.60,32.65,-1.00
10183.00,-8.12,-4.49,1.82,0.29,0.01,-0.19,-36.35,-13.60,32.65,-1.00
10197.00,-8.18,-6.59,1.23,0.23,0.27,-0.37,-36.35,-13.60,32.65,-1.00
10285.00,-6.73,-5.96,1.50,-0.68,0.09,-0.23,-36.35,-13.60,32.65,-1.00
10373.00,-7.68,-6.11,1.47,-0.16,-0.15,0.28,-36.92,-16.22,29.01,-1.00
10461.00,-7.96,-5.90,0.62,-0.11,0.01,0.14,-38.62,-14.64,30.43,-1.00
10475.00,-8.38,-5.50,1.68,-0.04,0.05,0.14,-38.62,-14.64,30.43,-1.00
10487.00,-8.38,-5.50,1.68,-0.04,0.05,0.14,-38.62,-14.64,30.43,-1.00
10499.00,-8.00,-5.49,1.46,-0.18,0.20,0.09,-38.62,-14.64,30.43,-1.00
10513.00,-7.57,-5.92,0.55,-0.38,0.18,0.05,-38.62,-14.64,30.43,-1.00
10525.00,-7.57,-5.92,0.55,-0.38,0.18,0.05,-38.62,-14.64,30.43,-1.00
10537.00,-7.81,-5.49,0.94,-0.50,-0.06,0.07,-36.92,-14.12,30.91,-1.00
10549.00,-7.81,-5.49,0.94,-0.50,-0.06,0.07,-36.92,-14.12,30.91,-1.00
10563.00,-7.66,-5.81,1.34,-0.63,-0.25,0.02,-36.92,-14.12,30.91,-1.00
10575.00,-7.57,-6.31,1.03,-0.61,-0.23,-0.04,-36.92,-14.12,30.91,-1.00
10587.00,-7.57,-6.31,1.03,-0.61,-0.23,-0.04,-36.92,-14.12,30.91,-1.00
10599.00,-7.53,-6.39,0.76,-0.49,-0.16,-0.04,-36.92,-14.12,30.91,-1.00
10613.00,-7.80,-6.03,0.92,-0.38,-0.20,-0.00,-36.92,-14.12,30.91,-1.00
10625.00,-7.80,-6.03,0.92,-0.38,-0.20,-0.00,-36.92,-14.12,30.91,-1.00
10637.00,-7.76,-6.14,0.68,-0.25,-0.16,0.01,-36.92,-14.12,30.91,-1.00
10651.00,-7.94,-6.10,1.12,-0.16,-0.12,0.04,-38.81,-15.87,30.27,-1.00
10663.00,-7.94,-6.10,1.12,-0.16,-0.12,0.04,-38.81,-15.87,30.27,-1.00
10675.00,-7.91,-5.89,1.17,-0.13,-0.05,0.06,-38.81,-15.87,30.27,-1.00
10687.00,-7.91,-5.89,1.17,-0.13,-0.05,0.06,-38.81,-15.87,30.27,-1.00
10702.00,-7.91,-5.69,1.24,-0.12,-0.02,0.05,-38.81,-15.87,30.27,-1.00
10713.00,-7.91,-5.88,0.51,-0.13,0.05,0.01,-38.81,-15.87,30.27,-1.00
10725.00,-7.91,-5.88,0.51,-0.13,0.05,0.01,-38.81,-15.87,30.27,-1.00
10737.00,-8.26,-5.92,1.33,-0.11,0.05,0.04,-38.81,-15.87,30.27,-1.00
10751.00,-7.93,-5.68,0.74,-0.07,0.18,0.07,-38.81,-15.87,30.27,-1.00
10763.00,-7.93,-5.68,0.74,-0.07,0.18,0.07,-38.81,-15.87,30.27,-1.00
10775.00,-7.89,-5.29,0.60,-0.19,0.16,0.07,-36.73,-14.30,31.06,-1.00
10789.00,-7.89,-5.29,0.60,-0.19,0.16,0.07,-36.73,-14.30,31.06,-1.00
10801.00,-7.82,-5.74,1.35,-0.42,0.04,0.03,-36.73,-14.30,31.06,-1.00
10813.00,-7.82,-6.01,1.07,-0.54,-0.05,0.03,-36.73,-14.30,31.06,-1.00
10825.00,-7.82,-6.01,1.07,-0.54,-0.05,0.03,-36.73,-14.30,31.06,-1.00
10839.00,-7.83,-5.09,1.71,-0.67,-0.23,0.03,-36.73,-14.30,31.06,-1.00
10851.00,-7.54,-6.39,0.71,-0.63,-0.23,-0.09,-36.73,-14.30,31.06,-1.00
10863.00,-7.54,-6.39,0.71,-0.63,-0.23,-0.09,-36.73,-14.30,31.06,-1.00
10875.00,-8.09,-5.94,1.13,-0.48,-0.33,-0.06,-36.73,-14.30,31.06,-1.00
10889.00,-8.09,-5.94,1.13,-0.48,-0.33,-0.06,-36.73,-14.30,31.06,-1.00
10901.00,-7.91,-5.71,0.27,-0.22,-0.21,-0.02,-36.73,-14.30,31.06,-1.00
10913.00,-8.09,-5.47,1.09,0.03,-0.12,-0.02,-36.54,-14.82,31.22,-1.00
10927.00,-8.09,-5.47,1.09,0.03,-0.12,-0.02,-36.54,-14.82,31.22,-1.00
10939.00,-8.01,-5.24,0.61,-0.03,-0.07,-0.08,-36.54,-14.82,31.22,-1.00
10951.00,-8.92,-6.19,2.40,-0.08,-0.05,-0.17,-36.54,-14.82,31.22,-1.00
10963.00,-8.92,-6.19,2.40,-0.08,-0.05,-0.17,-36.54,-14.82,31.22,-1.00
10977.00,-8.39,-5.65,0.64,-0.21,0.18,-0.22,-36.54,-14.82,31.22,-1.00
10989.00,-8.39,-5.65,0.64,-0.21,0.18,-0.22,-36.54,-14.82,31.22,-1.00
11001.00,-7.76,-5.90,1.28,-0.34,0.06,-0.31,-36.54,-14.82,31.22,-1.00
11013.00,-7.66,-5.05,1.48,-0.38,0.01,-0.21,-36.54,-14.82,31.22,-1.00
11028.00,-7.66,-5.05,1.48,-0.38,0.01,-0.21,-36.54,-14.82,31.22,-1.00
11039.00,-7.34,-6.17,1.14,-0.46,-0.00,-0.18,-38.62,-15.34,31.06,-1.00
11051.00,-7.16,-6.59,0.95,-0.48,-0.03,-0.15,-38.62,-15.34,31.06,-1.00
11065.00,-7.16,-6.59,0.95,-0.48,-0.03,-0.15,-38.62,-15.34,31.06,-1.00
11077.00,-6.22,-7.58,0.06,-0.40,-0.03,-0.08,-38.62,-15.34,31.06,-1.00
11089.00,-6.22,-7.58,0.06,-0.40,-0.03,-0.08,-38.62,-15.34,31.06,-1.00
11101.00,-6.99,-6.95,0.37,-0.19,-0.08,0.16,-38.62,-15.34,31.06,-1.00
11115.00,-7.80,-5.97,1.27,-0.07,-0.13,0.31,-38.62,-15.34,31.06,-1.00
11205.00,-8.12,-5.64,1.39,-0.24,0.04,0.08,-38.62,-14.30,30.43,-1.00
11293.00,-7.75,-5.93,0.75,-0.20,0.07,0.02,-39.95,-15.52,30.27,-1.00
11381.00,-7.83,-5.91,0.74,-0.20,-0.41,0.06,-39.95,-15.52,30.27,-1.00
11395.00,-7.92,-5.94,0.82,-0.28,-0.51,0.07,-37.11,-14.30,31.06,-1.00
11407.00,-7.92,-5.94,0.82,-0.28,-0.51,0.07,-37.11,-14.30,31.06,-1.00
11419.00,-8.06,-5.98,1.33,-0.36,-0.48,0.12,-37.11,-14.30,31.06,-1.00
11433.00,-8.08,-5.84,1.50,-0.42,-0.28,0.15,-37.11,-14.30,31.06,-1.00
11445.00,-8.08,-5.84,1.50,-0.42,-0.28,0.15,-37.11,-14.30,31.06,-1.00
11457.00,-8.26,-6.01,1.55,-0.47,-0.15,0.17,-37.11,-14.30,31.06,-1.00
11469.00,-8.26,-6.01,1.55,-0.47,-0.15,0.17,-37.11,-14.30,31.06,-1.00
11483.00,-8.52,-5.83,1.90,-0.50,0.08,0.25,-37.11,-14.30,31.06,-1.00
11495.00,-7.96,-5.48,1.72,-0.59,0.39,0.28,-37.11,-14.30,31.06,-1.00
11507.00,-7.96,-5.48,1.72,-0.59,0.39,0.28,-37.11,-14.30,31.06,-1.00
11519.00,-7.86,-5.37,0.51,-0.60,0.49,0.19,-38.05,-14.82,30.59,-1.00
11533.00,-8.01,-4.85,0.25,-0.54,0.38,0.10,-38.05,-14.82,30.59,-1.00
11545.00,-8.01,-4.85,0.25,-0.54,0.38,0.10,-38.05,-14.82,30.59,-1.00
11557.00,-8.46,-4.80,2.10,-0.51,0.31,-0.03,-38.05,-14.82,30.59,-1.00
11571.00,-8.85,-4.81,2.00,-0.50,0.50,-0.21,-38.05,-14.82,30.59,-1.00
11583.00,-8.85,-4.81,2.00,-0.50,0.50,-0.21,-38.05,-14.82,30.59,-1.00
11595.00,-10.26,-3.16,1.16,-0.50,0.73,-0.54,-38.05,-14.82,30.59,-1.00
11607.00,-10.26,-3.16,1.16,-0.50,0.73,-0.54,-38.05,-14.82,30.59,-1.00
11622.00,-8.90,-5.20,1.88,-0.62,0.81,-1.24,-38.05,-14.82,30.59,-1.00
11633.00,-6.40,-7.85,-3.03,-0.46,0.81,-1.35,-38.05,-14.82,30.59,-1.00
11645.00,-6.40,-7.85,-3.03,-0.46,0.81,-1.35,-38.05,-14.82,30.59,-1.00
11657.00,-4.64,-9.91,-5.44,0.09,0.22,-0.63,-39.00,-19.19,26.31,-1.00
11671.00,-7.34,-5.51,-1.00,0.49,-0.83,0.50,-39.00,-19.19,26.31,-1.00
11683.00,-7.34,-5.51,-1.00,0.49,-0.83,0.50,-39.00,-19.19,26.31,-1.00
11695.00,-8.01,-5.27,0.99,0.41,-1.07,0.45,-39.00,-19.19,26.31,-1.00
11709.00,-8.01,-5.27,0.99,0.41,-1.07,0.45,-39.00,-19.19,26.31,-1.00
11721.00,-6.81,-6.78,0.52,0.25,-0.71,-0.05,-39.00,-19.19,26.31,-1.00
11733.00,-5.16,-9.43,-0.44,0.30,-0.52,-0.29,-39.00,-19.19,26.31,-1.00
11745.00,-5.16,-9.43,-0.44,0.30,-0.52,-0.29,-39.00,-19.19,26.31,-1.00
11759.00,-6.87,-6.69,1.20,0.51,-0.67,0.16,-39.00,-19.19,26.31,-1.00
11771.00,-8.65,-5.32,3.19,0.52,-0.66,0.26,-37.87,-16.04,30.43,-1.00
11783.00,-8.65,-5.32,3.19,0.52,-0.66,0.26,-37.87,-16.04,30.43,-1.00
11795.00,-8.76,-4.80,2.87,0.23,-0.47,0.14,-37.87,-16.04,30.43,-1.00
11809.00,-8.28,-5.40,2.09,-0.05,-0.33,-0.06,-37.87,-16.04,30.43,-1.00
11821.00,-8.28,-5.40,2.09,-0.05,-0.33,-0.06,-37.87,-16.04,30.43,-1.00
11833.00,-7.39,-6.34,1.53,-0.17,-0.25,-0.19,-37.87,-16.04,30.43,-1.00
11847.00,-7.39,-6.34,1.53,-0.17,-0.25,-0.19,-37.87,-16.04,30.43,-1.00
11859.00,-7.38,-6.39,1.07,-0.15,-0.22,-0.13,-37.87,-16.04,30.43,-1.00
11871.00,-7.80,-5.89,1.74,-0.17,-0.27,-0.05,-37.87,-16.04,30.43,-1.00
11883.00,-7.80,-5.89,1.74,-0.17,-0.27,-0.05,-37.87,-16.04,30.43,-1.00
11897.00,-7.72,-5.78,1.74,-0.29,-0.29,-0.06,-36.73,-16.04,34.55,-1.00
11909.00,-7.38,-6.20,1.70,-0.36,-0.33,-0.10,-36.73,-16.04,34.55,-1.00
11921.00,-7.38,-6.20,1.70,-0.36,-0.33,-0.10,-36.73,-16.04,34.55,-1.00
11935.00,-7.06,-6.74,1.43,-0.39,-0.39,-0.05,-36.73,-16.04,34.55,-1.00
11947.00,-7.06,-6.74,1.43,-0.39,-0.39,-0.05,-36.73,-16.04,34.55,-1.00
11959.00,-6.92,-6.90,1.28,-0.27,-0.31,0.09,-36.73,-16.04,34.55,-1.00
11971.00,-7.86,-6.40,2.07,-0.01,-0.23,0.21,-36.73,-16.04,34.55,-1.00
11985.00,-7.86,-6.40,2.07,-0.01,-0.23,0.21,-36.73,-16.04,34.55,-1.00
11997.00,-7.95,-5.81,2.85,0.11,-0.09,0.14,-36.73,-16.04,34.55,-1.00
12009.00,-8.17,-6.04,2.05,0.05,0.11,0.03,-34.84,-14.99,32.97,-1.00
12021.00,-8.17,-6.04,2.05,0.05,0.11,0.03,-34.84,-14.99,32.97,-1.00
12035.00,-8.21,-5.84,2.21,-0.02,0.28,-0.01,-34.84,-14.99,32.97,-1.00
12047.00,-8.21,-5.84,2.21,-0.02,0.28,-0.01,-34.84,-14.99,32.97,-1.00
12059.00,-8.23,-5.96,1.97,-0.13,0.50,0.01,-34.84,-14.99,32.97,-1.00
12074.00,-8.00,-5.97,2.03,-0.15,0.70,0.08,-34.84,-14.99,32.97,-1.00
12085.00,-8.00,-5.97,2.03,-0.15,0.70,0.08,-34.84,-14.99,32.97,-1.00
12097.00,-7.51,-5.70,0.86,-0.20,0.77,0.11,-34.84,-14.99,32.97,-1.00
12109.00,-7.30,-5.87,0.68,-0.30,0.55,0.09,-34.84,-14.99,32.97,-1.00
12123.00,-7.30,-5.87,0.68,-0.30,0.55,0.09,-34.84,-14.99,32.97,-1.00
12135.00,-7.70,-5.43,1.43,-0.39,0.24,0.02,-38.05,-14.47,31.22,-1.00
12147.00,-7.70,-5.43,1.43,-0.39,0.24,0.02,-38.05,-14.47,31.22,-1.00
12159.00,-8.32,-4.72,1.44,-0.51,0.06,-0.11,-38.05,-14.47,31.22,-1.00
12173.00,-8.50,-4.94,0.78,-0.65,-0.03,-0.34,-38.05,-14.47,31.22,-1.00
12185.00,-8.50,-4.94,0.78,-0.65,-0.03,-0.34,-38.05,-14.47,31.22,-1.00
12197.00,-7.73,-5.82,1.48,-0.72,-0.13,-0.63,-38.05,-14.47,31.22,-1.00
12211.00,-6.73,-7.16,0.48,-0.63,-0.11,-0.74,-38.05,-14.47,31.22,-1.00
12223.00,-6.73,-7.16,0.48,-0.63,-0.11,-0.74,-38.05,-14.47,31.22,-1.00
12235.00,-6.06,-8.10,0.24,-0.34,-0.15,-0.50,-38.05,-14.47,31.22,-1.00
12247.00,-6.06,-8.10,0.24,-0.34,-0.15,-0.50,-38.05,-14.47,31.22,-1.00
12262.00,-5.79,-8.24,-0.22,-0.00,-0.17,-0.04,-38.05,-14.47,31.22,-1.00
12273.00,-6.82,-7.41,0.92,0.26,-0.27,0.44,-36.73,-15.69,32.33,-1.00
12285.00,-6.82,-7.41,0.92,0.26,-0.27,0.44,-36.73,-15.69,32.33,-1.00
12297.00,-10.50,-4.60,1.85,0.21,-0.33,0.71,-36.73,-15.69,32.33,-1.00
12311.00,-8.77,-4.42,2.10,-0.19,-0.33,0.45,-36.73,-15.69,32.33,-1.00
12323.00,-8.77,-4.42,2.10,-0.19,-0.33,0.45,-36.73,-15.69,32.33,-1.00
12335.00,-8.49,-4.78,2.77,-0.48,-0.24,0.25,-36.73,-15.69,32.33,-1.00
12349.00,-8.35,-4.58,2.03,-0.67,-0.08,0.15,-36.73,-15.69,32.33,-1.00
12361.00,-8.35,-4.58,2.03,-0.67,-0.08,0.15,-36.73,-15.69,32.33,-1.00
12374.00,-8.62,-5.21,2.18,-0.73,0.06,-0.02,-36.73,-15.69,32.33,-1.00
12385.00,-8.62,-5.21,2.18,-0.73,0.06,-0.02,-36.73,-15.69,32.33,-1.00
12399.00,-8.16,-5.51,1.26,-0.75,0.18,-0.19,-37.68,-13.77,31.86,-1.00
12411.00,-6.90,-6.90,1.02,-0.73,0.17,-0.35,-37.68,-13.77,31.86,-1.00
12423.00,-6.90,-6.90,1.02,-0.73,0.17,-0.35,-37.68,-13.77,31.86,-1.00
12435.00,-6.17,-7.69,-0.13,-0.52,0.17,-0.22,-37.68,-13.77,31.86,-1.00
12449.00,-6.25,-7.81,-0.39,-0.17,0.13,0.10,-37.68,-13.77,31.86,-1.00
12461.00,-6.25,-7.81,-0.39,-0.17,0.13,0.10,-37.68,-13.77,31.86,-1.00
12473.00,-7.44,-6.57,0.51,0.19,0.08,0.46,-37.68,-13.77,31.86,-1.00
12487.00,-7.44,-6.57,0.51,0.19,0.08,0.46,-37.68,-13.77,31.86,-1.00
12499.00,-8.77,-4.81,2.52,0.14,0.01,0.45,-37.68,-13.77,31.86,-1.00
12511.00,-8.39,-4.98,1.60,-0.19,0.08,0.24,-38.24,-14.30,31.38,-1.00
12523.00,-8.39,-4.98,1.60,-0.19,0.08,0.24,-38.24,-14.30,31.38,-1.00
12537.00,-8.03,-5.85,1.53,-0.44,0.09,0.11,-38.24,-14.30,31.38,-1.00
12549.00,-7.92,-5.70,0.85,-0.59,0.05,0.10,-38.24,-14.30,31.38,-1.00
12561.00,-7.92,-5.70,0.85,-0.59,0.05,0.10,-38.24,-14.30,31.38,-1.00
12573.00,-7.76,-5.57,0.92,-0.63,-0.10,0.08,-38.24,-14.30,31.38,-1.00
12587.00,-7.76,-5.57,0.92,-0.63,-0.10,0.08,-38.24,-14.30,31.38,-1.00
12599.00,-7.69,-5.66,1.07,-0.60,-0.19,0.04,-38.24,-14.30,31.38,-1.00
12611.00,-7.55,-6.03,1.12,-0.53,-0.22,-0.02,-38.24,-14.30,31.38,-1.00
12625.00,-7.55,-6.03,1.12,-0.53,-0.22,-0.02,-38.24,-14.30,31.38,-1.00
12637.00,-7.49,-6.45,0.62,-0.43,-0.23,-0.04,-36.16,-14.47,31.54,-1.00
12649.00,-7.73,-6.12,0.44,-0.25,-0.34,-0.01,-36.16,-14.47,31.54,-1.00
12661.00,-7.73,-6.12,0.44,-0.25,-0.34,-0.01,-36.16,-14.47,31.54,-1.00
12675.00,-7.77,-5.39,0.91,0.01,-0.31,0.01,-36.16,-14.47,31.54,-1.00
12687.00,-7.77,-5.39,0.91,0.01,-0.31,0.01,-36.16,-14.47,31.54,-1.00
12699.00,-7.78,-5.62,1.68,0.12,-0.18,-0.04,-36.16,-14.47,31.54,-1.00
12711.00,-8.09,-5.86,1.45,0.16,0.01,-0.09,-36.16,-14.47,31.54,-1.00
12725.00,-8.09,-5.86,1.45,0.16,0.01,-0.09,-36.16,-14.47,31.54,-1.00
12737.00,-8.22,-4.94,1.84,0.06,0.08,-0.12,-36.16,-14.47,31.54,-1.00
12749.00,-8.34,-5.13,1.94,-0.09,0.21,-0.24,-35.97,-14.99,30.75,-1.00
12763.00,-8.34,-5.13,1.94,-0.09,0.21,-0.24,-35.97,-14.99,30.75,-1.00
12853.00,-7.54,-5.58,1.18,-0.69,-0.13,-0.22,-35.97,-14.99,30.75,-1.00
12939.00,-6.31,-7.53,-0.20,-0.29,-0.20,-0.01,-38.62,-17.09,29.80,-1.00
13028.00,-8.60,-4.93,1.73,-0.15,-0.10,0.41,-36.73,-16.04,32.33,-1.00
13041.00,-8.62,-5.39,2.32,-0.31,0.01,0.27,-36.73,-16.04,32.33,-1.00
13053.00,-8.34,-5.09,1.37,-0.44,0.25,0.24,-36.73,-16.04,32.33,-1.00
13065.00,-8.34,-5.09,1.37,-0.44,0.25,0.24,-36.73,-16.04,32.33,-1.00
13077.00,-8.05,-5.81,1.14,-0.43,0.41,0.21,-36.73,-16.04,32.33,-1.00
13091.00,-7.61,-6.05,0.31,-0.37,0.42,0.19,-36.73,-16.04,32.33,-1.00
13104.00,-7.61,-6.05,0.31,-0.37,0.42,0.19,-36.73,-16.04,32.33,-1.00
13116.00,-7.38,-5.10,-0.16,-0.36,0.26,0.16,-36.73,-16.04,32.33,-1.00
13130.00,-8.06,-5.06,1.45,-0.39,0.08,0.01,-39.95,-12.72,29.32,-1.00
13142.00,-8.06,-5.06,1.45,-0.39,0.08,0.01,-39.95,-12.72,29.32,-1.00
13154.00,-8.36,-3.97,0.74,-0.45,0.09,-0.16,-39.95,-12.72,29.32,-1.00
13166.00,-8.36,-3.97,0.74,-0.45,0.09,-0.16,-39.95,-12.72,29.32,-1.00
13180.00,-8.76,-5.93,0.59,-0.55,0.03,-0.49,-39.95,-12.72,29.32,-1.00
13192.00,-7.57,-6.42,0.54,-0.62,-0.09,-0.67,-39.95,-12.72,29.32,-1.00
13204.00,-7.57,-6.42,0.54,-0.62,-0.09,-0.67,-39.95,-12.72,29.32,-1.00
13216.00,-6.84,-7.09,-0.40,-0.56,-0.17,-0.59,-39.95,-12.72,29.32,-1.00
13230.00,-6.63,-7.46,-0.36,-0.37,-0.29,-0.30,-39.95,-12.72,29.32,-1.00
13242.00,-6.63,-7.46,-0.36,-0.37,-0.29,-0.30,-39.95,-12.72,29.32,-1.00
13254.00,-7.18,-6.99,0.45,-0.22,-0.39,0.03,-36.73,-17.09,30.75,-1.00
13269.00,-7.45,-6.54,1.02,-0.15,-0.38,0.27,-36.73,-17.09,30.75,-1.00
13280.00,-7.45,-6.54,1.02,-0.15,-0.38,0.27,-36.73,-17.09,30.75,-1.00
13292.00,-9.14,-6.09,0.85,-0.12,-0.28,0.46,-36.73,-17.09,30.75,-1.00
13304.00,-9.14,-6.09,0.85,-0.12,-0.28,0.46,-36.73,-17.09,30.75,-1.00
13318.00,-8.72,-4.63,1.53,-0.03,-0.06,0.39,-36.73,-17.09,30.75,-1.00
13330.00,-8.30,-4.76,0.68,0.02,0.16,0.15,-36.73,-17.09,30.75,-1.00
13342.00,-8.30,-4.76,0.68,0.02,0.16,0.15,-36.73,-17.09,30.75,-1.00
13354.00,-7.84,-5.15,1.38,0.10,0.34,-0.02,-36.73,-17.09,30.75,-1.00
13368.00,-8.03,-4.90,1.69,0.05,0.39,-0.12,-36.35,-14.30,30.43,-1.00
13380.00,-8.03,-4.90,1.69,0.05,0.39,-0.12,-36.35,-14.30,30.43,-1.00
13392.00,-7.92,-5.44,0.78,-0.20,0.35,-0.26,-36.35,-14.30,30.43,-1.00
13406.00,-7.92,-5.44,0.78,-0.20,0.35,-0.26,-36.35,-14.30,30.43,-1.00
13418.00,-8.71,-5.52,0.45,-0.32,0.23,-0.37,-36.35,-14.30,30.43,-1.00
13430.00,-9.58,-4.65,0.80,-0.45,0.15,-0.57,-36.35,-14.30,30.43,-1.00
13442.00,-9.58,-4.65,0.80,-0.45,0.15,-0.57,-36.35,-14.30,30.43,-1.00
13456.00,-8.20,-5.82,1.52,-0.66,0.18,-0.93,-36.35,-14.30,30.43,-1.00
13468.00,-7.38,-6.43,0.56,-0.72,0.23,-0.94,-36.35,-14.30,30.43,-1.00
13480.00,-7.38,-6.43,0.56,-0.72,0.23,-0.94,-36.35,-14.30,30.43,-1.00
13492.00,-6.52,-7.13,-0.43,-0.74,0.10,-0.77,-36.92,-19.36,29.32,-1.00
13506.00,-6.52,-7.13,-0.43,-0.74,0.10,-0.77,-36.92,-19.36,29.32,-1.00
13518.00,-6.09,-7.41,-0.46,-0.63,-0.11,-0.49,-36.92,-19.36,29.32,-1.00
13530.00,-6.46,-7.55,-0.26,-0.46,-0.20,-0.24,-36.92,-19.36,29.32,-1.00
13544.00,-6.46,-7.55,-0.26,-0.46,-0.20,-0.24,-36.92,-19.36,29.32,-1.00
13556.00,-6.57,-7.13,-0.42,-0.27,-0.20,-0.07,-36.92,-19.36,29.32,-1.00
13568.00,-7.46,-6.40,0.74,-0.10,-0.27,0.01,-36.92,-19.36,29.32,-1.00
13580.00,-7.46,-6.40,0.74,-0.10,-0.27,0.01,-36.92,-19.36,29.32,-1.00
13595.00,-7.60,-5.95,1.28,-0.04,-0.26,-0.07,-36.92,-19.36,29.32,-1.00
13606.00,-7.60,-5.95,1.28,-0.04,-0.26,-0.07,-36.92,-19.36,29.32,-1.00
13618.00,-8.01,-6.02,1.93,-0.02,-0.15,-0.19,-36.92,-19.36,29.32,-1.00
13632.00,-7.93,-6.14,0.98,0.02,0.11,-0.34,-36.54,-19.71,30.59,-1.00
13644.00,-7.93,-6.14,0.98,0.02,0.11,-0.34,-36.54,-19.71,30.59,-1.00
13656.00,-7.50,-6.87,0.87,0.15,0.34,-0.40,-36.54,-19.71,30.59,-1.00
13668.00,-7.07,-7.14,0.50,0.34,0.61,-0.35,-36.54,-19.71,30.59,-1.00
13682.00,-7.07,-7.14,0.50,0.34,0.61,-0.35,-36.54,-19.71,30.59,-1.00
13772.00,-7.98,-4.56,1.18,0.45,-0.50,0.69,-37.87,-19.19,28.21,-1.00
13859.00,-7.03,-6.27,1.71,0.06,-0.40,0.35,-37.87,-19.19,28.21,-1.00
13948.00,-6.91,-6.98,0.84,-0.40,0.00,-0.04,-35.97,-18.14,30.43,-1.00
13961.00,-6.91,-6.98,0.84,-0.40,0.00,-0.04,-35.97,-18.14,30.43,-1.00
13973.00,-6.79,-7.25,0.65,-0.28,-0.06,0.07,-35.97,-18.14,30.43,-1.00
13985.00,-6.79,-7.25,0.65,-0.28,-0.06,0.07,-35.97,-18.14,30.43,-1.00
13999.00,-7.09,-6.73,0.84,-0.19,-0.16,0.26,-36.54,-16.22,31.22,-1.00
14011.00,-7.80,-5.96,1.57,-0.12,-0.23,0.33,-36.54,-16.22,31.22,-1.00
14024.00,-7.80,-5.96,1.57,-0.12,-0.23,0.33,-36.54,-16.22,31.22,-1.00
14036.00,-8.07,-5.53,2.23,-0.16,-0.21,0.27,-36.54,-16.22,31.22,-1.00
14050.00,-8.00,-5.49,2.17,-0.25,-0.12,0.13,-36.54,-16.22,31.22,-1.00
14062.00,-8.00,-5.49,2.17,-0.25,-0.12,0.13,-36.54,-16.22,31.22,-1.00
14074.00,-7.58,-6.09,1.46,-0.30,-0.06,0.01,-36.54,-16.22,31.22,-1.00
14086.00,-7.58,-6.09,1.46,-0.30,-0.06,0.01,-36.54,-16.22,31.22,-1.00
14100.00,-7.41,-6.38,1.20,-0.28,-0.06,-0.01,-36.54,-16.22,31.22,-1.00
14112.00,-7.42,-6.27,1.22,-0.21,-0.08,0.02,-36.73,-14.30,32.01,-1.00
14124.00,-7.42,-6.27,1.22,-0.21,-0.08,0.02,-36.73,-14.30,32.01,-1.00
14138.00,-7.68,-6.06,1.62,-0.17,-0.11,0.04,-36.73,-14.30,32.01,-1.00
14150.00,-7.88,-5.85,1.76,-0.21,-0.10,0.03,-36.73,-14.30,32.01,-1.00
14162.00,-7.88,-5.85,1.76,-0.21,-0.10,0.03,-36.73,-14.30,32.01,-1.00
14174.00,-7.54,-6.11,1.60,-0.29,-0.11,-0.01,-36.73,-14.30,32.01,-1.00
14189.00,-7.32,-6.46,1.39,-0.29,-0.11,-0.02,-36.73,-14.30,32.01,-1.00
14200.00,-7.32,-6.46,1.39,-0.29,-0.11,-0.02,-36.73,-14.30,32.01,-1.00
14212.00,-7.19,-6.52,1.39,-0.21,-0.09,0.04,-36.73,-14.30,32.01,-1.00
14224.00,-7.19,-6.52,1.39,-0.21,-0.09,0.04,-36.73,-14.30,32.01,-1.00
14238.00,-7.29,-6.36,1.50,-0.14,-0.09,0.12,-35.78,-14.12,32.49,-1.00
14250.00,-7.39,-6.33,1.54,-0.13,-0.13,0.20,-35.78,-14.12,32.49,-1.00
14262.00,-7.39,-6.33,1.54,-0.13,-0.13,0.20,-35.78,-14.12,32.49,-1.00
14276.00,-7.38,-6.31,1.42,-0.15,-0.18,0.26,-35.78,-14.12,32.49,-1.00
14288.00,-8.29,-5.88,2.11,-0.14,-0.22,0.27,-35.78,-14.12,32.49,-1.00
14300.00,-8.29,-5.88,2.11,-0.14,-0.22,0.27,-35.78,-14.12,32.49,-1.00
14312.00,-8.10,-5.66,1.79,-0.21,-0.15,0.19,-35.78,-14.12,32.49,-1.00
14326.00,-8.15,-5.38,2.07,-0.24,-0.05,0.16,-35.78,-14.12,32.49,-1.00
14338.00,-8.15,-5.38,2.07,-0.24,-0.05,0.16,-35.78,-14.12,32.49,-1.00
14350.00,-8.83,-5.37,3.73,-0.25,0.20,0.09,-35.78,-14.12,32.49,-1.00
14362.00,-8.83,-5.37,3.73,-0.25,0.20,0.09,-35.78,-14.12,32.49,-1.00
14376.00,-8.36,-5.30,2.62,-0.18,0.78,0.01,-36.92,-14.47,33.44,-1.00
14388.00,-7.74,-5.72,0.93,-0.09,1.16,-0.03,-36.92,-14.47,33.44,-1.00
14400.00,-7.74,-5.72,0.93,-0.09,1.16,-0.03,-36.92,-14.47,33.44,-1.00
14414.00,-7.17,-6.33,-0.43,-0.04,1.06,-0.07,-36.92,-14.47,33.44,-1.00
14426.00,-6.86,-6.45,-0.26,0.05,0.67,-0.10,-36.92,-14.47,33.44,-1.00
14438.00,-6.86,-6.45,-0.26,0.05,0.67,-0.10,-36.92,-14.47,33.44,-1.00
14450.00,-7.20,-6.15,1.19,0.09,0.27,-0.11,-36.92,-14.47,33.44,-1.00
14464.00,-7.20,-6.15,1.19,0.09,0.27,-0.11,-36.92,-14.47,33.44,-1.00
14476.00,-7.64,-6.16,1.36,0.03,0.09,-0.13,-36.92,-14.47,33.44,-1.00
14488.00,-7.49,-5.80,0.54,-0.10,-0.03,-0.17,-38.43,-12.37,29.32,-1.00
14500.00,-7.49,-5.80,0.54,-0.10,-0.03,-0.17,-38.43,-12.37,29.32,-1.00
14515.00,-8.09,-5.46,1.70,-0.17,-0.24,-0.20,-38.43,-12.37,29.32,-1.00
14527.00,-8.12,-5.04,1.66,-0.26,-0.29,-0.25,-38.43,-12.37,29.32,-1.00
14539.00,-8.12,-5.04,1.66,-0.26,-0.29,-0.25,-38.43,-12.37,29.32,-1.00
14553.00,-7.98,-5.36,0.98,-0.45,-0.39,-0.30,-38.43,-12.37,29.32,-1.00
14565.00,-7.98,-5.36,0.98,-0.45,-0.39,-0.30,-38.43,-12.37,29.32,-1.00
14577.00,-8.88,-5.30,1.77,-0.62,-0.58,-0.32,-38.43,-12.37,29.32,-1.00
14589.00,-8.44,-5.43,2.46,-0.79,-0.60,-0.51,-38.43,-12.37,29.32,-1.00
14603.00,-8.44,-5.43,2.46,-0.79,-0.60,-0.51,-38.43,-12.37,29.32,-1.00
14615.00,-7.40,-6.16,1.54,-0.87,-0.48,-0.64,-36.73,-16.74,30.75,-1.00
14627.00,-6.33,-7.42,0.83,-0.82,-0.51,-0.53,-36.73,-16.74,30.75,-1.00
14639.00,-6.33,-7.42,0.83,-0.82,-0.51,-0.53,-36.73,-16.74,30.75,-1.00
14653.00,-5.41,-8.46,0.22,-0.60,-0.57,-0.19,-36.73,-16.74,30.75,-1.00
14665.00,-5.41,-8.46,0.22,-0.60,-0.57,-0.19,-36.73,-16.74,30.75,-1.00
14677.00,-5.11,-9.34,0.17,-0.32,-0.55,0.31,-36.73,-16.74,30.75,-1.00
14691.00,-6.46,-7.72,0.71,-0.09,-0.56,0.88,-36.73,-16.74,30.75,-1.00
14703.00,-6.46,-7.72,0.71,-0.09,-0.56,0.88,-36.73,-16.74,30.75,-1.00
14715.00,-9.27,-4.70,3.46,0.07,-0.55,0.88,-36.73,-16.74,30.75,-1.00
14727.00,-8.57,-3.56,3.25,-0.07,-0.28,0.37,-37.49,-15.34,32.01,-1.00
14741.00,-8.57,-3.56,3.25,-0.07,-0.28,0.37,-37.49,-15.34,32.01,-1.00
14753.00,-8.23,-5.76,2.72,-0.26,-0.04,-0.02,-37.49,-15.34,32.01,-1.00
14765.00,-8.23,-5.76,2.72,-0.26,-0.04,-0.02,-37.49,-15.34,32.01,-1.00
14780.00,-7.73,-6.30,1.95,-0.31,0.17,-0.15,-37.49,-15.34,32.01,-1.00
14791.00,-7.91,-6.04,1.21,-0.29,0.23,-0.20,-37.49,-15.34,32.01,-1.00
14803.00,-7.91,-6.04,1.21,-0.29,0.23,-0.20,-37.49,-15.34,32.01,-1.00
14815.00,-7.28,-5.99,1.68,-0.37,0.10,-0.22,-37.49,-15.34,32.01,-1.00
14829.00,-7.21,-6.50,2.13,-0.42,0.09,-0.17,-37.49,-15.34,32.01,-1.00
14841.00,-7.21,-6.50,2.13,-0.42,0.09,-0.17,-37.49,-15.34,32.01,-1.00
14853.00,-7.01,-6.48,1.59,-0.45,0.07,-0.10,-37.11,-14.64,32.65,-1.00
14865.00,-7.01,-6.48,1.59,-0.45,0.07,-0.10,-37.11,-14.64,32.65,-1.00
14879.00,-6.87,-6.76,1.39,-0.41,0.00,-0.02,-37.11,-14.64,32.65,-1.00
14891.00,-6.93,-6.80,1.16,-0.33,-0.01,0.13,-37.11,-14.64,32.65,-1.00
14903.00,-6.93,-6.80,1.16,-0.33,-0.01,0.13,-37.11,-14.64,32.65,-1.00
14917.00,-7.24,-6.86,1.27,-0.21,0.01,0.29,-37.11,-14.64,32.65,-1.00
14929.00,-8.41,-5.94,1.49,-0.04,0.08,0.37,-37.11,-14.64,32.65,-1.00
14941.00,-8.41,-5.94,1.49,-0.04,0.08,0.37,-37.11,-14.64,32.65,-1.00
14953.00,-8.24,-5.39,1.25,0.03,0.16,0.28,-37.11,-14.64,32.65,-1.00
14967.00,-8.16,-5.26,1.57,0.00,0.26,0.16,-37.11,-14.64,32.65,-1.00
14979.00,-8.16,-5.26,1.57,0.00,0.26,0.16,-37.11,-14.64,32.65,-1.00
14991.00,-7.91,-5.50,1.51,-0.23,0.27,0.10,-38.62,-14.30,32.33,-1.00
15003.00,-7.91,-5.50,1.51,-0.23,0.27,0.10,-38.62,-14.30,32.33,-1.00
15017.00,-7.73,-5.64,1.17,-0.50,0.10,0.08,-38.62,-14.30,32.33,-1.00
15029.00,-7.42,-5.82,1.31,-0.60,-0.17,0.05,-38.62,-14.30,32.33,-1.00
15042.00,-7.42,-5.82,1.31,-0.60,-0.17,0.05,-38.62,-14.30,32.33,-1.00
15054.00,-7.33,-6.27,1.38,-0.60,-0.30,0.01,-38.62,-14.30,32.33,-1.00
15068.00,-7.49,-6.47,1.53,-0.53,-0.33,-0.00,-38.62,-14.30,32.33,-1.00
15080.00,-7.49,-6.47,1.53,-0.53,-0.33,-0.00,-38.62,-14.30,32.33,-1.00
15092.00,-7.62,-6.05,1.12,-0.38,-0.33,0.04,-38.62,-14.30,32.33,-1.00
15106.00,-7.92,-5.51,1.55,-0.20,-0.25,0.04,-36.16,-13.42,33.44,-1.00
15118.00,-7.92,-5.51,1.55,-0.20,-0.25,0.04,-36.16,-13.42,33.44,-1.00
15130.00,-7.94,-5.68,1.71,-0.12,-0.11,-0.02,-36.16,-13.42,33.44,-1.00
15142.00,-7.94,-5.68,1.71,-0.12,-0.11,-0.02,-36.16,-13.42,33.44,-1.00
15156.00,-7.87,-5.56,1.69,-0.19,-0.03,-0.08,-36.16,-13.42,33.44,-1.00
15168.00,-8.33,-5.90,2.12,-0.28,0.01,-0.14,-36.16,-13.42,33.44,-1.00
15180.00,-8.33,-5.90,2.12,-0.28,0.01,-0.14,-36.16,-13.42,33.44,-1.00
15195.00,-8.19,-5.89,1.83,-0.31,0.23,-0.24,-36.16,-13.42,33.44,-1.00
15206.00,-7.72,-6.37,1.32,-0.41,0.20,-0.38,-36.16,-13.42,33.44,-1.00
15218.00,-7.72,-6.37,1.32,-0.41,0.20,-0.38,-36.16,-13.42,33.44,-1.00
15230.00,-6.34,-7.07,1.90,-0.46,0.05,-0.24,-35.41,-14.12,32.49,-1.00
15244.00,-6.34,-7.07,1.90,-0.46,0.05,-0.24,-35.41,-14.12,32.49,-1.00
15256.00,-7.33,-6.68,1.06,-0.43,-0.02,-0.04,-35.41,-14.12,32.49,-1.00
15268.00,-6.27,-7.06,1.38,-0.33,-0.11,-0.06,-35.41,-14.12,32.49,-1.00
15280.00,-6.27,-7.06,1.38,-0.33,-0.11,-0.06,-35.41,-14.12,32.49,-1.00
15294.00,-7.27,-6.54,1.49,-0.29,-0.14,0.15,-35.41,-14.12,32.49,-1.00
15306.00,-8.63,-6.03,1.67,-0.28,-0.16,0.25,-35.41,-14.12,32.49,-1.00
15318.00,-8.63,-6.03,1.67,-0.28,-0.16,0.25,-35.41,-14.12,32.49,-1.00
15332.00,-8.16,-5.66,1.95,-0.26,-0.07,0.16,-35.41,-14.12,32.49,-1.00
15422.00,-7.44,-6.29,0.88,-0.29,0.28,0.02,-38.05,-14.82,32.49,-1.00
15510.00,-7.77,-5.88,1.02,-0.17,-0.37,0.05,-37.87,-15.69,31.06,-1.00
15598.00,-8.01,-5.71,1.55,-0.50,-0.17,0.07,-37.30,-14.47,32.17,-1.00
15612.00,-7.96,-5.99,1.91,-0.57,-0.06,0.08,-37.30,-14.47,32.17,-1.00
15624.00,-7.96,-5.99,1.91,-0.57,-0.06,0.08,-37.30,-14.47,32.17,-1.00
15636.00,-8.13,-6.38,2.16,-0.58,0.19,0.08,-37.30,-14.47,32.17,-1.00
15648.00,-7.99,-5.30,1.17,-0.49,0.52,0.11,-37.30,-14.47,32.17,-1.00
15662.00,-7.99,-5.30,1.17,-0.49,0.52,0.11,-37.30,-14.47,32.17,-1.00
15674.00,-7.61,-5.65,0.17,-0.44,0.58,0.05,-37.30,-14.47,32.17,-1.00
15686.00,-7.42,-5.80,-0.05,-0.38,0.39,0.03,-37.30,-14.47,32.17,-1.00
15700.00,-7.42,-5.80,-0.05,-0.38,0.39,0.03,-37.30,-14.47,32.17,-1.00
15712.00,-7.71,-6.06,0.70,-0.30,0.12,0.02,-37.30,-14.47,32.17,-1.00
15724.00,-7.71,-6.06,0.70,-0.30,0.12,0.02,-37.30,-14.47,32.17,-1.00
15736.00,-7.88,-5.90,1.07,-0.27,-0.01,0.03,-37.11,-15.69,29.80,-1.00
15750.00,-7.75,-5.89,0.19,-0.23,-0.03,0.03,-37.11,-15.69,29.80,-1.00
15762.00,-7.75,-5.89,0.19,-0.23,-0.03,0.03,-37.11,-15.69,29.80,-1.00
15774.00,-7.53,-6.12,0.06,-0.19,-0.22,0.02,-37.11,-15.69,29.80,-1.00
15786.00,-7.86,-6.03,0.57,-0.13,-0.46,0.02,-37.11,-15.69,29.80,-1.00
15800.00,-7.86,-6.03,0.57,-0.13,-0.46,0.02,-37.11,-15.69,29.80,-1.00
15812.00,-8.04,-5.62,1.51,-0.09,-0.57,0.10,-37.11,-15.69,29.80,-1.00
15824.00,-8.13,-5.75,1.86,-0.25,-0.48,0.11,-37.11,-15.69,29.80,-1.00
15839.00,-8.13,-5.75,1.86,-0.25,-0.48,0.11,-37.11,-15.69,29.80,-1.00
15850.00,-8.14,-5.98,2.21,-0.38,-0.31,0.10,-37.11,-14.30,32.01,-1.00
15862.00,-8.14,-5.98,2.21,-0.38,-0.31,0.10,-37.11,-14.30,32.01,-1.00
15874.00,-8.54,-5.49,3.31,-0.54,-0.08,0.14,-37.11,-14.30,32.01,-1.00
15888.00,-8.01,-4.99,1.80,-0.64,0.29,0.10,-37.11,-14.30,32.01,-1.00
15900.00,-8.01,-4.99,1.80,-0.64,0.29,0.10,-37.11,-14.30,32.01,-1.00
15912.00,-7.81,-4.93,1.27,-0.65,0.45,-0.05,-37.11,-14.30,32.01,-1.00
15924.00,-7.74,-5.82,0.88,-0.50,0.53,-0.21,-37.11,-14.30,32.01,-1.00
15938.00,-7.74,-5.82,0.88,-0.50,0.53,-0.21,-37.11,-14.30,32.01,-1.00
15950.00,-8.40,-5.44,0.13,-0.35,0.46,-0.25,-37.11,-14.30,32.01,-1.00
15962.00,-8.40,-5.44,0.13,-0.35,0.46,-0.25,-37.11,-14.30,32.01,-1.00
15976.00,-8.59,-5.29,0.22,-0.36,0.26,-0.35,-36.54,-14.12,29.64,-1.00
15988.00,-7.53,-6.31,0.70,-0.49,0.02,-0.46,-36.54,-14.12,29.64,-1.00
16000.00,-7.53,-6.31,0.70,-0.49,0.02,-0.46,-36.54,-14.12,29.64,-1.00
16012.00,-6.79,-7.08,0.00,-0.46,-0.15,-0.33,-36.54,-14.12,29.64,-1.00
16026.00,-6.80,-6.92,0.44,-0.31,-0.35,-0.13,-36.54,-14.12,29.64,-1.00
16038.00,-6.80,-6.92,0.44,-0.31,-0.35,-0.13,-36.54,-14.12,29.64,-1.00
16050.00,-6.60,-7.44,0.88,-0.21,-0.42,-0.01,-36.54,-14.12,29.64,-1.00
16062.00,-6.60,-7.44,0.88,-0.21,-0.42,-0.01,-36.54,-14.12,29.64,-1.00
16076.00,-7.28,-6.74,0.95,-0.17,-0.36,0.23,-36.54,-14.12,29.64,-1.00
16088.00,-9.40,-5.95,1.58,-0.21,-0.27,0.39,-35.97,-14.99,31.38,-1.00
16100.00,-9.40,-5.95,1.58,-0.21,-0.27,0.39,-35.97,-14.99,31.38,-1.00
16114.00,-8.43,-5.16,2.24,-0.28,-0.05,0.32,-35.97,-14.99,31.38,-1.00
16126.00,-8.85,-5.60,2.46,-0.32,0.31,0.20,-35.97,-14.99,31.38,-1.00
16138.00,-8.85,-5.60,2.46,-0.32,0.31,0.20,-35.97,-14.99,31.38,-1.00
16150.00,-8.14,-5.90,1.34,-0.36,0.77,0.15,-35.97,-14.99,31.38,-1.00
16165.00,-7.92,-5.69,0.51,-0.43,0.91,0.13,-35.97,-14.99,31.38,-1.00
16176.00,-7.92,-5.69,0.51,-0.43,0.91,0.13,-35.97,-14.99,31.38,-1.00
16188.00,-7.37,-5.83,-0.69,-0.44,0.75,0.13,-35.97,-14.99,31.38,-1.00
16200.00,-7.37,-5.83,-0.69,-0.44,0.75,0.13,-35.97,-14.99,31.38,-1.00
16214.00,-7.53,-5.94,-0.36,-0.34,0.42,0.06,-40.32,-15.52,28.37,-1.00
16226.00,-7.99,-5.56,0.43,-0.26,0.10,0.03,-40.32,-15.52,28.37,-1.00
16238.00,-7.99,-5.56,0.43,-0.26,0.10,0.03,-40.32,-15.52,28.37,-1.00
16252.00,-7.70,-5.69,-0.10,-0.23,-0.07,-0.06,-40.32,-15.52,28.37,-1.00
16264.00,-7.55,-5.42,-1.12,-0.13,-0.35,-0.14,-40.32,-15.52,28.37,-1.00
16276.00,-7.55,-5.42,-1.12,-0.13,-0.35,-0.14,-40.32,-15.52,28.37,-1.00
16288.00,-7.60,-6.46,0.41,-0.01,-0.75,-0.20,-40.32,-15.52,28.37,-1.00
16302.00,-7.60,-6.46,0.41,-0.01,-0.75,-0.20,-40.32,-15.52,28.37,-1.00
16314.00,-8.08,-6.12,0.93,0.12,-0.76,-0.15,-40.32,-15.52,28.37,-1.00
16326.00,-7.86,-6.47,0.86,0.11,-0.65,-0.10,-40.32,-15.52,28.37,-1.00
16338.00,-7.86,-6.47,0.86,0.11,-0.65,-0.10,-40.32,-15.52,28.37,-1.00
16352.00,-7.98,-6.75,1.86,0.05,-0.64,-0.01,-37.68,-15.17,30.27,-1.00
16364.00,-8.21,-6.12,1.54,-0.03,-0.53,0.09,-37.68,-15.17,30.27,-1.00
16376.00,-8.21,-6.12,1.54,-0.03,-0.53,0.09,-37.68,-15.17,30.27,-1.00
16390.00,-8.19,-5.62,1.62,-0.12,-0.37,0.14,-37.68,-15.17,30.27,-1.00
16402.00,-8.19,-5.62,1.62,-0.12,-0.37,0.14,-37.68,-15.17,30.27,-1.00
16414.00,-8.24,-5.65,1.93,-0.29,-0.29,0.16,-37.68,-15.17,30.27,-1.00
16426.00,-8.48,-5.71,2.49,-0.53,-0.19,0.18,-37.68,-15.17,30.27,-1.00
16441.00,-8.48,-5.71,2.49,-0.53,-0.19,0.18,-37.68,-15.17,30.27,-1.00
16452.00,-8.27,-5.00,2.52,-0.82,0.04,0.21,-37.68,-15.17,30.27,-1.00
16464.00,-7.84,-5.95,1.20,-0.85,0.34,0.06,-35.22,-14.99,32.01,-1.00
16476.00,-7.84,-5.95,1.20,-0.85,0.34,0.06,-35.22,-14.99,32.01,-1.00
16490.00,-7.47,-6.13,0.18,-0.63,0.43,-0.03,-35.22,-14.99,32.01,-1.00
16502.00,-7.47,-6.13,0.18,-0.63,0.43,-0.03,-35.22,-14.99,32.01,-1.00
16514.00,-7.48,-6.21,0.45,-0.36,0.34,-0.06,-35.22,-14.99,32.01,-1.00
16528.00,-7.88,-5.25,0.64,-0.19,0.27,-0.12,-35.22,-14.99,32.01,-1.00
16540.00,-7.88,-5.25,0.64,-0.19,0.27,-0.12,-35.22,-14.99,32.01,-1.00
16552.00,-8.12,-5.25,1.10,-0.16,0.20,-0.24,-35.22,-14.99,32.01,-1.00
16564.00,-8.31,-5.37,1.22,-0.13,0.21,-0.34,-35.22,-14.99,32.01,-1.00
16578.00,-8.31,-5.37,1.22,-0.13,0.21,-0.34,-35.22,-14.99,32.01,-1.00
16591.00,-8.32,-4.88,0.71,-0.16,0.22,-0.38,-38.43,-17.27,29.64,-1.00
16602.00,-8.32,-4.88,0.71,-0.16,0.22,-0.38,-38.43,-17.27,29.64,-1.00
16616.00,-9.65,-6.07,2.61,-0.14,0.29,-0.55,-38.43,-17.27,29.64,-1.00
16628.00,-8.11,-6.37,0.17,-0.25,0.52,-0.73,-38.43,-17.27,29.64,-1.00
16640.00,-8.11,-6.37,0.17,-0.25,0.52,-0.73,-38.43,-17.27,29.64,-1.00
16652.00,-6.52,-7.65,-1.78,-0.22,0.36,-0.57,-38.43,-17.27,29.64,-1.00
16666.00,-7.38,-5.84,-1.43,0.11,-0.07,0.17,-38.43,-17.27,29.64,-1.00
16678.00,-7.38,-5.84,-1.43,0.11,-0.07,0.17,-38.43,-17.27,29.64,-1.00
16690.00,-8.70,-4.16,1.95,0.13,-0.52,0.41,-38.43,-17.27,29.64,-1.00
16702.00,-8.70,-4.16,1.95,0.13,-0.52,0.41,-38.43,-17.27,29.64,-1.00
16716.00,-7.85,-5.92,1.19,-0.16,-0.38,-0.03,-38.24,-16.04,30.43,-1.00
16728.00,-6.44,-7.54,-0.02,-0.31,-0.24,-0.26,-38.24,-16.04,30.43,-1.00
16740.00,-6.44,-7.54,-0.02,-0.31,-0.24,-0.26,-38.24,-16.04,30.43,-1.00
16756.00,-5.59,-8.55,0.02,-0.23,-0.30,-0.24,-38.24,-16.04,30.43,-1.00
16767.00,-6.62,-7.34,0.92,-0.09,-0.42,0.10,-38.24,-16.04,30.43,-1.00
16779.00,-6.62,-7.34,0.92,-0.09,-0.42,0.10,-38.24,-16.04,30.43,-1.00
16791.00,-8.33,-5.45,2.14,-0.03,-0.39,0.31,-38.24,-16.04,30.43,-1.00
16805.00,-8.49,-5.19,2.05,-0.12,-0.22,0.17,-38.24,-16.04,30.43,-1.00
16817.00,-8.49,-5.19,2.05,-0.12,-0.22,0.17,-38.24,-16.04,30.43,-1.00
16829.00,-7.95,-5.95,1.17,-0.18,-0.06,0.03,-36.92,-14.12,31.22,-1.00
16841.00,-7.95,-5.95,1.17,-0.18,-0.06,0.03,-36.92,-14.12,31.22,-1.00
16855.00,-7.19,-6.88,0.36,-0.15,-0.00,0.06,-36.92,-14.12,31.22,-1.00
16867.00,-7.27,-6.98,0.13,-0.03,-0.03,0.26,-36.92,-14.12,31.22,-1.00
16879.00,-7.27,-6.98,0.13,-0.03,-0.03,0.26,-36.92,-14.12,31.22,-1.00
16893.00,-8.27,-5.77,2.00,0.03,-0.13,0.34,-36.92,-14.12,31.22,-1.00
16905.00,-8.44,-4.93,1.63,-0.11,-0.09,0.25,-36.92,-14.12,31.22,-1.00
16917.00,-8.44,-4.93,1.63,-0.11,-0.09,0.25,-36.92,-14.12,31.22,-1.00
16929.00,-8.14,-5.23,1.69,-0.32,-0.04,0.13,-36.92,-14.12,31.22,-1.00
16943.00,-7.90,-5.74,1.10,-0.49,-0.00,0.08,-38.24,-14.64,32.01,-1.00
16955.00,-7.90,-5.74,1.10,-0.49,-0.00,0.08,-38.24,-14.64,32.01,-1.00
16967.00,-7.82,-5.60,0.82,-0.57,-0.09,0.06,-38.24,-14.64,32.01,-1.00
16979.00,-7.82,-5.60,0.82,-0.57,-0.09,0.06,-38.24,-14.64,32.01,-1.00
16993.00,-7.69,-5.61,1.12,-0.55,-0.21,0.02,-38.24,-14.64,32.01,-1.00
17005.00,-7.68,-5.90,1.17,-0.46,-0.24,-0.03,-38.24,-14.64,32.01,-1.00
17017.00,-7.68,-5.90,1.17,-0.46,-0.24,-0.03,-38.24,-14.64,32.01,-1.00
17031.00,-7.73,-5.78,1.10,-0.33,-0.24,-0.06,-38.24,-14.64,32.01,-1.00
17043.00,-7.66,-6.49,1.15,-0.18,-0.23,-0.07,-38.24,-14.64,32.01,-1.00
17055.00,-7.66,-6.49,1.15,-0.18,-0.23,-0.07,-38.24,-14.64,32.01,-1.00
17067.00,-7.79,-6.26,0.68,-0.04,-0.17,-0.04,-38.24,-14.64,32.01,-1.00
17081.00,-7.79,-6.26,0.68,-0.04,-0.17,-0.04,-38.24,-14.64,32.01,-1.00
17093.00,-8.02,-5.58,1.96,0.12,-0.09,-0.02,-35.97,-13.60,32.65,-1.00
17105.00,-8.24,-5.29,1.98,0.15,0.03,-0.09,-35.97,-13.60,32.65,-1.00
17117.00,-8.24,-5.29,1.98,0.15,0.03,-0.09,-35.97,-13.60,32.65,-1.00
17131.00,-8.17,-5.61,1.48,0.11,0.13,-0.16,-35.97,-13.60,32.65,-1.00
17143.00,-8.00,-5.89,1.23,0.02,0.19,-0.17,-35.97,-13.60,32.65,-1.00
17155.00,-8.00,-5.89,1.23,0.02,0.19,-0.17,-35.97,-13.60,32.65,-1.00
17169.00,-8.01,-6.07,1.53,-0.15,0.28,-0.17,-35.97,-13.60,32.65,-1.00
17181.00,-8.01,-6.07,1.53,-0.15,0.28,-0.17,-35.97,-13.60,32.65,-1.00
17193.00,-7.97,-5.76,1.36,-0.30,0.35,-0.14,-35.97,-13.60,32.65,-1.00
17205.00,-8.13,-5.27,1.01,-0.43,0.21,-0.14,-37.49,-14.64,32.01,-1.00
17219.00,-8.13,-5.27,1.01,-0.43,0.21,-0.14,-37.49,-14.64,32.01,-1.00
17231.00,-8.55,-5.46,0.45,-0.54,0.03,-0.19,-37.49,-14.64,32.01,-1.00
17243.00,-7.79,-5.97,1.44,-0.59,-0.14,-0.26,-37.49,-14.64,32.01,-1.00
17255.00,-7.79,-5.97,1.44,-0.59,-0.14,-0.26,-37.49,-14.64,32.01,-1.00
17269.00,-7.45,-6.26,0.91,-0.57,-0.12,-0.26,-37.49,-14.64,32.01,-1.00
17281.00,-7.45,-6.26,0.91,-0.57,-0.12,-0.26,-37.49,-14.64,32.01,-1.00
17293.00,-6.97,-6.72,0.84,-0.48,-0.13,-0.19,-37.49,-14.64,32.01,-1.00
17308.00,-7.76,-5.85,1.33,-0.41,-0.16,-0.00,-37.49,-14.64,32.01,-1.00
17319.00,-7.76,-5.85,1.33,-0.41,-0.16,-0.00,-37.49,-14.64,32.01,-1.00
17332.00,-7.19,-6.71,0.51,-0.37,-0.09,-0.04,-35.78,-14.47,31.22,-1.00
17344.00,-7.55,-6.34,0.99,-0.31,-0.12,0.01,-35.78,-14.47,31.22,-1.00
17358.00,-7.55,-6.34,0.99,-0.31,-0.12,0.01,-35.78,-14.47,31.22,-1.00
17370.00,-7.43,-6.28,1.06,-0.29,-0.13,0.06,-35.78,-14.47,31.22,-1.00
17382.00,-7.43,-6.28,1.06,-0.29,-0.13,0.06,-35.78,-14.47,31.22,-1.00
17396.00,-7.55,-6.25,0.90,-0.24,-0.10,0.12,-35.78,-14.47,31.22,-1.00
17408.00,-7.55,-6.23,1.09,-0.23,-0.12,0.17,-35.78,-14.47,31.22,-1.00
17420.00,-7.55,-6.23,1.09,-0.23,-0.12,0.17,-35.78,-14.47,31.22,-1.00
17432.00,-7.62,-6.17,1.22,-0.26,-0.15,0.22,-35.78,-14.47,31.22,-1.00
17446.00,-7.67,-6.23,1.04,-0.29,-0.18,0.26,-36.54,-15.17,31.54,-1.00
17458.00,-7.67,-6.23,1.04,-0.29,-0.18,0.26,-36.54,-15.17,31.54,-1.00
17470.00,-7.96,-5.72,1.51,-0.33,-0.19,0.23,-36.54,-15.17,31.54,-1.00
17482.00,-8.21,-5.81,1.22,-0.38,-0.16,0.18,-36.54,-15.17,31.54,-1.00
17497.00,-8.21,-5.81,1.22,-0.38,-0.16,0.18,-36.54,-15.17,31.54,-1.00
17508.00,-7.99,-5.75,1.26,-0.35,-0.08,0.16,-36.54,-15.17,31.54,-1.00
17520.00,-7.99,-5.75,1.26,-0.35,-0.08,0.16,-36.54,-15.17,31.54,-1.00
17534.00,-8.24,-5.44,1.16,-0.31,0.01,0.14,-36.54,-15.17,31.54,-1.00
17546.00,-8.63,-5.53,1.95,-0.30,0.20,0.12,-36.54,-15.17,31.54,-1.00
17558.00,-8.63,-5.53,1.95,-0.30,0.20,0.12,-36.54,-15.17,31.54,-1.00
17570.00,-7.97,-5.05,0.73,-0.26,0.54,0.16,-37.49,-15.69,32.01,-1.00
17584.00,-7.52,-5.72,-0.56,-0.30,0.55,0.10,-37.49,-15.69,32.01,-1.00
17596.00,-7.52,-5.72,-0.56,-0.30,0.55,0.10,-37.49,-15.69,32.01,-1.00
17608.00,-7.36,-6.46,-0.35,-0.30,0.19,0.11,-37.49,-15.69,32.01,-1.00
17620.00,-7.36,-6.46,-0.35,-0.30,0.19,0.11,-37.49,-15.69,32.01,-1.00
17634.00,-7.92,-5.54,0.74,-0.27,-0.10,0.18,-37.49,-15.69,32.01,-1.00
17722.00,-8.34,-5.55,1.48,-0.34,-0.37,-0.30,-36.73,-14.64,31.70,-1.00
17812.00,-6.09,-7.62,-1.33,-0.16,0.29,0.17,-36.73,-14.64,31.70,-1.00
17826.00,-9.54,-4.97,0.91,-0.02,-0.01,0.47,-37.49,-16.74,31.06,-1.00
17838.00,-9.54,-4.97,0.91,-0.02,-0.01,0.47,-37.49,-16.74,31.06,-1.00
17850.00,-8.58,-4.44,1.70,-0.24,-0.14,0.30,-37.49,-16.74,31.06,-1.00
17862.00,-8.10,-5.00,1.49,-0.47,-0.13,0.12,-37.49,-16.74,31.06,-1.00
17876.00,-8.10,-5.00,1.49,-0.47,-0.13,0.12,-37.49,-16.74,31.06,-1.00
17888.00,-7.77,-5.79,1.18,-0.51,-0.12,0.00,-37.49,-16.74,31.06,-1.00
17900.00,-7.77,-5.79,1.18,-0.51,-0.12,0.00,-37.49,-16.74,31.06,-1.00
17912.00,-7.89,-5.83,1.34,-0.45,-0.07,-0.05,-37.49,-16.74,31.06,-1.00
17927.00,-7.80,-5.54,0.56,-0.45,-0.03,-0.08,-37.49,-16.74,31.06,-1.00
17938.00,-7.80,-5.54,0.56,-0.45,-0.03,-0.08,-37.49,-16.74,31.06,-1.00
17950.00,-7.87,-6.22,0.45,-0.37,-0.03,-0.11,-37.11,-16.39,32.97,-1.00
17964.00,-7.96,-6.28,0.80,-0.20,0.03,-0.07,-37.11,-16.39,32.97,-1.00
17976.00,-7.96,-6.28,0.80,-0.20,0.03,-0.07,-37.11,-16.39,32.97,-1.00
17988.00,-8.05,-6.02,1.26,-0.08,0.10,-0.02,-37.11,-16.39,32.97,-1.00
18000.00,-8.05,-6.02,1.26,-0.08,0.10,-0.02,-37.11,-16.39,32.97,-1.00
18014.00,-8.12,-5.94,0.60,-0.04,0.15,0.01,-37.11,-16.39,32.97,-1.00
18026.00,-8.29,-5.61,0.70,-0.06,0.15,0.05,-37.11,-16.39,32.97,-1.00
18038.00,-8.29,-5.61,0.70,-0.06,0.15,0.05,-37.11,-16.39,32.97,-1.00
18050.00,-8.21,-5.28,0.49,-0.14,0.17,0.06,-37.11,-16.39,32.97,-1.00
18064.00,-8.03,-6.03,1.11,-0.32,0.09,0.05,-37.49,-13.95,30.75,-1.00
18076.00,-8.03,-6.03,1.11,-0.32,0.09,0.05,-37.49,-13.95,30.75,-1.00
18088.00,-8.03,-5.40,0.57,-0.45,0.02,0.09,-37.49,-13.95,30.75,-1.00
18103.00,-7.89,-5.53,1.24,-0.52,-0.16,0.04,-37.49,-13.95,30.75,-1.00
18114.00,-7.89,-5.53,1.24,-0.52,-0.16,0.04,-37.49,-13.95,30.75,-1.00
18126.00,-7.71,-6.14,0.83,-0.52,-0.23,-0.05,-37.49,-13.95,30.75,-1.00
18138.00,-7.71,-6.14,0.83,-0.52,-0.23,-0.05,-37.49,-13.95,30.75,-1.00
18152.00,-7.71,-6.22,0.99,-0.50,-0.30,-0.07,-37.49,-13.95,30.75,-1.00
18164.00,-7.65,-6.28,0.45,-0.42,-0.28,-0.05,-37.49,-13.95,30.75,-1.00
18176.00,-7.65,-6.28,0.45,-0.42,-0.28,-0.05,-37.49,-13.95,30.75,-1.00
18188.00,-7.83,-6.00,0.63,-0.30,-0.27,-0.00,-36.54,-15.87,31.54,-1.00
18202.00,-7.89,-6.03,0.99,-0.18,-0.24,0.03,-36.54,-15.87,31.54,-1.00
18214.00,-7.89,-6.03,0.99,-0.18,-0.24,0.03,-36.54,-15.87,31.54,-1.00
18226.00,-8.15,-5.83,1.34,-0.14,-0.18,0.06,-36.54,-15.87,31.54,-1.00
18240.00,-8.15,-5.83,1.34,-0.14,-0.18,0.06,-36.54,-15.87,31.54,-1.00
18254.00,-8.23,-5.50,1.23,-0.17,-0.05,0.06,-36.54,-15.87,31.54,-1.00
18265.00,-8.13,-5.22,0.80,-0.24,0.04,0.03,-36.54,-15.87,31.54,-1.00
18277.00,-8.13,-5.22,0.80,-0.24,0.04,0.03,-36.54,-15.87,31.54,-1.00
18291.00,-8.72,-5.50,1.54,-0.29,0.16,-0.00,-36.54,-15.87,31.54,-1.00
18303.00,-7.92,-4.83,0.48,-0.30,0.55,0.06,-38.05,-15.87,31.22,-1.00
18315.00,-7.92,-4.83,0.48,-0.30,0.55,0.06,-38.05,-15.87,31.22,-1.00
18327.00,-7.82,-5.88,0.14,-0.35,0.55,-0.00,-38.05,-15.87,31.22,-1.00
18341.00,-7.25,-6.55,-0.95,-0.32,0.28,0.01,-38.05,-15.87,31.22,-1.00
18353.00,-7.25,-6.55,-0.95,-0.32,0.28,0.01,-38.05,-15.87,31.22,-1.00
18365.00,-7.84,-6.12,0.88,-0.20,-0.06,0.08,-38.05,-15.87,31.22,-1.00
18380.00,-7.84,-6.12,0.88,-0.20,-0.06,0.08,-38.05,-15.87,31.22,-1.00
18391.00,-7.66,-5.45,0.43,-0.26,-0.21,0.10,-38.05,-15.87,31.22,-1.00
18403.00,-7.63,-6.11,-0.15,-0.37,-0.56,0.02,-38.05,-15.87,31.22,-1.00
18415.00,-7.63,-6.11,-0.15,-0.37,-0.56,0.02,-38.05,-15.87,31.22,-1.00
18429.00,-8.57,-4.53,1.87,-0.37,-0.77,0.02,-38.05,-15.87,31.22,-1.00
18441.00,-8.73,-4.21,2.63,-0.44,-0.45,-0.15,-36.73,-15.34,32.65,-1.00
18453.00,-8.73,-4.21,2.63,-0.44,-0.45,-0.15,-36.73,-15.34,32.65,-1.00
18465.00,-8.50,-5.21,1.65,-0.57,-0.10,-0.35,-36.73,-15.34,32.65,-1.00
18479.00,-8.50,-5.21,1.65,-0.57,-0.10,-0.35,-36.73,-15.34,32.65,-1.00
18491.00,-9.23,-5.39,2.86,-0.51,0.18,-0.46,-36.73,-15.34,32.65,-1.00
18503.00,-9.49,-4.62,1.89,-0.44,0.70,-0.76,-36.73,-15.34,32.65,-1.00
18517.00,-9.49,-4.62,1.89,-0.44,0.70,-0.76,-36.73,-15.34,32.65,-1.00
18529.00,-6.65,-7.05,-1.14,-0.44,0.94,-1.00,-36.73,-15.34,32.65,-1.00
18541.00,-7.50,-6.36,-2.24,-0.09,0.60,-0.40,-36.73,-15.34,32.65,-1.00
18553.00,-7.50,-6.36,-2.24,-0.09,0.60,-0.40,-36.73,-15.34,32.65,-1.00
18568.00,-7.41,-5.49,-0.71,0.07,0.01,-0.05,-36.73,-19.54,29.16,-1.00
18579.00,-7.41,-5.49,-0.71,0.07,0.01,-0.05,-36.73,-19.54,29.16,-1.00
18591.00,-6.81,-6.77,-0.40,-0.03,-0.32,-0.19,-36.73,-19.54,29.16,-1.00
18605.00,-6.22,-7.91,0.11,-0.05,-0.49,-0.30,-36.73,-19.54,29.16,-1.00
18617.00,-6.22,-7.91,0.11,-0.05,-0.49,-0.30,-36.73,-19.54,29.16,-1.00
18629.00,-5.41,-8.79,-0.03,0.09,-0.41,-0.21,-36.73,-19.54,29.16,-1.00
18641.00,-7.42,-6.08,1.29,0.23,-0.48,0.14,-36.73,-19.54,29.16,-1.00
18655.00,-7.42,-6.08,1.29,0.23,-0.48,0.14,-36.73,-19.54,29.16,-1.00
18667.00,-8.39,-5.57,2.03,0.12,-0.52,0.13,-36.73,-19.54,29.16,-1.00
18680.00,-8.39,-5.57,2.03,0.12,-0.52,0.13,-36.73,-19.54,29.16,-1.00
18692.00,-8.46,-5.43,1.85,-0.12,-0.47,0.03,-35.03,-17.61,31.54,-1.00
18706.00,-7.76,-6.22,1.29,-0.23,-0.33,-0.06,-35.03,-17.61,31.54,-1.00
18718.00,-7.76,-6.22,1.29,-0.23,-0.33,-0.06,-35.03,-17.61,31.54,-1.00
18730.00,-7.06,-7.02,0.90,-0.26,-0.27,-0.01,-35.03,-17.61,31.54,-1.00
18744.00,-6.78,-7.11,0.45,-0.19,-0.27,0.17,-35.03,-17.61,31.54,-1.00
18756.00,-6.78,-7.11,0.45,-0.19,-0.27,0.17,-35.03,-17.61,31.54,-1.00
18768.00,-7.28,-6.69,1.04,-0.13,-0.36,0.37,-35.03,-17.61,31.54,-1.00
18780.00,-7.28,-6.69,1.04,-0.13,-0.36,0.37,-35.03,-17.61,31.54,-1.00
18794.00,-9.61,-5.22,1.93,-0.09,-0.36,0.48,-35.03,-17.61,31.54,-1.00
18806.00,-8.42,-5.03,2.07,-0.16,-0.17,0.32,-34.27,-16.57,33.12,-1.00
18818.00,-8.42,-5.03,2.07,-0.16,-0.17,0.32,-34.27,-16.57,33.12,-1.00
18830.00,-8.22,-5.69,1.89,-0.28,0.01,0.20,-34.27,-16.57,33.12,-1.00
18845.00,-8.17,-6.56,2.65,-0.33,0.21,0.18,-34.27,-16.57,33.12,-1.00
18856.00,-8.17,-6.56,2.65,-0.33,0.21,0.18,-34.27,-16.57,33.12,-1.00
18868.00,-7.83,-5.90,0.80,-0.27,0.52,0.26,-34.27,-16.57,33.12,-1.00
18882.00,-7.78,-5.61,1.12,-0.23,0.50,0.25,-34.27,-16.57,33.12,-1.00
18894.00,-7.78,-5.61,1.12,-0.23,0.50,0.25,-34.27,-16.57,33.12,-1.00
18906.00,-7.75,-5.82,1.38,-0.27,0.42,0.18,-34.27,-16.57,33.12,-1.00
18918.00,-7.75,-5.82,1.38,-0.27,0.42,0.18,-34.27,-16.57,33.12,-1.00
18932.00,-7.64,-5.45,0.89,-0.32,0.28,0.12,-36.92,-14.47,32.81,-1.00
18944.00,-7.84,-5.57,0.94,-0.40,0.07,0.03,-36.92,-14.47,32.81,-1.00
18956.00,-7.84,-5.57,0.94,-0.40,0.07,0.03,-36.92,-14.47,32.81,-1.00
18968.00,-8.09,-5.20,0.94,-0.38,0.02,-0.03,-36.92,-14.47,32.81,-1.00
18982.00,-8.18,-4.95,1.33,-0.40,-0.06,-0.17,-36.92,-14.47,32.81,-1.00
18994.00,-8.18,-4.95,1.33,-0.40,-0.06,-0.17,-36.92,-14.47,32.81,-1.00
19006.00,-8.95,-5.22,1.72,-0.40,-0.04,-0.42,-36.92,-14.47,32.81,-1.00
19021.00,-8.37,-5.11,1.45,-0.44,0.04,-0.76,-36.92,-14.47,32.81,-1.00
19032.00,-8.37,-5.11,1.45,-0.44,0.04,-0.76,-36.92,-14.47,32.81,-1.00
19044.00,-6.77,-7.38,0.22,-0.49,0.08,-0.90,-36.92,-14.47,32.81,-1.00
19056.00,-6.77,-7.38,0.22,-0.49,0.08,-0.90,-36.92,-14.47,32.81,-1.00
19070.00,-5.57,-8.82,-0.72,-0.34,0.01,-0.54,-34.84,-18.14,31.38,-1.00
19082.00,-5.54,-8.70,-1.19,-0.05,-0.11,0.04,-34.84,-18.14,31.38,-1.00
19094.00,-5.54,-8.70,-1.19,-0.05,-0.11,0.04,-34.84,-18.14,31.38,-1.00
19106.00,-6.83,-7.09,0.10,0.23,-0.32,0.60,-34.84,-18.14,31.38,-1.00
19120.00,-10.21,-4.58,3.09,0.18,-0.45,0.76,-34.84,-18.14,31.38,-1.00
19132.00,-10.21,-4.58,3.09,0.18,-0.45,0.76,-34.84,-18.14,31.38,-1.00
19144.00,-8.87,-3.91,2.25,-0.34,-0.30,0.35,-34.84,-18.14,31.38,-1.00
19158.00,-8.87,-3.91,2.25,-0.34,-0.30,0.35,-34.84,-18.14,31.38,-1.00
19170.00,-8.18,-4.98,1.92,-0.68,-0.21,0.10,-34.84,-18.14,31.38,-1.00
19182.00,-8.13,-5.61,0.71,-0.70,-0.06,-0.07,-32.76,-17.27,32.81,-1.00
19194.00,-8.13,-5.61,0.71,-0.70,-0.06,-0.07,-32.76,-17.27,32.81,-1.00
19208.00,-8.56,-5.27,0.93,-0.60,-0.04,-0.19,-32.76,-17.27,32.81,-1.00
19220.00,-8.08,-5.33,1.45,-0.55,-0.04,-0.41,-32.76,-17.27,32.81,-1.00
19232.00,-8.08,-5.33,1.45,-0.55,-0.04,-0.41,-32.76,-17.27,32.81,-1.00
19244.00,-6.96,-6.94,0.35,-0.53,-0.00,-0.55,-32.76,-17.27,32.81,-1.00
19258.00,-6.96,-6.94,0.35,-0.53,-0.00,-0.55,-32.76,-17.27,32.81,-1.00
19271.00,-5.90,-8.21,-0.33,-0.38,-0.09,-0.34,-32.76,-17.27,32.81,-1.00
19282.00,-6.52,-7.86,0.60,-0.17,-0.23,0.03,-32.76,-17.27,32.81,-1.00
19296.00,-6.52,-7.86,0.60,-0.17,-0.23,0.03,-32.76,-17.27,32.81,-1.00
19308.00,-7.01,-6.93,0.61,-0.04,-0.23,0.33,-33.70,-18.14,32.97,-1.00
19320.00,-7.65,-6.24,1.34,-0.03,-0.29,0.52,-33.70,-18.14,32.97,-1.00
19332.00,-7.65,-6.24,1.34,-0.03,-0.29,0.52,-33.70,-18.14,32.97,-1.00
19346.00,-8.37,-5.24,2.62,-0.14,-0.23,0.42,-33.70,-18.14,32.97,-1.00
19358.00,-8.37,-5.24,2.62,-0.14,-0.23,0.42,-33.70,-18.14,32.97,-1.00
19370.00,-8.07,-5.60,1.28,-0.31,-0.06,0.23,-33.70,-18.14,32.97,-1.00
19384.00,-8.21,-5.42,1.05,-0.28,0.02,0.14,-33.70,-18.14,32.97,-1.00
19396.00,-8.21,-5.42,1.05,-0.28,0.02,0.14,-33.70,-18.14,32.97,-1.00
19408.00,-8.43,-5.50,1.88,-0.29,0.19,0.11,-33.70,-18.14,32.97,-1.00
19420.00,-8.47,-5.74,1.83,-0.32,0.50,0.11,-35.03,-15.52,33.44,-1.00
19435.00,-8.47,-5.74,1.83,-0.32,0.50,0.11,-35.03,-15.52,33.44,-1.00
19446.00,-7.62,-5.86,0.45,-0.35,0.72,0.14,-35.03,-15.52,33.44,-1.00
19458.00,-7.62,-5.86,0.45,-0.35,0.72,0.14,-35.03,-15.52,33.44,-1.00
19470.00,-7.49,-6.31,0.38,-0.36,0.48,0.11,-35.03,-15.52,33.44,-1.00
19484.00,-7.64,-5.81,0.04,-0.29,0.16,0.11,-35.03,-15.52,33.44,-1.00
19496.00,-7.64,-5.81,0.04,-0.29,0.16,0.11,-35.03,-15.52,33.44,-1.00
19508.00,-8.00,-5.53,0.84,-0.21,-0.02,0.09,-35.03,-15.52,33.44,-1.00
19520.00,-7.94,-5.59,0.35,-0.15,-0.03,0.04,-35.03,-15.52,33.44,-1.00
19534.00,-7.94,-5.59,0.35,-0.15,-0.03,0.04,-35.03,-15.52,33.44,-1.00
19546.00,-7.82,-5.89,-0.22,-0.11,-0.13,0.01,-37.68,-15.52,31.54,-1.00
19558.00,-7.82,-5.89,-0.22,-0.11,-0.13,0.01,-37.68,-15.52,31.54,-1.00
19572.00,-7.48,-5.78,-0.68,-0.08,-0.28,0.03,-37.68,-15.52,31.54,-1.00
19584.00,-8.12,-6.00,1.23,-0.05,-0.46,0.05,-37.68,-15.52,31.54,-1.00
19596.00,-8.12,-6.00,1.23,-0.05,-0.46,0.05,-37.68,-15.52,31.54,-1.00
19608.00,-8.00,-5.62,0.79,-0.12,-0.46,0.08,-37.68,-15.52,31.54,-1.00
19622.00,-8.32,-5.93,2.52,-0.26,-0.53,0.08,-37.68,-15.52,31.54,-1.00
19634.00,-8.32,-5.93,2.52,-0.26,-0.53,0.08,-37.68,-15.52,31.54,-1.00
19646.00,-8.36,-5.66,2.25,-0.41,-0.26,0.09,-37.68,-15.52,31.54,-1.00
19660.00,-8.73,-5.54,3.53,-0.62,-0.03,0.11,-35.78,-14.47,33.44,-1.00
19672.00,-8.73,-5.54,3.53,-0.62,-0.03,0.11,-35.78,-14.47,33.44,-1.00
19684.00,-8.17,-4.45,1.63,-0.81,0.38,0.10,-35.78,-14.47,33.44,-1.00
19696.00,-8.17,-4.45,1.63,-0.81,0.38,0.10,-35.78,-14.47,33.44,-1.00
19711.00,-8.01,-5.36,1.58,-0.78,0.54,-0.12,-35.78,-14.47,33.44,-1.00
19722.00,-7.93,-5.21,0.45,-0.62,0.65,-0.26,-35.78,-14.47,33.44,-1.00
19734.00,-7.93,-5.21,0.45,-0.62,0.65,-0.26,-35.78,-14.47,33.44,-1.00
19746.00,-8.48,-5.45,0.38,-0.51,0.59,-0.45,-35.78,-14.47,33.44,-1.00
19760.00,-7.73,-6.40,-0.88,-0.57,0.31,-0.67,-35.78,-14.47,33.44,-1.00
19772.00,-7.73,-6.40,-0.88,-0.57,0.31,-0.67,-35.78,-14.47,33.44,-1.00
19784.00,-6.22,-7.93,-1.08,-0.51,-0.07,-0.51,-35.78,-14.47,33.44,-1.00
19798.00,-6.22,-7.93,-1.08,-0.51,-0.07,-0.51,-35.78,-14.47,33.44,-1.00
19810.00,-6.69,-7.41,-1.28,-0.30,-0.16,-0.03,-35.78,-18.31,31.54,-1.00
19822.00,-7.17,-6.63,-0.64,-0.11,-0.21,0.34,-35.78,-18.31,31.54,-1.00
19834.00,-7.17,-6.63,-0.64,-0.11,-0.21,0.34,-35.78,-18.31,31.54,-1.00
19848.00,-9.94,-4.46,1.86,-0.18,-0.36,0.52,-35.78,-18.31,31.54,-1.00
19860.00,-8.85,-4.00,1.44,-0.50,-0.29,0.26,-35.78,-18.31,31.54,-1.00
19872.00,-8.85,-4.00,1.44,-0.50,-0.29,0.26,-35.78,-18.31,31.54,-1.00
19884.00,-7.74,-5.74,0.40,-0.61,-0.21,0.03,-35.78,-18.31,31.54,-1.00
19898.00,-7.74,-5.74,0.40,-0.61,-0.21,0.03,-35.78,-18.31,31.54,-1.00
19986.00,-7.96,-6.17,0.81,0.05,0.10,0.03,-36.35,-18.49,30.75,-1.00
20075.00,-8.12,-5.86,0.69,-0.46,-0.01,0.13,-35.22,-16.74,30.75,-1.00
20088.00,-8.04,-4.64,0.32,-0.59,-0.06,0.18,-35.22,-16.74,30.75,-1.00
20100.00,-8.32,-4.67,1.45,-0.61,-0.17,0.03,-35.22,-16.74,30.75,-1.00
20112.00,-8.32,-4.67,1.45,-0.61,-0.17,0.03,-35.22,-16.74,30.75,-1.00
20124.00,-8.28,-4.31,2.06,-0.62,-0.08,-0.18,-35.22,-16.74,30.75,-1.00
20138.00,-8.28,-4.31,2.06,-0.62,-0.08,-0.18,-35.22,-16.74,30.75,-1.00
20150.00,-8.21,-5.20,0.34,-0.58,0.17,-0.49,-35.22,-16.74,30.75,-1.00
20162.00,-9.36,-5.63,1.12,-0.31,0.33,-0.65,-35.59,-17.79,28.53,-1.00
20174.00,-9.36,-5.63,1.12,-0.31,0.33,-0.65,-35.59,-17.79,28.53,-1.00
20188.00,-8.42,-5.69,0.68,0.00,0.68,-0.88,-35.59,-17.79,28.53,-1.00
20200.00,-6.26,-6.83,-4.12,0.31,0.94,-0.72,-35.59,-17.79,28.53,-1.00
20212.00,-6.26,-6.83,-4.12,0.31,0.94,-0.72,-35.59,-17.79,28.53,-1.00
20226.00,-7.86,-6.77,-0.58,0.50,0.22,-0.23,-35.59,-17.79,28.53,-1.00
20238.00,-7.86,-6.77,-0.58,0.50,0.22,-0.23,-35.59,-17.79,28.53,-1.00
20250.00,-7.03,-6.05,-1.54,0.43,-0.22,0.08,-35.59,-17.79,28.53,-1.00
20262.00,-7.36,-5.49,-0.01,0.33,-0.57,0.13,-35.59,-17.79,28.53,-1.00
20276.00,-7.36,-5.49,-0.01,0.33,-0.57,0.13,-35.59,-17.79,28.53,-1.00
20288.00,-6.55,-6.40,-0.02,0.25,-0.56,-0.27,-34.08,-18.14,32.33,-1.00
20300.00,-6.21,-8.35,0.54,0.21,-0.58,-0.37,-34.08,-18.14,32.33,-1.00
20313.00,-6.21,-8.35,0.54,0.21,-0.58,-0.37,-34.08,-18.14,32.33,-1.00
20327.00,-7.28,-6.47,1.86,0.15,-0.67,-0.02,-34.08,-18.14,32.33,-1.00
20339.00,-8.16,-5.86,2.08,-0.03,-0.66,0.04,-34.08,-18.14,32.33,-1.00
20351.00,-8.16,-5.86,2.08,-0.03,-0.66,0.04,-34.08,-18.14,32.33,-1.00
20365.00,-8.12,-5.77,1.78,-0.16,-0.49,-0.04,-34.08,-18.14,32.33,-1.00
20377.00,-8.12,-5.77,1.78,-0.16,-0.49,-0.04,-34.08,-18.14,32.33,-1.00
20389.00,-7.83,-6.04,1.26,-0.19,-0.34,-0.12,-34.08,-18.14,32.33,-1.00
20401.00,-7.39,-6.31,0.92,-0.16,-0.26,-0.15,-34.08,-18.14,32.33,-1.00
20415.00,-7.39,-6.31,0.92,-0.16,-0.26,-0.15,-34.08,-18.14,32.33,-1.00
20427.00,-7.32,-6.57,1.00,-0.13,-0.29,-0.11,-32.76,-18.31,32.81,-1.00
20439.00,-7.08,-6.74,1.06,-0.12,-0.31,-0.03,-32.76,-18.31,32.81,-1.00
20453.00,-7.08,-6.74,1.06,-0.12,-0.31,-0.03,-32.76,-18.31,32.81,-1.00
20465.00,-7.13,-6.88,1.22,-0.13,-0.36,0.13,-32.76,-18.31,32.81,-1.00
20477.00,-7.13,-6.88,1.22,-0.13,-0.36,0.13,-32.76,-18.31,32.81,-1.00
20489.00,-7.16,-6.95,1.39,-0.12,-0.36,0.30,-32.76,-18.31,32.81,-1.00
20504.00,-9.34,-5.62,2.02,-0.07,-0.34,0.44,-32.76,-18.31,32.81,-1.00
20515.00,-9.34,-5.62,2.02,-0.07,-0.34,0.44,-32.76,-18.31,32.81,-1.00
20527.00,-8.23,-5.41,2.07,-0.17,-0.21,0.33,-32.76,-18.31,32.81,-1.00
20539.00,-7.91,-6.00,1.82,-0.27,-0.05,0.26,-33.89,-15.87,33.44,-1.00
20553.00,-7.91,-6.00,1.82,-0.27,-0.05,0.26,-33.89,-15.87,33.44,-1.00
20565.00,-8.38,-6.17,2.64,-0.29,0.09,0.24,-33.89,-15.87,33.44,-1.00
20577.00,-8.38,-6.17,2.64,-0.29,0.09,0.24,-33.89,-15.87,33.44,-1.00
20591.00,-8.15,-5.84,2.51,-0.28,0.40,0.28,-33.89,-15.87,33.44,-1.00
20603.00,-7.77,-5.73,1.10,-0.24,0.65,0.25,-33.89,-15.87,33.44,-1.00
20615.00,-7.77,-5.73,1.10,-0.24,0.65,0.25,-33.89,-15.87,33.44,-1.00
20627.00,-7.74,-5.40,1.28,-0.30,0.52,0.13,-33.89,-15.87,33.44,-1.00
20641.00,-7.51,-5.06,0.56,-0.38,0.34,0.03,-33.89,-15.87,33.44,-1.00
20653.00,-7.51,-5.06,0.56,-0.38,0.34,0.03,-33.89,-15.87,33.44,-1.00
20665.00,-8.06,-5.16,0.93,-0.47,0.10,-0.09,-35.41,-15.17,32.17,-1.00
20677.00,-8.06,-5.16,0.93,-0.47,0.10,-0.09,-35.41,-15.17,32.17,-1.00
20691.00,-7.96,-5.48,1.12,-0.54,-0.01,-0.23,-35.41,-15.17,32.17,-1.00
20703.00,-8.07,-6.38,1.46,-0.62,-0.12,-0.40,-35.41,-15.17,32.17,-1.00
20715.00,-8.07,-6.38,1.46,-0.62,-0.12,-0.40,-35.41,-15.17,32.17,-1.00
20729.00,-6.96,-7.03,0.47,-0.59,-0.09,-0.36,-35.41,-15.17,32.17,-1.00
20741.00,-6.49,-7.58,-0.17,-0.37,-0.04,-0.11,-35.41,-15.17,32.17,-1.00
20753.00,-6.49,-7.58,-0.17,-0.37,-0.04,-0.11,-35.41,-15.17,32.17,-1.00
20765.00,-6.97,-7.18,-0.07,-0.10,-0.03,0.23,-35.41,-15.17,32.17,-1.00
20780.00,-9.24,-4.96,0.99,0.05,-0.06,0.46,-34.46,-16.04,32.97,-1.00
20791.00,-9.24,-4.96,0.99,0.05,-0.06,0.46,-34.46,-16.04,32.97,-1.00
20803.00,-8.70,-4.86,1.68,-0.16,-0.06,0.29,-34.46,-16.04,32.97,-1.00
20815.00,-8.70,-4.86,1.68,-0.16,-0.06,0.29,-34.46,-16.04,32.97,-1.00
20829.00,-8.10,-5.00,1.82,-0.46,-0.01,0.16,-34.46,-16.04,32.97,-1.00
20841.00,-7.92,-5.61,1.17,-0.64,-0.04,0.06,-34.46,-16.04,32.97,-1.00
20853.00,-7.92,-5.61,1.17,-0.64,-0.04,0.06,-34.46,-16.04,32.97,-1.00
20867.00,-7.46,-5.94,0.43,-0.69,-0.13,-0.00,-34.46,-16.04,32.97,-1.00
20879.00,-7.48,-6.41,0.63,-0.60,-0.28,-0.03,-34.46,-16.04,32.97,-1.00
20891.00,-7.48,-6.41,0.63,-0.60,-0.28,-0.03,-34.46,-16.04,32.97,-1.00
20903.00,-7.49,-6.37,0.89,-0.37,-0.30,-0.02,-34.84,-15.69,32.65,-1.00
20917.00,-7.49,-6.37,0.89,-0.37,-0.30,-0.02,-34.84,-15.69,32.65,-1.00
20929.00,-7.61,-6.04,0.87,-0.22,-0.30,0.01,-34.84,-15.69,32.65,-1.00
20941.00,-7.80,-6.42,1.18,-0.05,-0.25,-0.00,-34.84,-15.69,32.65,-1.00
20954.00,-7.80,-6.42,1.18,-0.05,-0.25,-0.00,-34.84,-15.69,32.65,-1.00
20967.00,-7.79,-5.58,0.84,0.15,-0.13,0.03,-34.84,-15.69,32.65,-1.00
20979.00,-8.29,-5.31,1.24,0.24,-0.04,-0.01,-34.84,-15.69,32.65,-1.00
20991.00,-8.29,-5.31,1.24,0.24,-0.04,-0.01,-34.84,-15.69,32.65,-1.00
21005.00,-8.28,-4.99,1.84,0.12,0.05,-0.10,-34.84,-15.69,32.65,-1.00
21017.00,-8.28,-4.99,1.84,0.12,0.05,-0.10,-34.84,-15.69,32.65,-1.00
21029.00,-8.43,-4.98,1.61,-0.07,0.14,-0.20,-34.46,-16.39,34.23,-1.00
21041.00,-8.35,-6.38,2.85,-0.23,0.28,-0.27,-34.46,-16.39,34.23,-1.00
21055.00,-8.35,-6.38,2.85,-0.23,0.28,-0.27,-34.46,-16.39,34.23,-1.00
21067.00,-8.27,-5.47,0.90,-0.30,0.54,-0.24,-34.46,-16.39,34.23,-1.00
21079.00,-8.49,-5.85,1.64,-0.49,0.39,-0.30,-34.46,-16.39,34.23,-1.00
21091.00,-8.49,-5.85,1.64,-0.49,0.39,-0.30,-34.46,-16.39,34.23,-1.00
21106.00,-7.53,-6.12,0.94,-0.66,0.14,-0.43,-34.46,-16.39,34.23,-1.00
21118.00,-6.82,-6.58,0.41,-0.70,-0.13,-0.41,-34.46,-16.39,34.23,-1.00
21130.00,-6.82,-6.58,0.41,-0.70,-0.13,-0.41,-34.46,-16.39,34.23,-1.00
21144.00,-6.38,-7.26,0.52,-0.57,-0.28,-0.26,-34.46,-16.39,34.23,-1.00
21156.00,-6.38,-7.26,0.52,-0.57,-0.28,-0.26,-34.46,-16.39,34.23,-1.00
21168.00,-6.57,-7.51,0.53,-0.37,-0.33,-0.07,-34.46,-18.84,32.97,-1.00
21180.00,-6.74,-7.18,0.21,-0.18,-0.27,0.20,-34.46,-18.84,32.97,-1.00
21194.00,-6.74,-7.18,0.21,-0.18,-0.27,0.20,-34.46,-18.84,32.97,-1.00
21206.00,-7.51,-6.81,0.88,-0.04,-0.24,0.45,-34.46,-18.84,32.97,-1.00
21218.00,-9.19,-5.69,1.52,-0.04,-0.15,0.54,-34.46,-18.84,32.97,-1.00
21233.00,-9.19,-5.69,1.52,-0.04,-0.15,0.54,-34.46,-18.84,32.97,-1.00
21244.00,-8.64,-4.79,1.03,-0.16,0.03,0.39,-34.46,-18.84,32.97,-1.00
21256.00,-8.64,-4.79,1.03,-0.16,0.03,0.39,-34.46,-18.84,32.97,-1.00
21268.00,-8.19,-4.92,1.92,-0.29,0.17,0.23,-34.46,-18.84,32.97,-1.00
21282.00,-7.94,-5.61,1.16,-0.35,0.36,0.11,-34.27,-16.92,33.12,-1.00
21294.00,-7.94,-5.61,1.16,-0.35,0.36,0.11,-34.27,-16.92,33.12,-1.00
21306.00,-7.81,-5.89,1.11,-0.43,0.28,0.03,-34.27,-16.92,33.12,-1.00
21318.00,-8.00,-5.49,1.03,-0.43,0.26,-0.03,-34.27,-16.92,33.12,-1.00
21332.00,-8.00,-5.49,1.03,-0.43,0.26,-0.03,-34.27,-16.92,33.12,-1.00
21344.00,-8.33,-5.17,1.54,-0.42,0.26,-0.16,-34.27,-16.92,33.12,-1.00
21356.00,-8.33,-5.17,1.54,-0.42,0.26,-0.16,-34.27,-16.92,33.12,-1.00
21370.00,-8.76,-5.02,0.16,-0.50,0.25,-0.36,-34.27,-16.92,33.12,-1.00
21382.00,-7.54,-6.01,0.30,-0.63,-0.01,-0.56,-34.27,-16.92,33.12,-1.00
21394.00,-7.54,-6.01,0.30,-0.63,-0.01,-0.56,-34.27,-16.92,33.12,-1.00
21406.00,-7.16,-6.53,-0.00,-0.60,-0.17,-0.54,-36.92,-18.66,31.54,-1.00
21420.00,-7.21,-6.69,0.28,-0.51,-0.29,-0.38,-36.92,-18.66,31.54,-1.00
21432.00,-7.21,-6.69,0.28,-0.51,-0.29,-0.38,-36.92,-18.66,31.54,-1.00
21444.00,-6.79,-7.34,-0.02,-0.40,-0.27,-0.21,-36.92,-18.66,31.54,-1.00
21456.00,-6.79,-7.34,-0.02,-0.40,-0.27,-0.21,-36.92,-18.66,31.54,-1.00
21470.00,-6.55,-7.42,-0.73,-0.19,-0.18,0.01,-36.92,-18.66,31.54,-1.00
21559.00,-8.29,-4.91,2.03,-0.17,-0.26,0.20,-34.27,-16.22,32.17,-1.00
21647.00,-8.01,-5.48,1.09,-0.32,0.22,0.03,-33.51,-15.87,35.02,-1.00
21660.00,-7.81,-5.96,0.59,-0.22,0.33,-0.02,-33.51,-15.87,35.02,-1.00
21673.00,-7.81,-5.96,0.59,-0.22,0.33,-0.02,-33.51,-15.87,35.02,-1.00
21685.00,-7.73,-6.22,1.02,-0.14,0.32,-0.02,-33.51,-15.87,35.02,-1.00
21697.00,-7.91,-5.54,0.35,-0.15,0.23,0.04,-33.51,-15.87,35.02,-1.00
21711.00,-7.91,-5.54,0.35,-0.15,0.23,0.04,-33.51,-15.87,35.02,-1.00
21723.00,-8.14,-5.24,1.55,-0.31,0.03,0.04,-33.51,-15.87,35.02,-1.00
21735.00,-8.14,-5.24,1.55,-0.31,0.03,0.04,-33.51,-15.87,35.02,-1.00
21747.00,-8.24,-5.57,1.41,-0.58,0.04,-0.03,-33.51,-15.87,35.02,-1.00
21761.00,-8.37,-5.63,0.67,-0.69,0.08,-0.02,-36.35,-16.04,32.65,-1.00
21773.00,-8.37,-5.63,0.67,-0.69,0.08,-0.02,-36.35,-16.04,32.65,-1.00
21785.00,-8.25,-4.38,0.79,-0.73,-0.01,-0.01,-36.35,-16.04,32.65,-1.00
21800.00,-8.13,-5.20,0.26,-0.73,-0.01,-0.21,-36.35,-16.04,32.65,-1.00
21811.00,-8.13,-5.20,0.26,-0.73,-0.01,-0.21,-36.35,-16.04,32.65,-1.00
21823.00,-8.01,-5.68,0.54,-0.68,-0.02,-0.32,-36.35,-16.04,32.65,-1.00
21835.00,-8.01,-5.68,0.54,-0.68,-0.02,-0.32,-36.35,-16.04,32.65,-1.00
21849.00,-8.36,-5.88,0.50,-0.57,0.02,-0.46,-36.35,-16.04,32.65,-1.00
21861.00,-7.29,-6.55,-0.07,-0.44,0.05,-0.54,-36.35,-16.04,32.65,-1.00
21873.00,-7.29,-6.55,-0.07,-0.44,0.05,-0.54,-36.35,-16.04,32.65,-1.00
21885.00,-6.29,-8.14,0.09,-0.26,-0.05,-0.36,-36.35,-16.04,32.65,-1.00
21899.00,-7.06,-7.34,0.55,-0.11,-0.17,-0.01,-33.51,-19.01,31.22,-1.00
21911.00,-7.06,-7.34,0.55,-0.11,-0.17,-0.01,-33.51,-19.01,31.22,-1.00
21923.00,-6.82,-7.10,0.14,-0.05,-0.15,0.19,-33.51,-19.01,31.22,-1.00
21937.00,-8.91,-6.19,0.46,0.00,-0.14,0.42,-33.51,-19.01,31.22,-1.00
21949.00,-8.91,-6.19,0.46,0.00,-0.14,0.42,-33.51,-19.01,31.22,-1.00
21961.00,-8.76,-4.80,1.52,-0.02,-0.08,0.36,-33.51,-19.01,31.22,-1.00
21973.00,-8.76,-4.80,1.52,-0.02,-0.08,0.36,-33.51,-19.01,31.22,-1.00
21988.00,-8.57,-5.51,1.18,-0.11,0.04,0.19,-33.51,-19.01,31.22,-1.00
21999.00,-8.02,-5.28,0.40,-0.23,0.20,0.14,-33.51,-19.01,31.22,-1.00
22011.00,-8.02,-5.28,0.40,-0.23,0.20,0.14,-33.51,-19.01,31.22,-1.00
22023.00,-8.15,-5.49,1.04,-0.42,0.14,0.09,-36.35,-16.04,32.33,-1.00
22037.00,-7.98,-5.07,0.65,-0.56,0.04,0.04,-36.35,-16.04,32.33,-1.00
22049.00,-7.98,-5.07,0.65,-0.56,0.04,0.04,-36.35,-16.04,32.33,-1.00
22061.00,-7.59,-6.00,0.05,-0.58,-0.07,-0.06,-36.35,-16.04,32.33,-1.00
22075.00,-7.59,-6.00,0.05,-0.58,-0.07,-0.06,-36.35,-16.04,32.33,-1.00
22087.00,-7.39,-6.72,-0.02,-0.54,-0.20,-0.08,-36.35,-16.04,32.33,-1.00
22099.00,-7.63,-6.74,0.40,-0.40,-0.28,-0.02,-36.35,-16.04,32.33,-1.00
22111.00,-7.63,-6.74,0.40,-0.40,-0.28,-0.02,-36.35,-16.04,32.33,-1.00
22125.00,-7.86,-6.06,0.26,-0.30,-0.34,0.07,-36.35,-16.04,32.33,-1.00
22137.00,-7.98,-5.99,0.56,-0.13,-0.30,0.11,-35.97,-17.79,31.06,-1.00
22149.00,-7.98,-5.99,0.56,-0.13,-0.30,0.11,-35.97,-17.79,31.06,-1.00
22163.00,-8.04,-6.04,0.78,-0.05,-0.23,0.14,-35.97,-17.79,31.06,-1.00
22175.00,-8.04,-6.04,0.78,-0.05,-0.23,0.14,-35.97,-17.79,31.06,-1.00
22187.00,-8.20,-5.42,1.25,-0.05,-0.15,0.18,-35.97,-17.79,31.06,-1.00
22199.00,-8.87,-5.56,2.87,-0.11,-0.04,0.13,-35.97,-17.79,31.06,-1.00
22213.00,-8.87,-5.56,2.87,-0.11,-0.04,0.13,-35.97,-17.79,31.06,-1.00
22225.00,-8.95,-6.12,2.27,-0.26,0.37,0.10,-35.97,-17.79,31.06,-1.00
22237.00,-7.96,-4.91,0.60,-0.39,0.74,0.15,-35.97,-17.79,31.06,-1.00
22249.00,-7.96,-4.91,0.60,-0.39,0.74,0.15,-35.97,-17.79,31.06,-1.00
22264.00,-7.21,-6.53,-0.23,-0.38,0.74,0.03,-35.97,-17.79,30.11,-1.00
22275.00,-7.21,-6.53,-0.23,-0.38,0.74,0.03,-35.97,-17.79,30.11,-1.00
22287.00,-7.20,-6.97,-0.58,-0.17,0.44,0.00,-35.97,-17.79,30.11,-1.00
22301.00,-7.65,-6.04,0.23,0.01,0.16,0.03,-35.97,-17.79,30.11,-1.00
22389.00,-8.53,-4.92,1.07,-0.04,-0.19,-0.10,-35.78,-15.52,31.54,-1.00
22479.00,-8.18,-5.78,1.06,-0.62,0.49,-0.92,-35.78,-15.52,31.54,-1.00
22567.00,-8.02,-5.26,0.77,-0.02,-0.77,0.54,-36.54,-19.01,30.59,-1.00
22581.00,-7.65,-5.95,0.72,-0.17,-0.55,0.12,-36.54,-19.01,30.59,-1.00
22592.00,-7.65,-5.95,0.72,-0.17,-0.55,0.12,-36.54,-19.01,30.59,-1.00
22604.00,-5.96,-8.61,-0.49,-0.24,-0.29,-0.26,-36.54,-19.01,30.59,-1.00
22616.00,-6.99,-6.76,0.09,-0.08,-0.31,-0.00,-36.54,-19.01,30.59,-1.00
22630.00,-6.99,-6.76,0.09,-0.08,-0.31,-0.00,-36.54,-19.01,30.59,-1.00
22642.00,-7.94,-5.90,1.13,0.04,-0.36,0.17,-34.27,-18.31,31.86,-1.00
22654.00,-7.94,-5.90,1.13,0.04,-0.36,0.17,-34.27,-18.31,31.86,-1.00
22668.00,-8.39,-5.23,1.62,0.00,-0.32,0.17,-34.27,-18.31,31.86,-1.00
22680.00,-7.94,-6.01,1.18,-0.05,-0.25,0.08,-34.27,-18.31,31.86,-1.00
22692.00,-7.94,-6.01,1.18,-0.05,-0.25,0.08,-34.27,-18.31,31.86,-1.00
22704.00,-7.37,-6.81,0.74,-0.03,-0.16,0.14,-34.27,-18.31,31.86,-1.00
22718.00,-8.33,-6.17,0.72,0.01,-0.12,0.27,-34.27,-18.31,31.86,-1.00
22730.00,-8.33,-6.17,0.72,0.01,-0.12,0.27,-34.27,-18.31,31.86,-1.00
22742.00,-8.43,-5.18,0.92,-0.04,-0.10,0.27,-34.27,-18.31,31.86,-1.00
22754.00,-8.43,-5.18,0.92,-0.04,-0.10,0.27,-34.27,-18.31,31.86,-1.00
22768.00,-8.45,-5.14,1.88,-0.20,-0.08,0.19,-35.22,-15.69,31.70,-1.00
22780.00,-8.28,-5.14,1.47,-0.42,0.04,0.13,-35.22,-15.69,31.70,-1.00
22792.00,-8.28,-5.14,1.47,-0.42,0.04,0.13,-35.22,-15.69,31.70,-1.00
22806.00,-7.87,-5.17,0.50,-0.56,0.09,0.08,-35.22,-15.69,31.70,-1.00
22818.00,-7.83,-5.56,0.51,-0.61,-0.07,0.01,-35.22,-15.69,31.70,-1.00
22830.00,-7.83,-5.56,0.51,-0.61,-0.07,0.01,-35.22,-15.69,31.70,-1.00
22842.00,-7.60,-5.91,0.66,-0.57,-0.21,-0.03,-35.22,-15.69,31.70,-1.00
22856.00,-7.66,-6.36,0.96,-0.44,-0.27,-0.06,-35.22,-15.69,31.70,-1.00
22868.00,-7.66,-6.36,0.96,-0.44,-0.27,-0.06,-35.22,-15.69,31.70,-1.00
22880.00,-7.58,-6.34,0.38,-0.25,-0.28,-0.04,-34.46,-17.79,32.65,-1.00
22892.00,-7.58,-6.34,0.38,-0.25,-0.28,-0.04,-34.46,-17.79,32.65,-1.00
22907.00,-7.79,-6.12,0.79,-0.03,-0.29,-0.01,-34.46,-17.79,32.65,-1.00
22918.00,-8.04,-5.57,1.06,0.11,-0.22,0.00,-34.46,-17.79,32.65,-1.00
22930.00,-8.04,-5.57,1.06,0.11,-0.22,0.00,-34.46,-17.79,32.65,-1.00
22944.00,-8.17,-5.77,1.49,0.16,-0.08,-0.05,-34.46,-17.79,32.65,-1.00
22956.00,-8.20,-5.50,1.95,0.24,0.04,-0.07,-34.46,-17.79,32.65,-1.00
22968.00,-8.20,-5.50,1.95,0.24,0.04,-0.07,-34.46,-17.79,32.65,-1.00
22980.00,-8.23,-5.28,1.59,0.12,0.09,-0.11,-34.46,-17.79,32.65,-1.00
22994.00,-8.23,-5.28,1.59,0.12,0.09,-0.11,-34.46,-17.79,32.65,-1.00
23006.00,-8.38,-5.36,1.94,-0.19,0.17,-0.17,-34.27,-15.87,33.12,-1.00
23018.00,-8.10,-5.80,1.25,-0.32,0.37,-0.22,-34.27,-15.87,33.12,-1.00
23030.00,-8.10,-5.80,1.25,-0.32,0.37,-0.22,-34.27,-15.87,33.12,-1.00
23045.00,-8.42,-5.03,0.63,-0.43,0.37,-0.25,-34.27,-15.87,33.12,-1.00
23059.00,-8.97,-4.59,0.58,-0.55,0.19,-0.40,-34.27,-15.87,33.12,-1.00
23071.00,-8.97,-4.59,0.58,-0.55,0.19,-0.40,-34.27,-15.87,33.12,-1.00
23085.00,-7.74,-5.89,1.42,-0.71,-0.02,-0.67,-34.27,-15.87,33.12,-1.00
23097.00,-6.74,-6.85,-0.05,-0.74,-0.14,-0.67,-34.27,-15.87,33.12,-1.00
23109.00,-6.74,-6.85,-0.05,-0.74,-0.14,-0.67,-34.27,-15.87,33.12,-1.00
23121.00,-6.12,-7.81,-0.08,-0.57,-0.35,-0.42,-32.57,-19.54,33.28,-1.00
23135.00,-6.13,-7.96,-0.21,-0.32,-0.40,-0.07,-32.57,-19.54,33.28,-1.00
23147.00,-6.13,-7.96,-0.21,-0.32,-0.40,-0.07,-32.57,-19.54,33.28,-1.00
23159.00,-6.47,-7.49,-0.23,-0.07,-0.42,0.27,-32.57,-19.54,33.28,-1.00
23171.00,-6.47,-7.49,-0.23,-0.07,-0.42,0.27,-32.57,-19.54,33.28,-1.00
23186.00,-7.55,-6.71,1.26,0.03,-0.49,0.56,-32.57,-19.54,33.28,-1.00
23197.00,-10.34,-4.72,2.20,-0.01,-0.40,0.66,-32.57,-19.54,33.28,-1.00
23209.00,-10.34,-4.72,2.20,-0.01,-0.40,0.66,-32.57,-19.54,33.28,-1.00
23224.00,-8.65,-4.71,1.76,-0.17,-0.14,0.42,-32.57,-19.54,33.28,-1.00
23235.00,-8.56,-5.95,2.28,-0.31,0.04,0.27,-32.57,-19.54,33.28,-1.00
23247.00,-8.56,-5.95,2.28,-0.31,0.04,0.27,-32.57,-19.54,33.28,-1.00
23259.00,-8.14,-5.32,1.15,-0.39,0.34,0.29,-32.95,-16.39,32.65,-1.00
23273.00,-8.14,-5.32,1.15,-0.39,0.34,0.29,-32.95,-16.39,32.65,-1.00
23285.00,-7.83,-5.17,1.34,-0.42,0.48,0.24,-32.95,-16.39,32.65,-1.00
23297.00,-7.96,-4.98,1.31,-0.42,0.43,0.11,-32.95,-16.39,32.65,-1.00
23309.00,-7.96,-4.98,1.31,-0.42,0.43,0.11,-32.95,-16.39,32.65,-1.00
23323.00,-8.21,-4.93,1.08,-0.45,0.37,-0.04,-32.95,-16.39,32.65,-1.00
23335.00,-8.13,-5.39,0.76,-0.51,0.27,-0.22,-32.95,-16.39,32.65,-1.00
23347.00,-8.13,-5.39,0.76,-0.51,0.27,-0.22,-32.95,-16.39,32.65,-1.00
23361.00,-8.17,-5.67,0.77,-0.59,0.10,-0.44,-32.95,-16.39,32.65,-1.00
23373.00,-8.17,-5.67,0.77,-0.59,0.10,-0.44,-32.95,-16.39,32.65,-1.00
23385.00,-6.95,-7.02,-0.27,-0.59,-0.02,-0.47,-34.84,-18.84,33.60,-1.00
23397.00,-6.31,-7.82,-0.60,-0.38,-0.05,-0.18,-34.84,-18.84,33.60,-1.00
23411.00,-6.31,-7.82,-0.60,-0.38,-0.05,-0.18,-34.84,-18.84,33.60,-1.00
23423.00,-6.66,-7.39,-0.93,-0.10,-0.02,0.22,-34.84,-18.84,33.60,-1.00
23435.00,-9.60,-5.25,0.31,0.07,-0.13,0.53,-34.84,-18.84,33.60,-1.00
23449.00,-9.60,-5.25,0.31,0.07,-0.13,0.53,-34.84,-18.84,33.60,-1.00
23461.00,-8.92,-4.10,2.29,-0.12,-0.17,0.37,-34.84,-18.84,33.60,-1.00
23473.00,-8.92,-4.10,2.29,-0.12,-0.17,0.37,-34.84,-18.84,33.60,-1.00
23485.00,-8.43,-5.20,1.61,-0.41,-0.05,0.13,-34.84,-18.84,33.60,-1.00
23500.00,-7.99,-5.49,0.62,-0.58,-0.05,0.07,-34.08,-15.69,33.28,-1.00
23511.00,-7.99,-5.49,0.62,-0.58,-0.05,0.07,-34.08,-15.69,33.28,-1.00
23523.00,-7.77,-5.78,0.20,-0.57,-0.14,0.03,-34.08,-15.69,33.28,-1.00
23535.00,-7.56,-6.15,0.43,-0.47,-0.25,0.01,-34.08,-15.69,33.28,-1.00
23549.00,-7.56,-6.15,0.43,-0.47,-0.25,0.01,-34.08,-15.69,33.28,-1.00
23561.00,-7.81,-6.26,0.91,-0.33,-0.29,0.00,-34.08,-15.69,33.28,-1.00
23573.00,-7.81,-6.26,0.91,-0.33,-0.29,0.00,-34.08,-15.69,33.28,-1.00
23587.00,-7.84,-5.98,0.73,-0.17,-0.28,0.00,-34.08,-15.69,33.28,-1.00
23599.00,-7.56,-6.13,0.64,-0.01,-0.27,-0.00,-34.08,-15.69,33.28,-1.00
23611.00,-7.56,-6.13,0.64,-0.01,-0.27,-0.00,-34.08,-15.69,33.28,-1.00
23623.00,-7.96,-5.99,0.90,0.15,-0.18,0.01,-32.38,-16.57,33.12,-1.00
23637.00,-7.99,-5.50,1.39,0.17,-0.05,0.01,-32.38,-16.57,33.12,-1.00
23649.00,-7.99,-5.50,1.39,0.17,-0.05,0.01,-32.38,-16.57,33.12,-1.00
23661.00,-8.40,-5.78,1.78,0.12,0.02,-0.08,-32.38,-16.57,33.12,-1.00
23673.00,-8.40,-5.78,1.78,0.12,0.02,-0.08,-32.38,-16.57,33.12,-1.00
23687.00,-8.41,-5.28,1.39,-0.03,0.09,-0.10,-32.38,-16.57,33.12,-1.00
23699.00,-8.34,-5.37,0.72,-0.16,0.20,-0.16,-32.38,-16.57,33.12,-1.00
23711.00,-8.34,-5.37,0.72,-0.16,0.20,-0.16,-32.38,-16.57,33.12,-1.00
23725.00,-8.42,-5.91,2.03,-0.29,0.30,-0.17,-32.38,-16.57,33.12,-1.00
23737.00,-8.36,-5.50,1.08,-0.47,0.48,-0.16,-33.32,-17.09,32.33,-1.00
23749.00,-8.36,-5.50,1.08,-0.47,0.48,-0.16,-33.32,-17.09,32.33,-1.00
23761.00,-8.40,-5.48,0.16,-0.66,0.28,-0.28,-33.32,-17.09,32.33,-1.00
23775.00,-7.42,-6.17,0.54,-0.73,-0.02,-0.35,-33.32,-17.09,32.33,-1.00
23787.00,-7.42,-6.17,0.54,-0.73,-0.02,-0.35,-33.32,-17.09,32.33,-1.00
23799.00,-6.82,-6.86,0.25,-0.66,-0.10,-0.25,-33.32,-17.09,32.33,-1.00
23811.00,-6.82,-6.86,0.25,-0.66,-0.10,-0.25,-33.32,-17.09,32.33,-1.00
23825.00,-7.10,-6.69,0.44,-0.53,-0.19,-0.07,-33.32,-17.09,32.33,-1.00
23837.00,-6.72,-7.10,-0.24,-0.36,-0.17,0.03,-33.32,-17.09,32.33,-1.00
23849.00,-6.72,-7.10,-0.24,-0.36,-0.17,0.03,-33.32,-17.09,32.33,-1.00
23863.00,-7.07,-6.97,-0.02,-0.13,-0.15,0.24,-33.32,-17.09,32.33,-1.00
23875.00,-7.71,-6.41,0.00,0.04,-0.11,0.48,-35.22,-18.49,32.33,-1.00
23887.00,-7.71,-6.41,0.00,0.04,-0.11,0.48,-35.22,-18.49,32.33,-1.00
23899.00,-9.37,-4.74,1.05,0.04,-0.15,0.52,-35.22,-18.49,32.33,-1.00
23913.00,-9.37,-4.74,1.05,0.04,-0.15,0.52,-35.22,-18.49,32.33,-1.00
24001.00,-7.85,-6.00,0.76,-0.59,-0.20,-0.01,-34.65,-16.22,32.17,-1.00
24091.00,-8.04,-5.86,0.74,0.03,-0.14,-0.01,-34.65,-16.22,32.17,-1.00
24178.00,-8.56,-5.54,0.45,-0.42,0.43,-0.19,-35.41,-17.27,33.76,-1.00
24192.00,-8.56,-5.54,0.45,-0.42,0.43,-0.19,-35.41,-17.27,33.76,-1.00
24204.00,-8.61,-5.11,-0.20,-0.62,0.19,-0.24,-35.41,-17.27,33.76,-1.00
24216.00,-7.59,-6.03,0.90,-0.71,-0.06,-0.39,-35.41,-17.27,33.76,-1.00
24231.00,-7.59,-6.03,0.90,-0.71,-0.06,-0.39,-35.41,-17.27,33.76,-1.00
24242.00,-7.11,-6.65,0.23,-0.67,-0.12,-0.35,-35.03,-18.66,32.17,-1.00
24254.00,-6.85,-7.05,-0.02,-0.53,-0.18,-0.20,-35.03,-18.66,32.17,-1.00
24266.00,-6.85,-7.05,-0.02,-0.53,-0.18,-0.20,-35.03,-18.66,32.17,-1.00
24280.00,-6.61,-7.38,-0.27,-0.35,-0.19,0.00,-35.03,-18.66,32.17,-1.00
24292.00,-6.61,-7.38,-0.27,-0.35,-0.19,0.00,-35.03,-18.66,32.17,-1.00
24304.00,-7.08,-7.07,-0.20,-0.14,-0.22,0.29,-35.03,-18.66,32.17,-1.00
24318.00,-7.93,-6.13,0.65,0.01,-0.24,0.51,-35.03,-18.66,32.17,-1.00
24330.00,-7.93,-6.13,0.65,0.01,-0.24,0.51,-35.03,-18.66,32.17,-1.00
24342.00,-9.06,-4.94,2.07,-0.04,-0.16,0.46,-35.03,-18.66,32.17,-1.00
24354.00,-8.78,-5.28,1.41,-0.21,0.12,0.27,-34.08,-16.74,32.01,-1.00
24368.00,-8.78,-5.28,1.41,-0.21,0.12,0.27,-34.08,-16.74,32.01,-1.00
24380.00,-8.50,-5.61,1.52,-0.27,0.43,0.21,-34.08,-16.74,32.01,-1.00
24392.00,-8.50,-5.61,1.52,-0.27,0.43,0.21,-34.08,-16.74,32.01,-1.00
24404.00,-7.91,-5.32,0.50,-0.34,0.65,0.19,-34.08,-16.74,32.01,-1.00
24418.00,-7.15,-6.47,-0.73,-0.32,0.60,0.10,-34.08,-16.74,32.01,-1.00
24430.00,-7.15,-6.47,-0.73,-0.32,0.60,0.10,-34.08,-16.74,32.01,-1.00
24442.00,-7.58,-5.82,-0.19,-0.20,0.30,0.09,-34.08,-16.74,32.01,-1.00
24456.00,-7.91,-4.93,-0.11,-0.08,0.16,-0.01,-34.08,-16.74,32.01,-1.00
24468.00,-7.91,-4.93,-0.11,-0.08,0.16,-0.01,-34.08,-16.74,32.01,-1.00
24480.00,-8.33,-5.22,0.25,-0.01,0.12,-0.16,-35.59,-16.74,31.06,-1.00
24492.00,-8.33,-5.22,0.25,-0.01,0.12,-0.16,-35.59,-16.74,31.06,-1.00
24507.00,-8.30,-5.08,0.56,-0.08,0.03,-0.19,-35.59,-16.74,31.06,-1.00
24518.00,-8.10,-5.93,0.06,-0.12,0.00,-0.25,-35.59,-16.74,31.06,-1.00
24530.00,-8.10,-5.93,0.06,-0.12,0.00,-0.25,-35.59,-16.74,31.06,-1.00
24542.00,-8.23,-6.06,0.43,-0.10,-0.09,-0.20,-35.59,-16.74,31.06,-1.00
24556.00,-8.77,-5.84,0.24,-0.19,-0.15,-0.14,-35.59,-16.74,31.06,-1.00
24568.00,-8.77,-5.84,0.24,-0.19,-0.15,-0.14,-35.59,-16.74,31.06,-1.00
24580.00,-10.21,-4.21,0.65,-0.37,-0.13,-0.24,-35.59,-16.74,31.06,-1.00
24594.00,-10.47,-4.43,0.07,-0.65,-0.15,-0.68,-35.59,-16.74,31.06,-1.00
24606.00,-10.47,-4.43,0.07,-0.65,-0.15,-0.68,-35.59,-16.74,31.06,-1.00
24618.00,-8.84,-4.83,-0.58,-0.64,-0.41,-1.12,-34.46,-19.54,30.75,-1.00
24630.00,-8.84,-4.83,-0.58,-0.64,-0.41,-1.12,-34.46,-19.54,30.75,-1.00
24644.00,-7.24,-5.37,0.60,-0.60,-0.81,-1.35,-34.46,-19.54,30.75,-1.00
24656.00,-5.71,-6.81,-0.79,-0.48,-1.04,-1.37,-34.46,-19.54,30.75,-1.00
24668.00,-5.71,-6.81,-0.79,-0.48,-1.04,-1.37,-34.46,-19.54,30.75,-1.00
24682.00,-5.34,-7.52,-1.54,-0.14,-1.49,-1.20,-34.46,-19.54,30.75,-1.00
24694.00,-4.52,-7.83,-1.96,0.34,-2.09,-0.97,-34.46,-19.54,30.75,-1.00
24706.00,-4.52,-7.83,-1.96,0.34,-2.09,-0.97,-34.46,-19.54,30.75,-1.00
24718.00,-3.67,-7.66,-1.25,1.19,-2.82,-0.62,-34.46,-19.54,30.75,-1.00
24732.00,-3.67,-7.66,-1.25,1.19,-2.82,-0.62,-34.46,-19.54,30.75,-1.00
24744.00,-3.63,-6.66,-0.53,2.41,-3.40,-0.18,-27.27,-23.38,38.98,-1.00
24756.00,-3.15,-4.62,-0.92,4.43,-3.82,0.29,-27.27,-23.38,38.98,-1.00
24768.00,-3.15,-4.62,-0.92,4.43,-3.82,0.29,-27.27,-23.38,38.98,-1.00
24782.00,-2.63,-1.24,0.65,8.01,-4.19,0.92,-27.27,-23.38,38.98,-1.00
24794.00,-3.27,1.38,6.37,12.81,-4.43,1.90,-27.27,-23.38,38.98,-1.00
24806.00,-3.27,1.38,6.37,12.81,-4.43,1.90,-27.27,-23.38,38.98,-1.00
24820.00,-4.54,3.59,13.63,15.92,-3.87,3.14,-27.27,-23.38,38.98,-1.00
24909.00,-5.99,8.44,4.12,9.14,1.42,1.29,-7.03,40.74,20.45,-1.00
24998.00,-4.87,11.70,-2.75,-2.34,-2.07,-2.59,-1.73,34.10,-18.19,-1.00
25085.00,-3.05,-1.88,-0.87,-10.89,0.08,-4.88,-1.73,34.10,-18.19,-1.00
25098.00,-6.93,-0.23,7.23,-4.18,1.58,-1.68,-28.41,30.43,14.28,-1.00
25110.00,-6.93,-0.23,7.23,-4.18,1.58,-1.68,-28.41,30.43,14.28,-1.00
25122.00,-9.22,5.42,5.00,-4.69,1.84,-0.99,-28.41,30.43,14.28,-1.00
25134.00,-8.15,4.92,7.50,-4.54,1.82,-1.42,-28.41,30.43,14.28,-1.00
25148.00,-8.15,4.92,7.50,-4.54,1.82,-1.42,-28.41,30.43,14.28,-1.00
25160.00,-10.40,5.45,11.23,-6.65,2.27,-2.46,-28.41,30.43,14.28,-1.00
25172.00,-10.40,5.45,11.23,-6.65,2.27,-2.46,-28.41,30.43,14.28,-1.00
25184.00,-6.60,5.27,9.05,-10.89,3.21,-3.72,-28.41,30.43,14.28,-1.00
25198.00,-7.76,1.42,7.10,-11.91,4.63,-3.91,-28.41,30.43,14.28,-1.00
25210.00,-7.76,1.42,7.10,-11.91,4.63,-3.91,-28.41,30.43,14.28,-1.00
25222.00,-6.22,1.70,4.11,-11.44,6.13,-3.12,-28.41,30.43,14.28,-1.00
25236.00,-1.75,0.43,1.01,-9.77,7.26,-2.25,-42.97,3.00,21.40,-1.00
25248.00,-1.75,0.43,1.01,-9.77,7.26,-2.25,-42.97,3.00,21.40,-1.00
25260.00,-0.40,-3.07,-8.32,-9.51,7.23,-1.32,-42.97,3.00,21.40,-1.00
25272.00,-0.40,-3.07,-8.32,-9.51,7.23,-1.32,-42.97,3.00,21.40,-1.00
25287.00,-2.85,-1.38,-10.88,-6.85,5.62,0.63,-42.97,3.00,21.40,-1.00
25298.00,-4.96,-0.05,-8.59,-3.04,3.56,1.72,-42.97,3.00,21.40,-1.00
25310.00,-4.96,-0.05,-8.59,-3.04,3.56,1.72,-42.97,3.00,21.40,-1.00
25322.00,-5.95,-0.85,-5.65,-2.44,2.22,1.78,-42.97,3.00,21.40,-1.00
25336.00,-8.06,-2.08,0.98,-2.27,2.33,1.97,-42.97,3.00,21.40,-1.00
25348.00,-8.06,-2.08,0.98,-2.27,2.33,1.97,-42.97,3.00,21.40,-1.00
